NativeLangNumber,LanuageNumber,SessionNumber,Block,TrialNum,ConditionNumber,Response,Accuracy,RT,MovementOnsetTime,TimeInMotion,SignalContrast,SignalContrastNumber,StimDisplayTime,MaskTime,MaxResponseTime,MousePositionXY,MouseAngle,WheelOrder,NoiseMuSigma,ParticipantID,LanuageTested,SessionTested,NativeLanuage,Date,ResponseDevice
1,1,4,0,1,1,1,1,1158,388,770,153,0,500,200,8000,"[(960, 540), (960, 540), (960, 540), (960, 540), (960, 540), (960, 540), (960, 540), (960, 540), (960, 540), (960, 540), (960, 540), (960, 540), (960, 540), (960, 540), (960, 540), (960, 540), (960, 540), (960, 540), (960, 540), (960, 540), (960, 540), (960, 540), (960, 540), (960, 540), (960, 540), (960, 540), (960, 540), (960, 540), (960, 540), (960, 540), (960, 540), (960, 540), (960, 540), (960, 540), (960, 540), (960, 540), (960, 540), (960, 540), (960, 542), (960, 547), (960, 552), (960, 559), (960, 572), (960, 580), (960, 587), (960, 596), (960, 610), (962, 616), (962, 624), (962, 635), (962, 664), (962, 679), (962, 695), (962, 718), (962, 771), (962, 801), (962, 824), (962, 844), (961, 872), (960, 886), (956, 897), (955, 905), (952, 920), (950, 926), (950, 929), (950, 931), (947, 933), (947, 933), (947, 933), (947, 933), (947, 933), (947, 933), (947, 933), (947, 933), (947, 934), (947, 934), (946, 932), (946, 920), (946, 873), (946, 832), (946, 787), (946, 737), (946, 638), (946, 601), (946, 579), (946, 557), (944, 528), (943, 518), (942, 509), (940, 500), (937, 486), (937, 483), (937, 481), (937, 480), (937, 480), (937, 480), (937, 480), (937, 480), (937, 480), (937, 480), (937, 480), (937, 480), (937, 480), (937, 480), (937, 480), (937, 480), (937, 480), (937, 480), (934, 485), (927, 507), (905, 593), (893, 640), (876, 695), (858, 754), (824, 870), (813, 917)]",111.30182608926143,"[7, 5, 1, 2, 6, 4, 8, 3, 9]","(0, 0.25)",CHN005D,CHN,D,English,Thu Aug 23 15:43:25 2018,Mouse
1,1,4,0,2,7,7,1,780,590,190,153,0,500,200,8000,"[(960, 540), (960, 540), (960, 540), (960, 540), (960, 540), (960, 540), (960, 540), (960, 540), (960, 540), (960, 540), (960, 540), (960, 540), (960, 540), (960, 540), (960, 540), (960, 540), (960, 540), (960, 540), (960, 540), (960, 540), (960, 540), (960, 540), (960, 540), (960, 540), (960, 540), (960, 540), (960, 540), (960, 540), (960, 540), (960, 540), (960, 540), (960, 540), (960, 540), (960, 540), (960, 540), (960, 540), (960, 540), (960, 540), (960, 540), (960, 540), (960, 540), (960, 540), (960, 540), (960, 540), (960, 540), (960, 540), (960, 540), (960, 540), (960, 540), (960, 540), (960, 540), (960, 540), (960, 540), (960, 540), (960, 540), (960, 540), (960, 540), (960, 540), (961, 539), (968, 539), (977, 541), (995, 545), (1006, 548), (1019, 552), (1037, 557), (1072, 570), (1093, 579), (1116, 589), (1145, 601), (1186, 617), (1206, 624), (1226, 631), (1245, 635), (1284, 646), (1304, 652), (1321, 657), (1332, 659), (1355, 666)]",17.692024594469846,"[7, 5, 1, 2, 6, 4, 8, 3, 9]","(0, 0.25)",CHN005D,CHN,D,English,Thu Aug 23 15:43:25 2018,Mouse
1,1,4,0,3,1,1,1,430,150,280,152,0,500,200,8000,"[(960, 540), (960, 540), (960, 540), (960, 540), (960, 540), (960, 540), (960, 540), (960, 540), (960, 540), (960, 540), (960, 540), (960, 540), (960, 540), (960, 540), (959, 540), (958, 540), (958, 540), (957, 540), (957, 540), (957, 540), (957, 540), (957, 540), (957, 540), (957, 541), (957, 543), (957, 545), (957, 554), (957, 562), (957, 572), (956, 584), (952, 615), (948, 634), (946, 650), (943, 664), (933, 704), (925, 732), (919, 754), (911, 772), (897, 822), (884, 854), (875, 879), (858, 914), (843, 972)]",105.1540680503126,"[7, 5, 1, 2, 6, 4, 8, 3, 9]","(0, 0.25)",CHN005D,CHN,D,English,Thu Aug 23 15:43:25 2018,Mouse
1,1,4,0,4,3,3,1,490,210,280,151,0,500,200,8000,"[(960, 540), (960, 540), (960, 540), (960, 540), (960, 540), (960, 540), (960, 540), (960, 540), (960, 540), (960, 540), (960, 540), (960, 540), (960, 540), (960, 540), (960, 540), (960, 540), (960, 540), (960, 540), (960, 540), (960, 540), (960, 539), (964, 535), (970, 526), (974, 521), (977, 516), (980, 513), (986, 503), (990, 496), (995, 490), (1000, 481), (1011, 462), (1017, 452), (1023, 442), (1029, 430), (1041, 409), (1048, 400), (1054, 391), (1061, 383), (1072, 366), (1076, 356), (1080, 346), (1084, 333), (1099, 301), (1106, 283), (1116, 269), (1123, 255), (1144, 222), (1158, 203), (1169, 186)]",300.55741029876447,"[7, 5, 1, 2, 6, 4, 8, 3, 9]","(0, 0.25)",CHN005D,CHN,D,English,Thu Aug 23 15:43:25 2018,Mouse
1,1,4,0,5,1,1,1,580,331,249,150,0,500,200,8000,"[(960, 540), (960, 540), (960, 540), (960, 540), (960, 540), (960, 540), (960, 540), (960, 540), (960, 540), (960, 540), (960, 540), (960, 540), (960, 540), (960, 540), (960, 540), (960, 540), (960, 540), (960, 540), (960, 540), (960, 540), (960, 540), (960, 540), (960, 540), (960, 540), (960, 540), (960, 540), (960, 540), (960, 540), (960, 540), (960, 540), (960, 540), (960, 540), (960, 540), (960, 546), (960, 550), (960, 555), (960, 569), (962, 579), (963, 589), (963, 598), (963, 625), (963, 638), (962, 653), (960, 668), (954, 712), (951, 726), (949, 744), (949, 756), (949, 785), (949, 802), (949, 817), (949, 830), (949, 858), (949, 872), (949, 887), (947, 902), (943, 931), (942, 944)]",92.55109508900094,"[7, 5, 1, 2, 6, 4, 8, 3, 9]","(0, 0.25)",CHN005D,CHN,D,English,Thu Aug 23 15:43:25 2018,Mouse
1,1,4,0,6,3,3,1,490,240,250,149,0,500,200,8000,"[(960, 540), (960, 540), (960, 540), (960, 540), (960, 540), (960, 540), (960, 540), (960, 540), (960, 540), (960, 540), (960, 540), (960, 540), (960, 540), (960, 540), (960, 540), (960, 540), (960, 540), (960, 540), (960, 540), (960, 540), (960, 540), (960, 540), (960, 540), (963, 535), (963, 531), (969, 520), (972, 513), (974, 507), (978, 498), (988, 475), (992, 465), (997, 455), (1003, 447), (1017, 423), (1024, 410), (1031, 397), (1039, 383), (1057, 357), (1068, 343), (1074, 332), (1084, 318), (1102, 293), (1110, 281), (1119, 266), (1125, 253), (1139, 224), (1145, 208), (1151, 192), (1156, 182)]",298.70008928313575,"[7, 5, 1, 2, 6, 4, 8, 3, 9]","(0, 0.25)",CHN005D,CHN,D,English,Thu Aug 23 15:43:25 2018,Mouse
1,1,4,0,7,4,4,1,630,360,270,148,0,500,200,8000,"[(960, 540), (960, 540), (960, 540), (960, 540), (960, 540), (960, 540), (960, 540), (960, 540), (960, 540), (960, 540), (960, 540), (960, 540), (960, 540), (960, 540), (960, 540), (960, 540), (960, 540), (960, 540), (960, 540), (960, 540), (960, 540), (960, 540), (960, 540), (960, 540), (960, 540), (960, 540), (960, 540), (960, 540), (960, 540), (960, 540), (960, 540), (960, 540), (960, 540), (960, 540), (960, 540), (959, 541), (952, 539), (945, 533), (935, 527), (916, 514), (905, 508), (892, 499), (881, 491), (855, 473), (846, 465), (838, 457), (827, 448), (805, 427), (794, 418), (781, 408), (771, 399), (747, 380), (737, 371), (726, 361), (716, 351), (692, 326), (684, 317), (679, 310), (674, 303), (667, 291), (663, 285), (657, 279), (652, 272)]",221.02750405924934,"[7, 5, 1, 2, 6, 4, 8, 3, 9]","(0, 0.25)",CHN005D,CHN,D,English,Thu Aug 23 15:43:25 2018,Mouse
1,1,4,0,8,6,6,1,649,389,260,147,0,500,200,8000,"[(960, 540), (960, 540), (960, 540), (960, 540), (960, 540), (960, 540), (960, 540), (960, 540), (960, 540), (960, 540), (960, 540), (960, 540), (960, 540), (960, 540), (960, 540), (960, 540), (960, 540), (960, 540), (960, 540), (960, 540), (960, 540), (960, 540), (960, 540), (960, 540), (960, 540), (960, 540), (960, 540), (960, 540), (960, 540), (960, 540), (960, 540), (960, 540), (960, 540), (960, 540), (960, 540), (960, 540), (960, 540), (960, 540), (957, 543), (924, 548), (913, 549), (904, 551), (901, 553), (893, 554), (888, 554), (882, 555), (876, 555), (861, 555), (853, 555), (845, 555), (832, 555), (802, 555), (789, 555), (772, 555), (753, 552), (722, 551), (707, 551), (690, 551), (673, 551), (645, 551), (630, 551), (618, 551), (601, 551), (571, 551), (556, 551)]",178.44035173773338,"[7, 5, 1, 2, 6, 4, 8, 3, 9]","(0, 0.25)",CHN005D,CHN,D,English,Thu Aug 23 15:43:25 2018,Mouse
1,1,4,0,9,1,1,1,341,171,170,146,0,500,200,8000,"[(960, 540), (960, 540), (960, 540), (960, 540), (960, 540), (960, 540), (960, 540), (960, 540), (960, 540), (960, 540), (960, 540), (960, 540), (960, 540), (960, 540), (960, 540), (960, 540), (960, 540), (961, 540), (961, 547), (960, 552), (959, 558), (958, 568), (951, 591), (947, 604), (942, 620), (936, 640), (928, 671), (918, 697), (910, 723), (898, 754), (877, 816), (867, 847), (858, 877), (850, 908), (842, 964)]",105.55198537038247,"[7, 5, 1, 2, 6, 4, 8, 3, 9]","(0, 0.25)",CHN005D,CHN,D,English,Thu Aug 23 15:43:25 2018,Mouse
1,1,4,0,10,2,2,1,410,110,300,145,0,500,200,8000,"[(960, 540), (960, 540), (960, 540), (960, 540), (960, 540), (960, 540), (960, 540), (960, 540), (960, 540), (960, 540), (960, 538), (960, 538), (959, 542), (955, 552), (940, 576), (931, 592), (918, 609), (905, 627), (886, 655), (878, 665), (870, 677), (862, 688), (845, 711), (837, 723), (829, 733), (821, 744), (804, 765), (795, 775), (786, 784), (778, 792), (767, 802), (764, 805), (762, 806), (760, 807), (757, 810), (755, 813), (747, 817), (738, 821), (715, 834), (699, 842), (687, 848)]",131.5526131481348,"[7, 5, 1, 2, 6, 4, 8, 3, 9]","(0, 0.25)",CHN005D,CHN,D,English,Thu Aug 23 15:43:25 2018,Mouse
1,1,4,0,11,1,1,1,402,131,271,144,0,500,200,8000,"[(960, 540), (960, 540), (960, 540), (960, 540), (960, 540), (960, 540), (960, 540), (960, 540), (960, 540), (960, 540), (960, 540), (960, 540), (960, 540), (960, 542), (960, 547), (960, 553), (959, 563), (956, 583), (954, 594), (952, 606), (951, 615), (947, 635), (946, 643), (945, 651), (944, 661), (940, 685), (938, 700), (932, 720), (927, 737), (919, 769), (916, 786), (914, 801), (913, 814), (910, 838), (909, 849), (906, 862), (906, 877), (904, 906), (903, 918), (903, 933), (902, 944)]",98.1698083627083,"[7, 5, 1, 2, 6, 4, 8, 3, 9]","(0, 0.25)",CHN005D,CHN,D,English,Thu Aug 23 15:43:25 2018,Mouse
1,1,4,0,12,7,7,1,770,550,220,143,0,500,200,8000,"[(960, 540), (960, 540), (960, 540), (960, 540), (960, 540), (960, 540), (960, 540), (960, 540), (960, 540), (960, 540), (960, 540), (960, 540), (960, 540), (960, 540), (960, 540), (960, 540), (960, 540), (960, 540), (960, 540), (960, 540), (960, 540), (960, 540), (960, 540), (960, 540), (960, 540), (960, 540), (960, 540), (960, 540), (960, 540), (960, 540), (960, 540), (960, 540), (960, 540), (960, 540), (960, 540), (960, 540), (960, 540), (960, 540), (960, 540), (960, 540), (960, 540), (960, 540), (960, 540), (960, 540), (960, 540), (960, 540), (960, 540), (960, 540), (960, 540), (960, 540), (960, 540), (960, 540), (960, 540), (960, 540), (964, 539), (987, 543), (999, 548), (1011, 554), (1026, 560), (1056, 570), (1071, 576), (1090, 585), (1105, 591), (1137, 602), (1152, 608), (1167, 615), (1181, 620), (1208, 628), (1220, 631), (1233, 634), (1245, 638), (1273, 646), (1284, 650), (1296, 652), (1310, 657), (1337, 663), (1348, 668)]",18.25756307538974,"[7, 5, 1, 2, 6, 4, 8, 3, 9]","(0, 0.25)",CHN005D,CHN,D,English,Thu Aug 23 15:43:25 2018,Mouse
1,1,4,0,13,8,8,1,731,481,250,142,0,500,200,8000,"[(960, 540), (960, 540), (960, 540), (960, 540), (960, 540), (960, 540), (960, 540), (960, 540), (960, 540), (960, 540), (960, 540), (960, 540), (960, 540), (960, 540), (960, 540), (960, 540), (960, 540), (960, 540), (960, 540), (960, 540), (960, 540), (960, 540), (960, 540), (960, 540), (960, 540), (960, 540), (960, 540), (960, 540), (960, 540), (960, 540), (960, 540), (960, 540), (960, 540), (960, 540), (960, 540), (960, 540), (960, 540), (960, 540), (960, 540), (960, 540), (960, 540), (960, 540), (960, 540), (960, 540), (960, 540), (960, 540), (960, 540), (960, 540), (959, 540), (959, 538), (958, 536), (958, 534), (956, 529), (954, 526), (949, 511), (947, 503), (945, 492), (945, 480), (938, 443), (935, 422), (935, 400), (931, 378), (930, 348), (930, 333), (930, 317), (929, 302), (923, 266), (922, 248), (918, 229), (914, 213), (904, 179), (902, 167), (898, 155), (894, 142)]",260.58437360845966,"[7, 5, 1, 2, 6, 4, 8, 3, 9]","(0, 0.25)",CHN005D,CHN,D,English,Thu Aug 23 15:43:25 2018,Mouse
1,1,4,0,14,1,1,1,280,20,260,141,0,500,200,8000,"[(960, 543), (960, 545), (960, 547), (960, 550), (960, 552), (960, 554), (960, 556), (961, 560), (963, 564), (963, 567), (963, 569), (963, 576), (963, 582), (963, 590), (963, 597), (963, 616), (963, 627), (961, 640), (959, 654), (950, 682), (948, 697), (942, 722), (935, 750), (924, 801), (918, 826), (910, 854), (902, 882), (887, 943)]",100.26730829144662,"[7, 5, 1, 2, 6, 4, 8, 3, 9]","(0, 0.25)",CHN005D,CHN,D,English,Thu Aug 23 15:43:25 2018,Mouse
1,1,4,0,15,8,8,1,480,260,220,140,0,500,200,8000,"[(960, 540), (960, 540), (960, 540), (960, 540), (960, 540), (960, 540), (960, 540), (960, 540), (960, 540), (960, 540), (960, 540), (960, 540), (960, 540), (960, 540), (960, 540), (960, 540), (960, 540), (960, 540), (960, 540), (960, 540), (960, 540), (960, 540), (960, 540), (960, 540), (960, 540), (960, 538), (960, 520), (960, 511), (960, 502), (960, 490), (960, 467), (960, 455), (959, 443), (957, 429), (950, 401), (945, 383), (940, 370), (937, 352), (926, 316), (921, 299), (916, 285), (912, 268), (901, 236), (895, 224), (889, 209), (883, 196), (869, 165), (859, 144)]",255.69173113617754,"[7, 5, 1, 2, 6, 4, 8, 3, 9]","(0, 0.25)",CHN005D,CHN,D,English,Thu Aug 23 15:43:25 2018,Mouse
1,1,4,0,16,5,5,1,770,250,520,139,0,500,200,8000,"[(960, 540), (960, 540), (960, 540), (960, 540), (960, 540), (960, 540), (960, 540), (960, 540), (960, 540), (960, 540), (960, 540), (960, 540), (960, 540), (960, 540), (960, 540), (960, 540), (960, 540), (960, 540), (960, 540), (960, 540), (960, 540), (960, 540), (960, 540), (960, 540), (961, 540), (964, 540), (967, 541), (971, 542), (975, 545), (986, 549), (989, 550), (990, 550), (990, 551), (990, 551), (990, 551), (990, 551), (990, 551), (990, 551), (990, 551), (990, 551), (990, 551), (992, 553), (993, 553), (994, 555), (995, 558), (1001, 564), (1003, 565), (1005, 569), (1008, 573), (1013, 578), (1015, 581), (1018, 583), (1019, 586), (1029, 600), (1034, 606), (1041, 616), (1047, 625), (1062, 646), (1069, 656), (1078, 668), (1090, 684), (1106, 706), (1115, 720), (1122, 729), (1129, 738), (1140, 755), (1144, 764), (1149, 775), (1153, 788), (1159, 809), (1161, 820), (1165, 831), (1168, 841), (1176, 857), (1178, 863), (1183, 872), (1187, 879)]",56.193081964005806,"[7, 5, 1, 2, 6, 4, 8, 3, 9]","(0, 0.25)",CHN005D,CHN,D,English,Thu Aug 23 15:43:25 2018,Mouse
1,1,4,0,17,6,6,1,470,260,210,138,0,500,200,8000,"[(960, 540), (960, 540), (960, 540), (960, 540), (960, 540), (960, 540), (960, 540), (960, 540), (960, 540), (960, 540), (960, 540), (960, 540), (960, 540), (960, 540), (960, 540), (960, 540), (960, 540), (960, 540), (960, 540), (960, 540), (960, 540), (960, 540), (960, 540), (960, 540), (960, 540), (958, 538), (953, 538), (936, 538), (926, 538), (913, 538), (897, 538), (868, 538), (851, 538), (838, 538), (824, 538), (800, 538), (786, 538), (771, 538), (759, 538), (731, 538), (712, 538), (683, 535), (656, 530), (611, 525), (586, 523), (566, 523), (543, 523)]",182.33450643666487,"[7, 5, 1, 2, 6, 4, 8, 3, 9]","(0, 0.25)",CHN005D,CHN,D,English,Thu Aug 23 15:43:25 2018,Mouse
1,1,4,0,18,4,9,0,-2490,2140,350,137,0,500,200,8000,"[(960, 540), (960, 540), (960, 540), (960, 540), (960, 540), (960, 540), (960, 540), (960, 540), (960, 540), (960, 540), (960, 540), (960, 540), (960, 540), (960, 540), (960, 540), (960, 540), (960, 540), (960, 540), (960, 540), (960, 540), (960, 540), (960, 540), (960, 540), (960, 540), (960, 540), (960, 540), (960, 540), (960, 540), (960, 540), (960, 540), (960, 540), (960, 540), (960, 540), (960, 540), (960, 540), (960, 540), (960, 540), (960, 540), (960, 540), (960, 540), (960, 540), (960, 540), (960, 540), (960, 540), (960, 540), (960, 540), (960, 540), (960, 540), (960, 540), (960, 540), (960, 540), (960, 540), (960, 540), (960, 540), (960, 540), (960, 540), (960, 540), (960, 540), (960, 540), (960, 540), (960, 540), (960, 540), (960, 540), (960, 540), (960, 540), (960, 540), (960, 540), (960, 540), (960, 540), (960, 540), (960, 540), (960, 540), (960, 540), (960, 540), (960, 540), (960, 540), (960, 540), (960, 540), (960, 540), (960, 540), (960, 540), (960, 540), (960, 540), (960, 540), (960, 540), (960, 540), (960, 540), (960, 540), (960, 540), (960, 540), (960, 540), (960, 540), (960, 540), (960, 540), (960, 540), (960, 540), (960, 540), (960, 540), (960, 540), (960, 540), (960, 540), (960, 540), (960, 540), (960, 540), (960, 540), (960, 540), (960, 540), (960, 540), (960, 540), (960, 540), (960, 540), (960, 540), (960, 540), (960, 540), (960, 540), (960, 540), (960, 540), (960, 540), (960, 540), (960, 540), (960, 540), (960, 540), (960, 540), (960, 540), (960, 540), (960, 540), (960, 540), (960, 540), (960, 540), (960, 540), (960, 540), (960, 540), (960, 540), (960, 540), (960, 540), (960, 540), (960, 540), (960, 540), (960, 540), (960, 540), (960, 540), (960, 540), (960, 540), (960, 540), (960, 540), (960, 540), (960, 540), (960, 540), (960, 540), (960, 540), (960, 540), (960, 540), (960, 540), (960, 540), (960, 540), (960, 540), (960, 540), (960, 540), (960, 540), (960, 540), (960, 540), (960, 540), (960, 540), (960, 540), (960, 540), (960, 540), (960, 540), (960, 540), (960, 540), (960, 540), (960, 540), (960, 540), (960, 540), (960, 540), (960, 540), (960, 540), (960, 540), (960, 540), (960, 540), (960, 540), (960, 540), (960, 540), (960, 540), (960, 540), (960, 540), (960, 540), (960, 540), (960, 540), (960, 540), (960, 540), (960, 540), (960, 540), (960, 540), (960, 540), (960, 540), (960, 540), (960, 540), (960, 540), (960, 540), (960, 540), (960, 540), (960, 540), (960, 540), (960, 540), (960, 540), (960, 540), (960, 540), (960, 540), (960, 540), (960, 540), (960, 540), (960, 540), (960, 540), (962, 540), (965, 540), (977, 540), (986, 542), (997, 546), (1003, 547), (1015, 549), (1020, 550), (1022, 551), (1024, 552), (1024, 552), (1024, 552), (1025, 552), (1026, 552), (1030, 552), (1032, 552), (1038, 551), (1046, 548), (1063, 543), (1074, 539), (1088, 534), (1100, 532), (1124, 525), (1134, 522), (1147, 519), (1156, 515), (1183, 507), (1197, 504), (1210, 498), (1224, 491), (1250, 480), (1263, 473), (1279, 464), (1300, 455), (1338, 439), (1351, 433)]",344.6952960392971,"[7, 5, 1, 2, 6, 4, 8, 3, 9]","(0, 0.25)",CHN005D,CHN,D,English,Thu Aug 23 15:43:25 2018,Mouse
1,1,4,0,19,6,6,1,301,81,220,138,0,500,200,8000,"[(960, 540), (960, 540), (960, 540), (960, 540), (960, 540), (960, 540), (960, 540), (960, 540), (958, 540), (954, 541), (936, 541), (923, 541), (910, 541), (898, 541), (874, 541), (864, 539), (853, 538), (842, 537), (821, 534), (809, 533), (795, 529), (780, 528), (741, 526), (721, 526), (700, 523), (679, 520), (640, 514), (619, 512), (601, 509), (585, 507), (554, 502)]",185.34708160029936,"[7, 5, 1, 2, 6, 4, 8, 3, 9]","(0, 0.25)",CHN005D,CHN,D,English,Thu Aug 23 15:43:25 2018,Mouse
1,1,4,0,20,2,2,1,840,140,700,138,0,500,200,8000,"[(960, 540), (960, 540), (960, 540), (960, 540), (960, 540), (960, 540), (960, 540), (960, 540), (960, 540), (960, 540), (960, 540), (960, 540), (960, 540), (960, 542), (960, 544), (959, 547), (958, 548), (957, 550), (954, 552), (953, 554), (951, 558), (948, 564), (943, 578), (940, 584), (935, 594), (931, 604), (919, 631), (910, 652), (902, 670), (891, 687), (881, 703), (880, 704), (880, 704), (880, 704), (880, 704), (880, 704), (880, 704), (880, 704), (880, 704), (880, 704), (880, 704), (880, 704), (880, 704), (880, 704), (880, 704), (880, 704), (880, 704), (880, 704), (880, 704), (880, 704), (880, 704), (880, 704), (880, 704), (880, 704), (880, 704), (880, 704), (880, 704), (880, 700), (883, 690), (883, 689), (883, 686), (883, 686), (883, 685), (883, 685), (883, 685), (883, 685), (883, 685), (883, 685), (883, 685), (883, 685), (875, 692), (865, 700), (856, 707), (846, 715), (824, 730), (813, 737), (796, 745), (783, 751), (752, 765), (731, 773), (707, 785), (694, 790), (663, 806), (650, 814)]",138.52746805037413,"[7, 5, 1, 2, 6, 4, 8, 3, 9]","(0, 0.25)",CHN005D,CHN,D,English,Thu Aug 23 15:43:25 2018,Mouse
1,1,4,0,21,6,6,1,340,60,280,137,0,500,200,8000,"[(960, 540), (960, 540), (960, 540), (960, 540), (960, 540), (959, 540), (949, 540), (942, 540), (934, 540), (912, 540), (903, 540), (896, 540), (889, 540), (878, 540), (872, 540), (865, 540), (860, 540), (845, 540), (835, 540), (824, 540), (813, 540), (792, 540), (781, 540), (768, 538), (759, 537), (736, 533), (724, 532), (712, 529), (692, 527), (656, 522), (633, 522), (611, 522), (588, 522), (549, 522)]",182.50770172706623,"[7, 5, 1, 2, 6, 4, 8, 3, 9]","(0, 0.25)",CHN005D,CHN,D,English,Thu Aug 23 15:43:25 2018,Mouse
1,1,4,0,22,2,3,0,-600,360,240,136,0,500,200,8000,"[(960, 540), (960, 540), (960, 540), (960, 540), (960, 540), (960, 540), (960, 540), (960, 540), (960, 540), (960, 540), (960, 540), (960, 540), (960, 540), (960, 540), (960, 540), (960, 540), (960, 540), (960, 540), (960, 540), (960, 540), (960, 540), (960, 540), (960, 540), (960, 540), (960, 540), (960, 540), (960, 540), (960, 540), (960, 540), (960, 540), (960, 540), (960, 540), (960, 540), (960, 540), (960, 540), (963, 536), (964, 531), (966, 527), (976, 512), (981, 504), (986, 497), (992, 491), (1004, 472), (1008, 463), (1014, 453), (1021, 441), (1039, 416), (1052, 399), (1063, 382), (1072, 368), (1086, 344), (1094, 333), (1101, 322), (1107, 310), (1123, 284), (1131, 267), (1143, 245), (1153, 229), (1166, 205), (1174, 191)]",301.51581440722646,"[7, 5, 1, 2, 6, 4, 8, 3, 9]","(0, 0.25)",CHN005D,CHN,D,English,Thu Aug 23 15:43:25 2018,Mouse
1,1,4,0,23,3,3,1,561,341,220,137,0,500,200,8000,"[(960, 540), (960, 540), (960, 540), (960, 540), (960, 540), (960, 540), (960, 540), (960, 540), (960, 540), (960, 540), (960, 540), (960, 540), (960, 540), (960, 540), (960, 540), (960, 540), (960, 540), (960, 540), (960, 540), (960, 540), (960, 540), (960, 540), (960, 540), (960, 540), (960, 540), (960, 540), (960, 540), (960, 540), (960, 540), (960, 540), (960, 540), (960, 540), (960, 540), (960, 540), (965, 535), (969, 530), (976, 524), (980, 516), (991, 501), (996, 491), (1003, 480), (1013, 464), (1029, 441), (1037, 429), (1046, 418), (1058, 403), (1080, 380), (1094, 368), (1105, 356), (1115, 344), (1140, 316), (1151, 299), (1162, 284), (1175, 267), (1193, 244), (1203, 231), (1210, 220)]",307.99873244250466,"[7, 5, 1, 2, 6, 4, 8, 3, 9]","(0, 0.25)",CHN005D,CHN,D,English,Thu Aug 23 15:43:25 2018,Mouse
1,1,4,0,24,9,9,1,1390,410,980,137,0,500,200,8000,"[(960, 540), (960, 540), (960, 540), (960, 540), (960, 540), (960, 540), (960, 540), (960, 540), (960, 540), (960, 540), (960, 540), (960, 540), (960, 540), (960, 540), (960, 540), (960, 540), (960, 540), (960, 540), (960, 540), (960, 540), (960, 540), (960, 540), (960, 540), (960, 540), (960, 540), (960, 540), (960, 540), (960, 540), (960, 540), (960, 540), (960, 540), (960, 540), (960, 540), (960, 540), (960, 540), (960, 540), (960, 540), (960, 540), (960, 540), (960, 540), (962, 541), (967, 541), (974, 541), (981, 541), (1002, 537), (1013, 535), (1022, 532), (1031, 531), (1051, 526), (1060, 520), (1070, 515), (1080, 509), (1103, 496), (1113, 491), (1127, 481), (1134, 475), (1149, 465), (1154, 462), (1157, 459), (1158, 459), (1159, 458), (1159, 458), (1159, 458), (1159, 458), (1159, 458), (1159, 458), (1159, 458), (1159, 458), (1159, 458), (1159, 458), (1159, 458), (1159, 458), (1159, 458), (1159, 458), (1159, 458), (1159, 458), (1159, 458), (1159, 458), (1159, 458), (1159, 458), (1159, 458), (1159, 458), (1159, 458), (1159, 458), (1159, 458), (1159, 458), (1159, 458), (1159, 458), (1159, 458), (1159, 458), (1159, 458), (1159, 458), (1159, 458), (1159, 458), (1159, 458), (1159, 458), (1159, 458), (1159, 458), (1159, 458), (1159, 458), (1159, 458), (1159, 458), (1159, 458), (1159, 458), (1159, 458), (1159, 458), (1159, 458), (1159, 458), (1159, 458), (1159, 458), (1159, 458), (1159, 458), (1159, 458), (1159, 458), (1159, 458), (1159, 458), (1159, 458), (1159, 458), (1159, 458), (1159, 458), (1159, 458), (1159, 458), (1159, 458), (1159, 458), (1160, 458), (1164, 457), (1170, 457), (1178, 455), (1196, 452), (1210, 450), (1224, 449), (1236, 447), (1262, 441), (1276, 438), (1287, 434), (1300, 429), (1324, 417), (1337, 410), (1347, 404)]",340.63744420439855,"[7, 5, 1, 2, 6, 4, 8, 3, 9]","(0, 0.25)",CHN005D,CHN,D,English,Thu Aug 23 15:43:25 2018,Mouse
1,1,4,0,25,5,5,1,560,110,450,136,0,500,200,8000,"[(960, 540), (960, 540), (960, 540), (960, 540), (960, 540), (960, 540), (960, 540), (960, 540), (960, 540), (960, 540), (961, 541), (966, 542), (969, 544), (970, 544), (971, 544), (973, 545), (975, 546), (976, 547), (979, 549), (981, 550), (988, 554), (992, 556), (998, 561), (1005, 566), (1019, 573), (1027, 579), (1033, 585), (1041, 588), (1054, 596), (1056, 598), (1061, 599), (1064, 602), (1066, 605), (1068, 606), (1068, 608), (1071, 613), (1077, 628), (1081, 638), (1085, 646), (1090, 656), (1096, 672), (1100, 681), (1105, 691), (1109, 701), (1120, 728), (1124, 740), (1129, 758), (1135, 778), (1144, 811), (1150, 824), (1154, 835), (1159, 845), (1166, 863), (1171, 871), (1175, 877), (1180, 885)]",57.47510971220896,"[7, 5, 1, 2, 6, 4, 8, 3, 9]","(0, 0.25)",CHN005D,CHN,D,English,Thu Aug 23 15:43:25 2018,Mouse
1,1,4,0,26,1,6,0,-521,341,180,135,0,500,200,8000,"[(960, 540), (960, 540), (960, 540), (960, 540), (960, 540), (960, 540), (960, 540), (960, 540), (960, 540), (960, 540), (960, 540), (960, 540), (960, 540), (960, 540), (960, 540), (960, 540), (960, 540), (960, 540), (960, 540), (960, 540), (960, 540), (960, 540), (960, 540), (960, 540), (960, 540), (960, 540), (960, 540), (960, 540), (960, 540), (960, 540), (960, 540), (960, 540), (960, 540), (960, 540), (956, 540), (943, 538), (921, 535), (912, 534), (901, 533), (888, 533), (857, 531), (840, 531), (822, 530), (807, 529), (772, 527), (753, 527), (733, 527), (713, 527), (663, 527), (643, 527), (621, 527), (596, 527), (548, 525)]",182.08509043528292,"[7, 5, 1, 2, 6, 4, 8, 3, 9]","(0, 0.25)",CHN005D,CHN,D,English,Thu Aug 23 15:43:25 2018,Mouse
1,1,4,0,27,4,6,0,-2141,1861,280,136,0,500,200,8000,"[(960, 540), (960, 540), (960, 540), (960, 540), (960, 540), (960, 540), (960, 540), (960, 540), (960, 540), (960, 540), (960, 540), (960, 540), (960, 540), (960, 540), (960, 540), (960, 540), (960, 540), (960, 540), (960, 540), (960, 540), (960, 540), (960, 540), (960, 540), (960, 540), (960, 540), (960, 540), (960, 540), (960, 540), (960, 540), (960, 540), (960, 540), (960, 540), (960, 540), (960, 540), (960, 540), (960, 540), (960, 540), (960, 540), (960, 540), (960, 540), (960, 540), (960, 540), (960, 540), (960, 540), (960, 540), (960, 540), (960, 540), (960, 540), (960, 540), (960, 540), (960, 540), (960, 540), (960, 540), (960, 540), (960, 540), (960, 540), (960, 540), (960, 540), (960, 540), (960, 540), (960, 540), (960, 540), (960, 540), (960, 540), (960, 540), (960, 540), (960, 540), (960, 540), (960, 540), (960, 540), (960, 540), (960, 540), (960, 540), (960, 540), (960, 540), (960, 540), (960, 540), (960, 540), (960, 540), (960, 540), (960, 540), (960, 540), (960, 540), (960, 540), (960, 540), (960, 540), (960, 540), (960, 540), (960, 540), (960, 540), (960, 540), (960, 540), (960, 540), (960, 540), (960, 540), (960, 540), (960, 540), (960, 540), (960, 540), (960, 540), (960, 540), (960, 540), (960, 540), (960, 540), (960, 540), (960, 540), (960, 540), (960, 540), (960, 540), (960, 540), (960, 540), (960, 540), (960, 540), (960, 540), (960, 540), (960, 540), (960, 540), (960, 540), (960, 540), (960, 540), (960, 540), (960, 540), (960, 540), (960, 540), (960, 540), (960, 540), (960, 540), (960, 540), (960, 540), (960, 540), (960, 540), (960, 540), (960, 540), (960, 540), (960, 540), (960, 540), (960, 540), (960, 540), (960, 540), (960, 540), (960, 540), (960, 540), (960, 540), (960, 540), (960, 540), (960, 540), (960, 540), (960, 540), (960, 540), (960, 540), (960, 540), (960, 540), (960, 540), (960, 540), (960, 540), (960, 540), (960, 540), (960, 540), (960, 540), (960, 540), (960, 540), (960, 540), (960, 540), (960, 540), (960, 540), (960, 540), (960, 540), (960, 540), (960, 540), (960, 540), (960, 540), (960, 540), (960, 540), (960, 540), (960, 540), (960, 540), (960, 540), (960, 540), (960, 540), (960, 540), (960, 540), (960, 540), (960, 540), (960, 540), (960, 540), (960, 540), (956, 540), (943, 543), (937, 543), (930, 544), (922, 545), (906, 548), (902, 548), (892, 549), (884, 550), (866, 554), (853, 555), (842, 557), (831, 559), (802, 563), (790, 565), (779, 566), (768, 567), (741, 572), (728, 573), (711, 576), (698, 576), (670, 576), (653, 576), (636, 576), (617, 576), (585, 576), (575, 576), (569, 576), (560, 576)]",174.85723544211578,"[7, 5, 1, 2, 6, 4, 8, 3, 9]","(0, 0.25)",CHN005D,CHN,D,English,Thu Aug 23 15:43:25 2018,Mouse
1,1,4,0,28,1,9,0,-1140,379,761,137,0,500,200,8000,"[(960, 540), (960, 540), (960, 540), (960, 540), (960, 540), (960, 540), (960, 540), (960, 540), (960, 540), (960, 540), (960, 540), (960, 540), (960, 540), (960, 540), (960, 540), (960, 540), (960, 540), (960, 540), (960, 540), (960, 540), (960, 540), (960, 540), (960, 540), (960, 540), (960, 540), (960, 540), (960, 540), (960, 540), (960, 540), (960, 540), (960, 540), (960, 540), (960, 540), (960, 540), (960, 540), (960, 540), (960, 540), (961, 540), (966, 539), (976, 535), (981, 534), (988, 532), (995, 531), (1007, 530), (1013, 529), (1015, 529), (1017, 529), (1017, 529), (1017, 529), (1017, 529), (1017, 529), (1017, 529), (1017, 529), (1017, 529), (1017, 529), (1017, 529), (1017, 529), (1017, 529), (1017, 529), (1017, 529), (1017, 529), (1017, 529), (1017, 529), (1017, 529), (1017, 529), (1017, 529), (1017, 529), (1017, 529), (1017, 529), (1018, 529), (1018, 528), (1018, 527), (1018, 527), (1018, 525), (1017, 524), (1016, 523), (1016, 523), (1015, 522), (1014, 521), (1013, 520), (1013, 520), (1013, 519), (1012, 519), (1012, 519), (1012, 519), (1012, 519), (1012, 519), (1012, 518), (1012, 517), (1012, 515), (1013, 515), (1023, 511), (1029, 510), (1038, 508), (1047, 505), (1076, 497), (1093, 492), (1116, 485), (1130, 481), (1167, 470), (1187, 465), (1199, 460), (1209, 458), (1225, 453), (1231, 452), (1238, 447), (1245, 444), (1264, 439), (1278, 437), (1290, 433), (1303, 430), (1328, 422), (1339, 418), (1349, 413)]",341.9192709578924,"[7, 5, 1, 2, 6, 4, 8, 3, 9]","(0, 0.25)",CHN005D,CHN,D,English,Thu Aug 23 15:43:25 2018,Mouse
1,1,4,0,29,5,9,0,-448,228,220,138,0,500,200,8000,"[(960, 540), (960, 540), (960, 540), (960, 540), (960, 540), (960, 540), (960, 540), (960, 540), (960, 540), (960, 540), (960, 540), (960, 540), (960, 540), (960, 540), (960, 540), (960, 540), (960, 540), (960, 540), (960, 540), (960, 540), (960, 540), (960, 540), (967, 540), (973, 540), (988, 539), (994, 539), (998, 538), (1004, 537), (1013, 535), (1017, 535), (1022, 534), (1028, 532), (1041, 528), (1051, 524), (1060, 522), (1073, 519), (1098, 511), (1118, 505), (1139, 497), (1159, 489), (1216, 468), (1242, 456), (1272, 442), (1295, 433), (1342, 404)]",340.40320556430055,"[7, 5, 1, 2, 6, 4, 8, 3, 9]","(0, 0.25)",CHN005D,CHN,D,English,Thu Aug 23 15:43:25 2018,Mouse
1,1,4,0,30,2,9,0,-2868,2268,600,139,0,500,200,8000,"[(960, 540), (960, 540), (960, 540), (960, 540), (960, 540), (960, 540), (960, 540), (960, 540), (960, 540), (960, 540), (960, 540), (960, 540), (960, 540), (960, 540), (960, 540), (960, 540), (960, 540), (960, 540), (960, 540), (960, 540), (960, 540), (960, 540), (960, 540), (960, 540), (960, 540), (960, 540), (960, 540), (960, 540), (960, 540), (960, 540), (960, 540), (960, 540), (960, 540), (960, 540), (960, 540), (960, 540), (960, 540), (960, 540), (960, 540), (960, 540), (960, 540), (960, 540), (960, 540), (960, 540), (960, 540), (960, 540), (960, 540), (960, 540), (960, 540), (960, 540), (960, 540), (960, 540), (960, 540), (960, 540), (960, 540), (960, 540), (960, 540), (960, 540), (960, 540), (960, 540), (960, 540), (960, 540), (960, 540), (960, 540), (960, 540), (960, 540), (960, 540), (960, 540), (960, 540), (960, 540), (960, 540), (960, 540), (960, 540), (960, 540), (960, 540), (960, 540), (960, 540), (960, 540), (960, 540), (960, 540), (960, 540), (960, 540), (960, 540), (960, 540), (960, 540), (960, 540), (960, 540), (960, 540), (960, 540), (960, 540), (960, 540), (960, 540), (960, 540), (960, 540), (960, 540), (960, 540), (960, 540), (960, 540), (960, 540), (960, 540), (960, 540), (960, 540), (960, 540), (960, 540), (960, 540), (960, 540), (960, 540), (960, 540), (960, 540), (960, 540), (960, 540), (960, 540), (960, 540), (960, 540), (960, 540), (960, 540), (960, 540), (960, 540), (960, 540), (960, 540), (960, 540), (960, 540), (960, 540), (960, 540), (960, 540), (960, 540), (960, 540), (960, 540), (960, 540), (960, 540), (960, 540), (960, 540), (960, 540), (960, 540), (960, 540), (960, 540), (960, 540), (960, 540), (960, 540), (960, 540), (960, 540), (960, 540), (960, 540), (960, 540), (960, 540), (960, 540), (960, 540), (960, 540), (960, 540), (960, 540), (960, 540), (960, 540), (960, 540), (960, 540), (960, 540), (960, 540), (960, 540), (960, 540), (960, 540), (960, 540), (960, 540), (960, 540), (960, 540), (960, 540), (960, 540), (960, 540), (960, 540), (960, 540), (960, 540), (960, 540), (960, 540), (960, 540), (960, 540), (960, 540), (960, 540), (960, 540), (960, 540), (960, 540), (960, 540), (960, 540), (960, 540), (960, 540), (960, 540), (960, 540), (960, 540), (960, 540), (960, 540), (960, 540), (960, 540), (960, 540), (960, 540), (960, 540), (960, 540), (960, 540), (960, 540), (960, 540), (960, 540), (960, 540), (960, 540), (960, 540), (960, 540), (960, 540), (960, 540), (960, 540), (960, 540), (960, 540), (960, 540), (960, 540), (960, 540), (960, 540), (960, 540), (960, 540), (960, 540), (960, 540), (960, 540), (960, 540), (960, 540), (960, 540), (960, 540), (960, 540), (960, 540), (960, 540), (960, 540), (960, 540), (960, 540), (960, 540), (958, 536), (957, 533), (957, 531), (957, 528), (956, 523), (956, 521), (955, 518), (955, 514), (954, 506), (953, 502), (952, 496), (951, 492), (949, 472), (948, 466), (946, 461), (946, 457), (945, 449), (944, 445), (944, 442), (944, 440), (944, 440), (944, 440), (944, 440), (944, 440), (944, 440), (944, 440), (944, 440), (944, 440), (944, 440), (944, 440), (944, 440), (944, 440), (944, 440), (944, 440), (944, 440), (944, 440), (944, 440), (944, 440), (944, 440), (945, 439), (960, 439), (971, 439), (982, 439), (998, 439), (1029, 439), (1048, 439), (1065, 439), (1078, 437), (1106, 433), (1122, 428), (1136, 425), (1150, 421), (1175, 413), (1188, 410), (1203, 406), (1220, 401), (1262, 397), (1283, 393), (1304, 390), (1325, 387), (1353, 384)]",338.34956718532976,"[7, 5, 1, 2, 6, 4, 8, 3, 9]","(0, 0.25)",CHN005D,CHN,D,English,Thu Aug 23 15:43:25 2018,Mouse
1,1,4,0,31,8,8,1,2029,1869,160,140,0,500,200,8000,"[(960, 540), (960, 540), (960, 540), (960, 540), (960, 540), (960, 540), (960, 540), (960, 540), (960, 540), (960, 540), (960, 540), (960, 540), (960, 540), (960, 540), (960, 540), (960, 540), (960, 540), (960, 540), (960, 540), (960, 540), (960, 540), (960, 540), (960, 540), (960, 540), (960, 540), (960, 540), (960, 540), (960, 540), (960, 540), (960, 540), (960, 540), (960, 540), (960, 540), (960, 540), (960, 540), (960, 540), (960, 540), (960, 540), (960, 540), (960, 540), (960, 540), (960, 540), (960, 540), (960, 540), (960, 540), (960, 540), (960, 540), (960, 540), (960, 540), (960, 540), (960, 540), (960, 540), (960, 540), (960, 540), (960, 540), (960, 540), (960, 540), (960, 540), (960, 540), (960, 540), (960, 540), (960, 540), (960, 540), (960, 540), (960, 540), (960, 540), (960, 540), (960, 540), (960, 540), (960, 540), (960, 540), (960, 540), (960, 540), (960, 540), (960, 540), (960, 540), (960, 540), (960, 540), (960, 540), (960, 540), (960, 540), (960, 540), (960, 540), (960, 540), (960, 540), (960, 540), (960, 540), (960, 540), (960, 540), (960, 540), (960, 540), (960, 540), (960, 540), (960, 540), (960, 540), (960, 540), (960, 540), (960, 540), (960, 540), (960, 540), (960, 540), (960, 540), (960, 540), (960, 540), (960, 540), (960, 540), (960, 540), (960, 540), (960, 540), (960, 540), (960, 540), (960, 540), (960, 540), (960, 540), (960, 540), (960, 540), (960, 540), (960, 540), (960, 540), (960, 540), (960, 540), (960, 540), (960, 540), (960, 540), (960, 540), (960, 540), (960, 540), (960, 540), (960, 540), (960, 540), (960, 540), (960, 540), (960, 540), (960, 540), (960, 540), (960, 540), (960, 540), (960, 540), (960, 540), (960, 540), (960, 540), (960, 540), (960, 540), (960, 540), (960, 540), (960, 540), (960, 540), (960, 540), (960, 540), (960, 540), (960, 540), (960, 540), (960, 540), (960, 540), (960, 540), (960, 540), (960, 540), (960, 540), (960, 540), (960, 540), (960, 540), (960, 540), (960, 540), (960, 540), (960, 540), (960, 540), (960, 540), (960, 540), (960, 540), (960, 540), (960, 540), (960, 540), (960, 540), (960, 540), (960, 540), (960, 540), (960, 540), (960, 540), (960, 540), (960, 540), (960, 540), (960, 540), (960, 540), (960, 540), (960, 540), (960, 540), (962, 531), (962, 515), (962, 495), (962, 473), (962, 436), (958, 412), (955, 391), (954, 368), (948, 323), (944, 299), (942, 281), (940, 263), (934, 223), (928, 201), (921, 178), (915, 159), (907, 130)]",262.63431872589535,"[7, 5, 1, 2, 6, 4, 8, 3, 9]","(0, 0.25)",CHN005D,CHN,D,English,Thu Aug 23 15:43:25 2018,Mouse
1,1,4,0,32,2,2,1,520,370,150,140,0,500,200,8000,"[(960, 540), (960, 540), (960, 540), (960, 540), (960, 540), (960, 540), (960, 540), (960, 540), (960, 540), (960, 540), (960, 540), (960, 540), (960, 540), (960, 540), (960, 540), (960, 540), (960, 540), (960, 540), (960, 540), (960, 540), (960, 540), (960, 540), (960, 540), (960, 540), (960, 540), (960, 540), (960, 540), (960, 540), (960, 540), (960, 540), (960, 540), (960, 540), (960, 540), (960, 540), (960, 540), (960, 540), (958, 541), (955, 544), (949, 553), (946, 558), (939, 568), (931, 579), (905, 609), (890, 627), (871, 648), (851, 664), (812, 700), (788, 720), (762, 742), (736, 767), (685, 814), (670, 830)]",135.0,"[7, 5, 1, 2, 6, 4, 8, 3, 9]","(0, 0.25)",CHN005D,CHN,D,English,Thu Aug 23 15:43:25 2018,Mouse
1,1,4,0,33,5,5,1,661,441,220,139,0,500,200,8000,"[(960, 540), (960, 540), (960, 540), (960, 540), (960, 540), (960, 540), (960, 540), (960, 540), (960, 540), (960, 540), (960, 540), (960, 540), (960, 540), (960, 540), (960, 540), (960, 540), (960, 540), (960, 540), (960, 540), (960, 540), (960, 540), (960, 540), (960, 540), (960, 540), (960, 540), (960, 540), (960, 540), (960, 540), (960, 540), (960, 540), (960, 540), (960, 540), (960, 540), (960, 540), (960, 540), (960, 540), (960, 540), (960, 540), (960, 540), (960, 540), (960, 540), (960, 540), (960, 540), (962, 541), (965, 544), (973, 555), (979, 562), (983, 568), (985, 572), (991, 583), (995, 589), (1000, 596), (1005, 606), (1014, 627), (1020, 640), (1024, 652), (1031, 664), (1054, 701), (1065, 722), (1080, 747), (1095, 772), (1124, 818), (1140, 841), (1153, 858), (1169, 881), (1196, 918)]",58.021874534633234,"[7, 5, 1, 2, 6, 4, 8, 3, 9]","(0, 0.25)",CHN005D,CHN,D,English,Thu Aug 23 15:43:25 2018,Mouse
1,1,4,0,34,9,9,1,348,148,200,138,0,500,200,8000,"[(960, 540), (960, 540), (960, 540), (960, 540), (960, 540), (960, 540), (960, 540), (960, 540), (960, 540), (960, 540), (960, 540), (960, 540), (960, 540), (960, 540), (977, 539), (989, 536), (1003, 532), (1019, 527), (1062, 514), (1075, 512), (1090, 507), (1102, 503), (1126, 496), (1139, 491), (1151, 487), (1164, 481), (1192, 466), (1208, 457), (1225, 447), (1243, 437), (1278, 419), (1295, 414), (1309, 410), (1323, 406), (1357, 395)]",339.9358200621076,"[7, 5, 1, 2, 6, 4, 8, 3, 9]","(0, 0.25)",CHN005D,CHN,D,English,Thu Aug 23 15:43:25 2018,Mouse
1,1,4,0,35,4,6,0,-460,270,190,137,0,500,200,8000,"[(960, 540), (960, 540), (960, 540), (960, 540), (960, 540), (960, 540), (960, 540), (960, 540), (960, 540), (960, 540), (960, 540), (960, 540), (960, 540), (960, 540), (960, 540), (960, 540), (960, 540), (960, 540), (960, 540), (960, 540), (960, 540), (960, 540), (960, 540), (960, 540), (960, 540), (960, 540), (956, 541), (950, 541), (943, 541), (935, 541), (913, 541), (902, 541), (890, 541), (878, 541), (848, 541), (832, 541), (815, 541), (794, 542), (739, 549), (717, 549), (686, 549), (661, 549), (607, 556), (590, 558), (571, 562), (560, 563)]",176.70911631393273,"[7, 5, 1, 2, 6, 4, 8, 3, 9]","(0, 0.25)",CHN005D,CHN,D,English,Thu Aug 23 15:43:25 2018,Mouse
1,1,4,0,36,8,8,1,499,209,290,138,0,500,200,8000,"[(960, 540), (960, 540), (960, 540), (960, 540), (960, 540), (960, 540), (960, 540), (960, 540), (960, 540), (960, 540), (960, 540), (960, 540), (960, 540), (960, 540), (960, 540), (960, 540), (960, 540), (960, 540), (960, 540), (960, 540), (960, 537), (960, 532), (958, 526), (950, 512), (946, 502), (940, 493), (937, 482), (927, 462), (922, 450), (918, 440), (914, 428), (912, 409), (910, 396), (909, 385), (907, 374), (905, 351), (901, 338), (900, 327), (899, 314), (894, 287), (893, 276), (892, 263), (890, 249), (890, 223), (890, 212), (890, 200), (890, 189), (894, 166), (898, 152), (900, 140)]",261.46923439005184,"[7, 5, 1, 2, 6, 4, 8, 3, 9]","(0, 0.25)",CHN005D,CHN,D,English,Thu Aug 23 15:43:25 2018,Mouse
1,1,4,0,37,4,9,0,-1610,370,1240,138,0,500,200,8000,"[(960, 540), (960, 540), (960, 540), (960, 540), (960, 540), (960, 540), (960, 540), (960, 540), (960, 540), (960, 540), (960, 540), (960, 540), (960, 540), (960, 540), (960, 540), (960, 540), (960, 540), (960, 540), (960, 540), (960, 540), (960, 540), (960, 540), (960, 540), (960, 540), (960, 540), (960, 540), (960, 540), (960, 540), (960, 540), (960, 540), (960, 540), (960, 540), (960, 540), (960, 540), (960, 540), (960, 540), (953, 532), (943, 517), (933, 505), (924, 494), (898, 464), (886, 450), (875, 437), (863, 424), (851, 412), (844, 405), (842, 402), (838, 397), (834, 391), (830, 386), (826, 383), (821, 376), (811, 370), (807, 367), (804, 365), (802, 363), (798, 361), (796, 358), (794, 358), (792, 357), (790, 355), (790, 355), (790, 354), (790, 354), (790, 354), (790, 354), (790, 354), (790, 354), (790, 354), (790, 354), (790, 354), (790, 354), (790, 354), (790, 354), (790, 354), (790, 354), (790, 354), (790, 354), (790, 354), (790, 354), (790, 354), (790, 354), (790, 354), (790, 354), (790, 354), (790, 354), (790, 354), (790, 354), (790, 354), (790, 354), (790, 354), (790, 354), (790, 354), (790, 354), (790, 354), (790, 354), (790, 354), (790, 354), (790, 354), (790, 354), (790, 354), (790, 354), (790, 354), (790, 354), (790, 354), (790, 354), (790, 354), (790, 354), (790, 354), (790, 354), (790, 354), (790, 354), (790, 354), (790, 354), (790, 354), (790, 354), (790, 354), (790, 354), (790, 354), (790, 354), (790, 354), (790, 354), (790, 354), (790, 354), (790, 354), (790, 354), (790, 354), (790, 354), (790, 354), (790, 354), (790, 354), (790, 354), (792, 354), (798, 355), (810, 357), (825, 362), (871, 371), (900, 376), (929, 379), (959, 384), (1006, 384), (1023, 384), (1043, 384), (1060, 384), (1086, 383), (1099, 381), (1111, 377), (1122, 374), (1144, 368), (1155, 366), (1165, 362), (1175, 359), (1197, 352), (1209, 349), (1221, 345), (1231, 343), (1256, 339), (1273, 338), (1286, 336), (1300, 335), (1324, 333)]",330.37391902350436,"[7, 5, 1, 2, 6, 4, 8, 3, 9]","(0, 0.25)",CHN005D,CHN,D,English,Thu Aug 23 15:43:25 2018,Mouse
1,1,4,0,38,1,1,1,550,220,330,139,0,500,200,8000,"[(959, 541), (959, 541), (959, 541), (959, 541), (959, 541), (959, 541), (959, 541), (959, 541), (959, 541), (959, 541), (959, 541), (959, 541), (959, 541), (959, 541), (959, 541), (959, 541), (959, 541), (959, 541), (959, 541), (959, 541), (959, 541), (957, 541), (952, 544), (942, 546), (932, 549), (921, 553), (913, 556), (912, 556), (911, 557), (910, 559), (906, 571), (904, 579), (901, 592), (898, 605), (895, 635), (895, 647), (895, 664), (895, 680), (895, 712), (895, 732), (895, 748), (895, 768), (895, 805), (898, 819), (898, 834), (898, 845), (898, 867), (898, 879), (899, 888), (901, 898), (903, 915), (904, 923), (904, 930), (906, 935), (907, 944)]",97.47384479090077,"[7, 5, 1, 2, 6, 4, 8, 3, 9]","(0, 0.25)",CHN005D,CHN,D,English,Thu Aug 23 15:43:25 2018,Mouse
1,1,4,0,39,9,9,1,391,191,200,139,0,500,200,8000,"[(960, 540), (960, 540), (960, 540), (960, 540), (960, 540), (960, 540), (960, 540), (960, 540), (960, 540), (960, 540), (960, 540), (960, 540), (960, 540), (960, 540), (960, 540), (960, 540), (960, 540), (960, 540), (960, 540), (961, 539), (966, 539), (977, 536), (990, 530), (1026, 515), (1047, 508), (1072, 500), (1100, 492), (1144, 482), (1164, 474), (1178, 471), (1190, 466), (1213, 460), (1225, 457), (1238, 453), (1246, 448), (1266, 441), (1279, 435), (1293, 429), (1309, 423), (1344, 407)]",340.8962592241093,"[7, 5, 1, 2, 6, 4, 8, 3, 9]","(0, 0.25)",CHN005D,CHN,D,English,Thu Aug 23 15:43:25 2018,Mouse
1,1,4,0,40,5,5,1,539,329,210,138,0,500,200,8000,"[(960, 540), (960, 540), (960, 540), (960, 540), (960, 540), (960, 540), (960, 540), (960, 540), (960, 540), (960, 540), (960, 540), (960, 540), (960, 540), (960, 540), (960, 540), (960, 540), (960, 540), (960, 540), (960, 540), (960, 540), (960, 540), (960, 540), (960, 540), (960, 540), (960, 540), (960, 540), (960, 540), (960, 540), (960, 540), (960, 540), (960, 540), (960, 540), (961, 542), (963, 547), (970, 559), (973, 564), (976, 569), (980, 574), (986, 586), (990, 596), (993, 607), (999, 619), (1010, 648), (1016, 668), (1022, 683), (1030, 701), (1039, 735), (1045, 752), (1050, 771), (1058, 799), (1075, 840), (1081, 865), (1089, 893), (1095, 918)]",70.3461759419467,"[7, 5, 1, 2, 6, 4, 8, 3, 9]","(0, 0.25)",CHN005D,CHN,D,English,Thu Aug 23 15:43:25 2018,Mouse
1,1,4,0,41,9,9,1,1200,970,230,137,0,500,200,8000,"[(960, 540), (960, 540), (960, 540), (960, 540), (960, 540), (960, 540), (960, 540), (960, 540), (960, 540), (960, 540), (960, 540), (960, 540), (960, 540), (960, 540), (960, 540), (960, 540), (960, 540), (960, 540), (960, 540), (960, 540), (960, 540), (960, 540), (960, 540), (960, 540), (960, 540), (960, 540), (960, 540), (960, 540), (960, 540), (960, 540), (960, 540), (960, 540), (960, 540), (960, 540), (960, 540), (960, 540), (960, 540), (960, 540), (960, 540), (960, 540), (960, 540), (960, 540), (960, 540), (960, 540), (960, 540), (960, 540), (960, 540), (960, 540), (960, 540), (960, 540), (960, 540), (960, 540), (960, 540), (960, 540), (960, 540), (960, 540), (960, 540), (960, 540), (960, 540), (960, 540), (960, 540), (960, 540), (960, 540), (960, 540), (960, 540), (960, 540), (960, 540), (960, 540), (960, 540), (960, 540), (960, 540), (960, 540), (960, 540), (960, 540), (960, 540), (960, 540), (960, 540), (960, 540), (960, 540), (960, 540), (960, 540), (960, 540), (960, 540), (960, 540), (960, 540), (960, 540), (960, 540), (960, 540), (960, 540), (960, 540), (960, 540), (960, 540), (960, 540), (960, 540), (960, 540), (960, 540), (960, 539), (960, 536), (966, 533), (986, 525), (996, 521), (1008, 516), (1020, 511), (1045, 503), (1057, 498), (1073, 493), (1083, 489), (1105, 480), (1113, 476), (1123, 471), (1135, 467), (1157, 458), (1166, 453), (1182, 447), (1195, 441), (1227, 428), (1249, 423), (1277, 414), (1303, 406), (1362, 395)]",340.1658026057758,"[7, 5, 1, 2, 6, 4, 8, 3, 9]","(0, 0.25)",CHN005D,CHN,D,English,Thu Aug 23 15:43:25 2018,Mouse
1,1,4,0,42,2,2,1,469,69,400,136,0,500,200,8000,"[(960, 540), (960, 540), (960, 540), (960, 540), (960, 540), (960, 540), (959, 541), (959, 541), (959, 541), (957, 541), (956, 541), (956, 541), (954, 541), (954, 541), (954, 541), (954, 541), (954, 541), (954, 541), (954, 541), (953, 542), (953, 542), (953, 542), (953, 542), (953, 542), (953, 542), (952, 543), (947, 548), (945, 551), (942, 554), (937, 559), (926, 566), (919, 573), (909, 581), (900, 589), (884, 605), (874, 616), (861, 630), (849, 642), (827, 664), (814, 675), (794, 692), (779, 703), (742, 739), (729, 756), (711, 781), (689, 812), (661, 861)]",132.96777659418763,"[7, 5, 1, 2, 6, 4, 8, 3, 9]","(0, 0.25)",CHN005D,CHN,D,English,Thu Aug 23 15:43:25 2018,Mouse
1,1,4,0,43,7,9,0,-2741,1201,1540,135,0,500,200,8000,"[(960, 540), (960, 540), (960, 540), (960, 540), (960, 540), (960, 540), (960, 540), (960, 540), (960, 540), (960, 540), (960, 540), (960, 540), (960, 540), (960, 540), (960, 540), (960, 540), (960, 540), (960, 540), (960, 540), (960, 540), (960, 540), (960, 540), (960, 540), (960, 540), (960, 540), (960, 540), (960, 540), (960, 540), (960, 540), (960, 540), (960, 540), (960, 540), (960, 540), (960, 540), (960, 540), (960, 540), (960, 540), (960, 540), (960, 540), (960, 540), (960, 540), (960, 540), (960, 540), (960, 540), (960, 540), (960, 540), (960, 540), (960, 540), (960, 540), (960, 540), (960, 540), (960, 540), (960, 540), (960, 540), (960, 540), (960, 540), (960, 540), (960, 540), (960, 540), (960, 540), (960, 540), (960, 540), (960, 540), (960, 540), (960, 540), (960, 540), (960, 540), (960, 540), (960, 540), (960, 540), (960, 540), (960, 540), (960, 540), (960, 540), (960, 540), (960, 540), (960, 540), (960, 540), (960, 540), (960, 540), (960, 540), (960, 540), (960, 540), (960, 540), (960, 540), (960, 540), (960, 540), (960, 540), (960, 540), (960, 540), (960, 540), (960, 540), (960, 540), (960, 540), (960, 540), (960, 540), (960, 540), (960, 540), (960, 540), (960, 540), (960, 540), (960, 540), (960, 540), (960, 540), (960, 540), (960, 540), (960, 540), (960, 540), (960, 540), (960, 540), (960, 540), (960, 540), (960, 540), (960, 540), (960, 540), (960, 540), (960, 540), (960, 540), (960, 540), (960, 540), (960, 541), (962, 543), (962, 543), (962, 545), (962, 545), (962, 545), (962, 545), (962, 545), (962, 545), (962, 545), (962, 545), (962, 545), (962, 545), (962, 545), (962, 545), (962, 545), (962, 545), (962, 545), (962, 545), (962, 545), (962, 545), (962, 545), (962, 545), (962, 545), (962, 545), (962, 545), (962, 545), (962, 545), (962, 545), (962, 545), (962, 545), (962, 545), (962, 545), (962, 545), (962, 545), (962, 545), (962, 545), (962, 545), (962, 545), (962, 545), (962, 545), (962, 545), (962, 545), (962, 545), (962, 545), (962, 545), (962, 545), (962, 545), (962, 545), (962, 545), (962, 545), (962, 545), (962, 545), (962, 545), (962, 545), (962, 545), (962, 545), (962, 545), (962, 545), (962, 545), (962, 545), (962, 545), (962, 545), (962, 545), (962, 545), (962, 545), (962, 545), (962, 545), (962, 545), (962, 545), (962, 545), (962, 545), (962, 545), (962, 545), (962, 545), (962, 545), (962, 545), (962, 545), (962, 545), (962, 545), (962, 545), (962, 545), (962, 545), (962, 545), (962, 545), (962, 545), (962, 545), (962, 545), (962, 545), (962, 545), (962, 545), (962, 545), (962, 545), (962, 545), (962, 545), (962, 545), (962, 545), (962, 545), (962, 545), (962, 545), (962, 545), (962, 545), (962, 545), (962, 545), (962, 545), (962, 545), (962, 545), (962, 545), (962, 545), (962, 545), (962, 545), (962, 545), (962, 545), (962, 545), (962, 545), (962, 545), (962, 544), (962, 543), (962, 541), (963, 540), (963, 539), (963, 538), (964, 537), (966, 533), (968, 532), (968, 531), (970, 529), (978, 526), (982, 524), (988, 520), (994, 518), (1010, 510), (1021, 506), (1032, 501), (1044, 497), (1075, 484), (1092, 479), (1109, 474), (1123, 470), (1148, 462), (1161, 460), (1172, 456), (1183, 453), (1204, 444), (1214, 441), (1224, 438), (1234, 433), (1254, 428), (1265, 424), (1270, 422), (1281, 417), (1303, 411), (1321, 406), (1334, 403), (1350, 398)]",339.99330526225975,"[7, 5, 1, 2, 6, 4, 8, 3, 9]","(0, 0.25)",CHN005D,CHN,D,English,Thu Aug 23 15:43:25 2018,Mouse
1,1,4,0,44,7,7,1,440,120,320,136,0,500,200,8000,"[(960, 540), (960, 540), (960, 540), (960, 540), (960, 540), (960, 540), (960, 540), (960, 540), (960, 540), (960, 540), (960, 540), (959, 541), (962, 544), (966, 544), (970, 546), (979, 548), (985, 549), (991, 552), (995, 553), (1004, 558), (1012, 561), (1018, 563), (1026, 567), (1046, 575), (1057, 578), (1070, 583), (1079, 585), (1101, 591), (1112, 594), (1122, 596), (1134, 601), (1153, 606), (1164, 608), (1175, 613), (1186, 616), (1208, 624), (1219, 629), (1230, 634), (1241, 639), (1265, 648), (1282, 654), (1299, 661), (1320, 668), (1361, 686)]",20.006047773732284,"[7, 5, 1, 2, 6, 4, 8, 3, 9]","(0, 0.25)",CHN005D,CHN,D,English,Thu Aug 23 15:43:25 2018,Mouse
1,1,4,0,45,6,6,1,440,180,260,136,0,500,200,8000,"[(960, 540), (960, 540), (960, 540), (960, 540), (960, 540), (960, 540), (960, 540), (960, 540), (960, 540), (960, 540), (960, 540), (960, 540), (960, 540), (960, 540), (960, 540), (960, 540), (960, 540), (959, 540), (948, 540), (940, 540), (932, 540), (919, 540), (894, 540), (881, 540), (868, 540), (856, 540), (833, 540), (822, 540), (809, 540), (795, 540), (764, 540), (750, 540), (735, 540), (718, 540), (688, 540), (674, 540), (662, 540), (650, 540), (624, 540), (613, 540), (600, 540), (587, 540), (566, 540), (557, 540)]",180.0,"[7, 5, 1, 2, 6, 4, 8, 3, 9]","(0, 0.25)",CHN005D,CHN,D,English,Thu Aug 23 15:43:25 2018,Mouse
1,1,4,0,46,9,9,1,1191,961,230,135,0,500,200,8000,"[(960, 540), (960, 540), (960, 540), (960, 540), (960, 540), (960, 540), (960, 540), (960, 540), (960, 540), (960, 540), (960, 540), (960, 540), (960, 540), (960, 540), (960, 540), (960, 540), (960, 540), (960, 540), (960, 540), (960, 540), (960, 540), (960, 540), (960, 540), (960, 540), (960, 540), (960, 540), (960, 540), (960, 540), (960, 540), (960, 540), (960, 540), (960, 540), (960, 540), (960, 540), (960, 540), (960, 540), (960, 540), (960, 540), (960, 540), (960, 540), (960, 540), (960, 540), (960, 540), (960, 540), (960, 540), (960, 540), (960, 540), (960, 540), (960, 540), (960, 540), (960, 540), (960, 540), (960, 540), (960, 540), (960, 540), (960, 540), (960, 540), (960, 540), (960, 540), (960, 540), (960, 540), (960, 540), (960, 540), (960, 540), (960, 540), (960, 540), (960, 540), (960, 540), (960, 540), (960, 540), (960, 540), (960, 540), (960, 540), (960, 540), (960, 540), (960, 540), (960, 540), (960, 540), (960, 540), (960, 540), (960, 540), (960, 540), (960, 540), (960, 540), (960, 540), (960, 540), (960, 540), (960, 540), (960, 540), (960, 540), (960, 540), (960, 540), (960, 540), (960, 540), (960, 540), (960, 540), (964, 540), (971, 540), (982, 540), (990, 540), (1001, 540), (1015, 540), (1041, 540), (1054, 540), (1068, 540), (1080, 538), (1108, 532), (1117, 530), (1131, 525), (1150, 519), (1177, 513), (1188, 507), (1204, 501), (1219, 496), (1250, 482), (1263, 476), (1282, 468), (1301, 456), (1338, 438), (1350, 432)]",344.5213618345816,"[7, 5, 1, 2, 6, 4, 8, 3, 9]","(0, 0.25)",CHN005D,CHN,D,English,Thu Aug 23 15:43:25 2018,Mouse
1,1,4,0,47,6,6,1,430,170,260,134,0,500,200,8000,"[(960, 540), (960, 540), (960, 540), (960, 540), (960, 540), (960, 540), (960, 540), (960, 540), (960, 540), (960, 540), (960, 540), (960, 540), (960, 540), (960, 540), (960, 540), (960, 540), (959, 542), (948, 543), (940, 545), (930, 546), (918, 549), (889, 550), (881, 550), (866, 550), (853, 550), (823, 550), (806, 550), (789, 550), (769, 550), (733, 550), (707, 550), (685, 550), (665, 550), (638, 550), (627, 550), (618, 550), (612, 550), (600, 550), (594, 551), (586, 553), (580, 554), (565, 559), (560, 560)]",177.13759477388825,"[7, 5, 1, 2, 6, 4, 8, 3, 9]","(0, 0.25)",CHN005D,CHN,D,English,Thu Aug 23 15:43:25 2018,Mouse
1,1,4,0,48,8,6,0,-471,241,230,133,0,500,200,8000,"[(960, 540), (960, 540), (960, 540), (960, 540), (960, 540), (960, 540), (960, 540), (960, 540), (960, 540), (960, 540), (960, 540), (960, 540), (960, 540), (960, 540), (960, 540), (960, 540), (960, 540), (960, 540), (960, 540), (960, 540), (960, 540), (960, 540), (960, 540), (960, 540), (956, 540), (946, 540), (930, 540), (920, 540), (908, 540), (893, 540), (863, 540), (848, 540), (836, 540), (825, 540), (805, 540), (795, 540), (784, 540), (774, 540), (750, 540), (737, 540), (723, 540), (708, 540), (673, 540), (651, 540), (631, 540), (611, 540), (569, 540), (550, 540)]",180.0,"[7, 5, 1, 2, 6, 4, 8, 3, 9]","(0, 0.25)",CHN005D,CHN,D,English,Thu Aug 23 15:43:25 2018,Mouse
1,1,4,0,49,6,6,1,929,729,200,134,0,500,200,8000,"[(960, 540), (960, 540), (960, 540), (960, 540), (960, 540), (960, 540), (960, 540), (960, 540), (960, 540), (960, 540), (960, 540), (960, 540), (960, 540), (960, 540), (960, 540), (960, 540), (960, 540), (960, 540), (960, 540), (960, 540), (960, 540), (960, 540), (960, 540), (960, 540), (960, 540), (960, 540), (960, 540), (960, 540), (960, 540), (960, 540), (960, 540), (960, 540), (960, 540), (960, 540), (960, 540), (960, 540), (960, 540), (960, 540), (960, 540), (960, 540), (960, 540), (960, 540), (960, 540), (960, 540), (960, 540), (960, 540), (960, 540), (960, 540), (960, 540), (960, 540), (960, 540), (960, 540), (960, 540), (960, 540), (960, 540), (960, 540), (960, 540), (960, 540), (960, 540), (960, 540), (960, 540), (960, 540), (960, 540), (960, 540), (960, 540), (960, 540), (960, 540), (960, 540), (960, 540), (960, 540), (960, 540), (960, 540), (955, 540), (934, 540), (923, 540), (910, 540), (891, 540), (844, 540), (821, 540), (804, 540), (782, 540), (743, 540), (726, 540), (709, 540), (686, 540), (650, 540), (635, 540), (621, 540), (608, 543), (583, 545), (575, 547), (565, 548), (555, 548)]",178.8683786808173,"[7, 5, 1, 2, 6, 4, 8, 3, 9]","(0, 0.25)",CHN005D,CHN,D,English,Thu Aug 23 15:43:25 2018,Mouse
1,1,4,0,50,4,7,0,-1941,431,1510,134,0,500,200,8000,"[(960, 540), (960, 540), (960, 540), (960, 540), (960, 540), (960, 540), (960, 540), (960, 540), (960, 540), (960, 540), (960, 540), (960, 540), (960, 540), (960, 540), (960, 540), (960, 540), (960, 540), (960, 540), (960, 540), (960, 540), (960, 540), (960, 540), (960, 540), (960, 540), (960, 540), (960, 540), (960, 540), (960, 540), (960, 540), (960, 540), (960, 540), (960, 540), (960, 540), (960, 540), (960, 540), (960, 540), (960, 540), (960, 540), (960, 540), (960, 540), (960, 540), (960, 540), (960, 540), (961, 540), (965, 541), (967, 542), (968, 543), (969, 545), (971, 545), (971, 545), (971, 545), (971, 545), (971, 545), (971, 545), (971, 545), (971, 545), (971, 545), (971, 545), (971, 545), (971, 545), (971, 545), (971, 545), (971, 545), (971, 545), (971, 545), (971, 545), (971, 545), (971, 545), (971, 545), (971, 545), (971, 545), (971, 545), (972, 545), (975, 545), (979, 545), (983, 545), (1000, 543), (1014, 539), (1026, 536), (1038, 535), (1065, 528), (1074, 525), (1078, 524), (1083, 523), (1091, 520), (1094, 519), (1097, 517), (1103, 514), (1114, 509), (1119, 506), (1122, 505), (1125, 505), (1132, 501), (1137, 499), (1139, 498), (1142, 497), (1147, 495), (1151, 493), (1153, 492), (1156, 491), (1158, 490), (1158, 490), (1158, 490), (1158, 490), (1158, 490), (1158, 490), (1158, 490), (1158, 490), (1158, 490), (1158, 490), (1158, 490), (1158, 490), (1158, 490), (1158, 490), (1158, 490), (1158, 490), (1158, 490), (1158, 490), (1158, 490), (1158, 490), (1158, 490), (1158, 490), (1158, 490), (1158, 490), (1158, 490), (1158, 490), (1158, 490), (1158, 490), (1158, 490), (1158, 490), (1158, 490), (1158, 490), (1158, 490), (1158, 490), (1158, 490), (1158, 490), (1158, 490), (1158, 490), (1158, 490), (1158, 490), (1158, 490), (1158, 490), (1158, 490), (1158, 490), (1158, 490), (1158, 490), (1158, 490), (1158, 490), (1158, 490), (1158, 490), (1158, 490), (1158, 490), (1158, 490), (1158, 490), (1156, 490), (1156, 491), (1155, 496), (1153, 499), (1153, 501), (1153, 505), (1152, 513), (1152, 516), (1152, 518), (1152, 521), (1152, 527), (1153, 531), (1154, 533), (1156, 536), (1158, 541), (1160, 544), (1162, 546), (1166, 551), (1171, 557), (1173, 560), (1177, 563), (1179, 566), (1184, 570), (1187, 571), (1191, 573), (1195, 577), (1205, 584), (1209, 586), (1214, 590), (1217, 594), (1226, 599), (1229, 602), (1234, 607), (1240, 612), (1258, 624), (1270, 633), (1280, 640), (1291, 647), (1315, 665), (1329, 674), (1341, 684)]",20.704223629342003,"[7, 5, 1, 2, 6, 4, 8, 3, 9]","(0, 0.25)",CHN005D,CHN,D,English,Thu Aug 23 15:43:25 2018,Mouse
1,1,4,0,51,5,5,1,450,170,280,135,0,500,200,8000,"[(960, 540), (960, 540), (960, 540), (960, 540), (960, 540), (960, 540), (960, 540), (960, 540), (960, 540), (960, 540), (960, 540), (960, 540), (960, 540), (960, 540), (960, 540), (960, 540), (960, 546), (960, 554), (962, 559), (963, 564), (969, 582), (972, 593), (978, 603), (983, 614), (990, 633), (995, 643), (1000, 654), (1005, 667), (1017, 694), (1023, 709), (1029, 722), (1033, 733), (1047, 755), (1054, 765), (1062, 775), (1068, 784), (1081, 799), (1089, 809), (1096, 816), (1102, 823), (1118, 843), (1127, 853), (1138, 863), (1149, 877), (1161, 895)]",60.48158305539897,"[7, 5, 1, 2, 6, 4, 8, 3, 9]","(0, 0.25)",CHN005D,CHN,D,English,Thu Aug 23 15:43:25 2018,Mouse
1,1,4,0,52,5,5,1,759,539,220,135,0,500,200,8000,"[(960, 540), (960, 540), (960, 540), (960, 540), (960, 540), (960, 540), (960, 540), (960, 540), (960, 540), (960, 540), (960, 540), (960, 540), (960, 540), (960, 540), (960, 540), (960, 540), (960, 540), (960, 540), (960, 540), (960, 540), (960, 540), (960, 540), (960, 540), (960, 540), (960, 540), (960, 540), (960, 540), (960, 540), (960, 540), (960, 540), (960, 540), (960, 540), (960, 540), (960, 540), (960, 540), (960, 540), (960, 540), (960, 540), (960, 540), (960, 540), (960, 540), (960, 540), (960, 540), (960, 540), (960, 540), (960, 540), (960, 540), (960, 540), (960, 540), (960, 540), (960, 540), (960, 540), (960, 540), (962, 543), (975, 562), (981, 571), (986, 582), (992, 593), (1004, 616), (1009, 629), (1015, 641), (1021, 654), (1032, 683), (1037, 696), (1040, 713), (1045, 726), (1057, 757), (1064, 774), (1074, 792), (1082, 806), (1095, 831), (1102, 841), (1108, 852), (1116, 865), (1129, 890), (1136, 903)]",64.13364320590549,"[7, 5, 1, 2, 6, 4, 8, 3, 9]","(0, 0.25)",CHN005D,CHN,D,English,Thu Aug 23 15:43:25 2018,Mouse
1,1,4,0,53,4,8,0,-2519,439,2080,134,0,500,200,8000,"[(960, 540), (960, 540), (960, 540), (960, 540), (960, 540), (960, 540), (960, 540), (960, 540), (960, 540), (960, 540), (960, 540), (960, 540), (960, 540), (960, 540), (960, 540), (960, 540), (960, 540), (960, 540), (960, 540), (960, 540), (960, 540), (960, 540), (960, 540), (960, 540), (960, 540), (960, 540), (960, 540), (960, 540), (960, 540), (960, 540), (960, 540), (960, 540), (960, 540), (960, 540), (960, 540), (960, 540), (960, 540), (960, 540), (960, 540), (960, 540), (960, 540), (960, 540), (960, 540), (960, 538), (965, 534), (977, 531), (980, 530), (987, 529), (989, 528), (994, 526), (995, 526), (996, 526), (996, 526), (996, 526), (996, 526), (996, 526), (996, 526), (996, 526), (996, 526), (996, 526), (996, 526), (996, 526), (996, 526), (996, 526), (996, 526), (996, 526), (996, 526), (996, 526), (996, 526), (996, 526), (996, 526), (996, 526), (996, 526), (996, 526), (996, 526), (996, 526), (996, 526), (997, 525), (999, 524), (1001, 523), (1004, 523), (1013, 520), (1019, 518), (1026, 517), (1033, 515), (1059, 507), (1072, 504), (1088, 499), (1100, 495), (1129, 487), (1142, 484), (1154, 480), (1164, 477), (1178, 472), (1187, 467), (1194, 465), (1202, 461), (1219, 453), (1224, 450), (1231, 446), (1236, 444), (1247, 435), (1253, 431), (1257, 428), (1262, 423), (1271, 416), (1276, 411), (1282, 408), (1285, 405), (1292, 401), (1299, 398), (1305, 395), (1310, 392), (1317, 388), (1319, 388), (1321, 388), (1322, 387), (1323, 387), (1323, 387), (1323, 387), (1323, 387), (1323, 387), (1323, 387), (1323, 387), (1323, 387), (1323, 387), (1323, 387), (1323, 387), (1323, 387), (1323, 387), (1322, 387), (1320, 387), (1318, 387), (1316, 387), (1316, 387), (1316, 387), (1316, 387), (1316, 387), (1316, 387), (1316, 387), (1316, 387), (1316, 387), (1316, 387), (1316, 387), (1316, 387), (1316, 387), (1316, 387), (1316, 387), (1316, 387), (1316, 387), (1316, 387), (1316, 387), (1316, 387), (1316, 387), (1316, 387), (1316, 387), (1316, 387), (1316, 387), (1316, 387), (1316, 387), (1316, 387), (1316, 387), (1316, 387), (1316, 387), (1316, 387), (1316, 387), (1316, 387), (1316, 387), (1316, 387), (1316, 387), (1316, 387), (1316, 387), (1316, 387), (1316, 387), (1316, 387), (1316, 387), (1315, 387), (1315, 387), (1315, 387), (1315, 387), (1315, 387), (1315, 387), (1315, 387), (1315, 387), (1315, 387), (1315, 387), (1315, 387), (1315, 387), (1315, 387), (1315, 387), (1315, 387), (1315, 387), (1315, 387), (1315, 387), (1315, 387), (1315, 387), (1315, 387), (1315, 387), (1315, 387), (1315, 387), (1315, 387), (1315, 387), (1315, 387), (1315, 387), (1315, 387), (1315, 387), (1315, 387), (1315, 387), (1315, 387), (1315, 387), (1315, 387), (1314, 388), (1312, 389), (1300, 389), (1293, 389), (1284, 389), (1272, 389), (1238, 379), (1218, 370), (1203, 364), (1189, 357), (1163, 338), (1154, 331), (1144, 323), (1137, 316), (1120, 299), (1115, 293), (1107, 285), (1103, 280), (1094, 269), (1088, 262), (1082, 255), (1078, 249), (1065, 238), (1060, 234), (1052, 228), (1044, 223), (1027, 213), (1019, 210), (1012, 205), (1007, 202), (989, 192), (981, 187), (972, 183), (964, 178), (944, 166), (937, 162), (929, 157), (922, 151), (915, 146), (912, 143), (909, 139)]",262.7519183427772,"[7, 5, 1, 2, 6, 4, 8, 3, 9]","(0, 0.25)",CHN005D,CHN,D,English,Thu Aug 23 15:43:25 2018,Mouse
1,1,4,0,54,7,7,1,379,79,300,135,0,500,200,8000,"[(960, 540), (960, 540), (960, 540), (960, 540), (960, 540), (960, 540), (960, 540), (960, 541), (968, 547), (973, 549), (980, 552), (989, 555), (1007, 564), (1019, 568), (1031, 574), (1041, 577), (1059, 586), (1067, 589), (1074, 592), (1083, 597), (1100, 603), (1108, 607), (1116, 610), (1124, 614), (1141, 620), (1152, 626), (1162, 630), (1172, 635), (1193, 641), (1203, 646), (1216, 652), (1225, 657), (1252, 669), (1265, 675), (1277, 679), (1292, 685), (1317, 695), (1328, 698)]",23.236161511222512,"[7, 5, 1, 2, 6, 4, 8, 3, 9]","(0, 0.25)",CHN005D,CHN,D,English,Thu Aug 23 15:43:25 2018,Mouse
1,1,4,0,55,5,9,0,-1571,370,1201,135,0,500,200,8000,"[(960, 540), (960, 540), (960, 540), (960, 540), (960, 540), (960, 540), (960, 540), (960, 540), (960, 540), (960, 540), (960, 540), (960, 540), (960, 540), (960, 540), (960, 540), (960, 540), (960, 540), (960, 540), (960, 540), (960, 540), (960, 540), (960, 540), (960, 540), (960, 540), (960, 540), (960, 540), (960, 540), (960, 540), (960, 540), (960, 540), (960, 540), (960, 540), (960, 540), (960, 540), (960, 540), (960, 540), (960, 541), (969, 551), (975, 557), (983, 565), (989, 572), (1004, 590), (1009, 596), (1013, 601), (1017, 606), (1025, 617), (1027, 622), (1028, 625), (1030, 630), (1034, 640), (1036, 646), (1037, 652), (1040, 658), (1045, 671), (1046, 677), (1047, 681), (1049, 684), (1050, 689), (1050, 690), (1051, 694), (1051, 695), (1053, 701), (1054, 703), (1055, 705), (1055, 705), (1055, 706), (1055, 706), (1055, 708), (1055, 708), (1055, 708), (1055, 708), (1055, 708), (1055, 708), (1055, 708), (1055, 708), (1055, 708), (1055, 708), (1055, 708), (1055, 708), (1055, 708), (1055, 708), (1055, 708), (1055, 708), (1055, 708), (1055, 708), (1055, 708), (1055, 708), (1055, 708), (1055, 708), (1055, 708), (1055, 708), (1055, 708), (1055, 708), (1055, 708), (1055, 708), (1055, 708), (1055, 708), (1055, 708), (1055, 708), (1055, 708), (1055, 708), (1055, 708), (1055, 708), (1055, 708), (1055, 708), (1055, 708), (1055, 708), (1055, 708), (1055, 708), (1055, 708), (1055, 708), (1055, 708), (1055, 708), (1055, 708), (1055, 708), (1055, 708), (1055, 708), (1055, 708), (1055, 708), (1055, 708), (1055, 708), (1055, 708), (1055, 708), (1055, 708), (1055, 708), (1055, 708), (1055, 708), (1056, 707), (1059, 701), (1068, 683), (1075, 672), (1080, 662), (1087, 650), (1101, 630), (1108, 622), (1114, 615), (1119, 606), (1130, 590), (1136, 579), (1143, 568), (1148, 555), (1163, 532), (1168, 524), (1174, 516), (1182, 506), (1198, 490), (1204, 481), (1212, 474), (1219, 467), (1238, 449), (1247, 440), (1261, 427), (1271, 418), (1294, 401), (1306, 393), (1319, 385), (1329, 380)]",336.5582359109841,"[7, 5, 1, 2, 6, 4, 8, 3, 9]","(0, 0.25)",CHN005D,CHN,D,English,Thu Aug 23 15:43:25 2018,Mouse
1,1,4,0,56,5,5,1,598,308,290,136,0,500,200,8000,"[(960, 540), (960, 540), (960, 540), (960, 540), (960, 540), (960, 540), (960, 540), (960, 540), (960, 540), (960, 540), (960, 540), (960, 540), (960, 540), (960, 540), (960, 540), (960, 540), (960, 540), (960, 540), (960, 540), (960, 540), (960, 540), (960, 540), (960, 540), (960, 540), (960, 540), (960, 540), (960, 540), (960, 540), (960, 540), (960, 540), (960, 542), (969, 552), (978, 560), (985, 565), (994, 573), (1009, 586), (1017, 594), (1029, 605), (1038, 613), (1054, 629), (1062, 640), (1069, 647), (1078, 658), (1093, 678), (1100, 688), (1106, 697), (1112, 704), (1124, 723), (1130, 735), (1135, 745), (1138, 756), (1147, 777), (1151, 787), (1155, 797), (1159, 808), (1169, 832), (1174, 847), (1177, 859), (1180, 872), (1192, 903)]",57.416603192692385,"[7, 5, 1, 2, 6, 4, 8, 3, 9]","(0, 0.25)",CHN005D,CHN,D,English,Thu Aug 23 15:43:25 2018,Mouse
1,1,4,0,57,2,2,1,590,270,320,136,0,500,200,8000,"[(960, 540), (960, 540), (960, 540), (960, 540), (960, 540), (960, 540), (960, 540), (960, 540), (960, 540), (960, 540), (960, 540), (960, 540), (960, 540), (960, 540), (960, 540), (960, 540), (960, 540), (960, 540), (960, 540), (960, 540), (960, 540), (960, 540), (960, 540), (960, 540), (960, 540), (960, 540), (953, 546), (951, 549), (949, 551), (943, 554), (939, 557), (937, 559), (934, 562), (930, 568), (920, 575), (910, 581), (901, 587), (891, 594), (868, 608), (849, 619), (836, 626), (822, 635), (794, 651), (780, 658), (770, 664), (760, 669), (743, 681), (731, 689), (723, 696), (716, 702), (702, 717), (694, 726), (686, 732), (680, 738), (669, 755), (664, 762), (658, 772), (653, 782), (643, 797)]",140.9674345666301,"[7, 5, 1, 2, 6, 4, 8, 3, 9]","(0, 0.25)",CHN005D,CHN,D,English,Thu Aug 23 15:43:25 2018,Mouse
1,1,4,0,58,4,4,1,791,171,620,135,0,500,200,8000,"[(960, 540), (960, 540), (960, 540), (960, 540), (960, 540), (960, 540), (960, 540), (960, 540), (960, 540), (960, 540), (960, 540), (960, 540), (960, 540), (960, 540), (960, 540), (960, 540), (960, 540), (960, 539), (960, 538), (955, 531), (954, 529), (951, 526), (948, 524), (941, 517), (937, 515), (932, 510), (927, 505), (916, 494), (908, 487), (901, 480), (894, 474), (878, 460), (870, 453), (861, 446), (851, 439), (829, 423), (818, 417), (812, 413), (803, 408), (791, 402), (783, 398), (777, 394), (772, 392), (766, 386), (765, 384), (764, 383), (763, 383), (763, 383), (763, 383), (763, 383), (763, 383), (763, 383), (763, 383), (763, 383), (763, 383), (763, 383), (763, 383), (763, 383), (763, 383), (763, 383), (763, 383), (763, 383), (763, 383), (763, 383), (763, 383), (763, 383), (762, 381), (756, 373), (753, 367), (748, 360), (742, 349), (729, 333), (724, 325), (713, 317), (705, 310), (687, 294), (679, 287), (674, 282), (666, 277), (660, 269)]",222.09255486565164,"[7, 5, 1, 2, 6, 4, 8, 3, 9]","(0, 0.25)",CHN005D,CHN,D,English,Thu Aug 23 15:43:25 2018,Mouse
1,1,4,0,59,2,3,0,-2270,1970,300,134,0,500,200,8000,"[(960, 540), (960, 540), (960, 540), (960, 540), (960, 540), (960, 540), (960, 540), (960, 540), (960, 540), (960, 540), (960, 540), (960, 540), (960, 540), (960, 540), (960, 540), (960, 540), (960, 540), (960, 540), (960, 540), (960, 540), (960, 540), (960, 540), (960, 540), (960, 540), (960, 540), (960, 540), (960, 540), (960, 540), (960, 540), (960, 540), (960, 540), (960, 540), (960, 540), (960, 540), (960, 540), (960, 540), (960, 540), (960, 540), (960, 540), (960, 540), (960, 540), (960, 540), (960, 540), (960, 540), (960, 540), (960, 540), (960, 540), (960, 540), (960, 540), (960, 540), (960, 540), (960, 540), (960, 540), (960, 540), (960, 540), (960, 540), (960, 540), (960, 540), (960, 540), (960, 540), (960, 540), (960, 540), (960, 540), (960, 540), (960, 540), (960, 540), (960, 540), (960, 540), (960, 540), (960, 540), (960, 540), (960, 540), (960, 540), (960, 540), (960, 540), (960, 540), (960, 540), (960, 540), (960, 540), (960, 540), (960, 540), (960, 540), (960, 540), (960, 540), (960, 540), (960, 540), (960, 540), (960, 540), (960, 540), (960, 540), (960, 540), (960, 540), (960, 540), (960, 540), (960, 540), (960, 540), (960, 540), (960, 540), (960, 540), (960, 540), (960, 540), (960, 540), (960, 540), (960, 540), (960, 540), (960, 540), (960, 540), (960, 540), (960, 540), (960, 540), (960, 540), (960, 540), (960, 540), (960, 540), (960, 540), (960, 540), (960, 540), (960, 540), (960, 540), (960, 540), (960, 540), (960, 540), (960, 540), (960, 540), (960, 540), (960, 540), (960, 540), (960, 540), (960, 540), (960, 540), (960, 540), (960, 540), (960, 540), (960, 540), (960, 540), (960, 540), (960, 540), (960, 540), (960, 540), (960, 540), (960, 540), (960, 540), (960, 540), (960, 540), (960, 540), (960, 540), (960, 540), (960, 540), (960, 540), (960, 540), (960, 540), (960, 540), (960, 540), (960, 540), (960, 540), (960, 540), (960, 540), (960, 540), (960, 540), (960, 540), (960, 540), (960, 540), (960, 540), (960, 540), (960, 540), (960, 540), (960, 540), (960, 540), (960, 540), (960, 540), (960, 540), (960, 540), (960, 540), (960, 540), (960, 540), (960, 540), (960, 540), (960, 540), (960, 540), (960, 540), (960, 540), (960, 540), (960, 540), (960, 540), (960, 540), (960, 540), (960, 540), (960, 540), (960, 540), (960, 540), (960, 540), (960, 540), (960, 540), (960, 540), (960, 540), (960, 540), (964, 539), (969, 533), (981, 519), (989, 510), (997, 501), (1003, 492), (1018, 474), (1025, 464), (1035, 451), (1040, 441), (1052, 417), (1058, 402), (1062, 389), (1067, 379), (1076, 359), (1081, 348), (1087, 337), (1091, 325), (1100, 304), (1104, 296), (1108, 287), (1111, 278), (1119, 262), (1122, 252), (1128, 242), (1132, 232), (1142, 215), (1147, 207), (1151, 202), (1156, 196), (1159, 192)]",299.76260895092884,"[7, 5, 1, 2, 6, 4, 8, 3, 9]","(0, 0.25)",CHN005D,CHN,D,English,Thu Aug 23 15:43:25 2018,Mouse
1,1,4,0,60,5,5,1,561,171,390,135,0,500,200,8000,"[(960, 540), (960, 540), (960, 540), (960, 540), (960, 540), (960, 540), (960, 540), (960, 540), (960, 540), (960, 540), (960, 540), (960, 540), (960, 540), (960, 540), (960, 540), (960, 540), (960, 540), (961, 541), (961, 541), (964, 550), (967, 554), (970, 560), (973, 568), (983, 584), (987, 591), (991, 599), (994, 605), (1000, 619), (1003, 627), (1007, 634), (1009, 637), (1014, 647), (1018, 653), (1022, 659), (1028, 666), (1039, 677), (1045, 682), (1050, 686), (1058, 692), (1070, 703), (1078, 709), (1083, 715), (1090, 722), (1102, 739), (1108, 748), (1114, 759), (1119, 769), (1126, 786), (1131, 796), (1135, 806), (1139, 815), (1147, 836), (1152, 846), (1156, 858), (1158, 865), (1164, 884), (1167, 893)]",59.6125436921633,"[7, 5, 1, 2, 6, 4, 8, 3, 9]","(0, 0.25)",CHN005D,CHN,D,English,Thu Aug 23 15:43:25 2018,Mouse
1,1,4,0,61,3,9,0,-341,81,260,135,0,500,200,8000,"[(960, 540), (960, 540), (960, 540), (960, 540), (960, 540), (960, 540), (960, 540), (960, 540), (976, 537), (990, 532), (1018, 524), (1035, 520), (1054, 516), (1065, 511), (1086, 503), (1093, 500), (1099, 496), (1107, 492), (1120, 484), (1128, 479), (1135, 474), (1143, 470), (1155, 464), (1162, 459), (1172, 455), (1184, 448), (1204, 438), (1214, 432), (1225, 424), (1238, 420), (1272, 408), (1286, 405), (1304, 399), (1326, 394), (1360, 382)]",338.4459800795212,"[7, 5, 1, 2, 6, 4, 8, 3, 9]","(0, 0.25)",CHN005D,CHN,D,English,Thu Aug 23 15:43:25 2018,Mouse
1,1,4,0,62,7,7,1,540,270,270,136,0,500,200,8000,"[(960, 540), (960, 540), (960, 540), (960, 540), (960, 540), (960, 540), (960, 540), (960, 540), (960, 540), (960, 540), (960, 540), (960, 540), (960, 540), (960, 540), (960, 540), (960, 540), (960, 540), (960, 540), (960, 540), (960, 540), (960, 540), (960, 540), (960, 540), (960, 540), (960, 540), (960, 540), (969, 544), (974, 548), (978, 550), (985, 554), (1000, 560), (1012, 565), (1018, 568), (1026, 570), (1045, 577), (1055, 580), (1064, 582), (1076, 585), (1097, 593), (1106, 598), (1116, 602), (1126, 606), (1146, 615), (1157, 620), (1169, 624), (1179, 630), (1201, 638), (1215, 644), (1228, 650), (1244, 655), (1285, 671), (1306, 681), (1327, 690), (1345, 697)]",22.185252199720974,"[7, 5, 1, 2, 6, 4, 8, 3, 9]","(0, 0.25)",CHN005D,CHN,D,English,Thu Aug 23 15:43:25 2018,Mouse
1,1,4,0,63,9,9,1,1100,850,250,136,0,500,200,8000,"[(960, 540), (960, 540), (960, 540), (960, 540), (960, 540), (960, 540), (960, 540), (960, 540), (960, 540), (960, 540), (960, 540), (960, 540), (960, 540), (960, 540), (960, 540), (960, 540), (960, 540), (960, 540), (960, 540), (960, 540), (960, 540), (960, 540), (960, 540), (960, 540), (960, 540), (960, 540), (960, 540), (960, 540), (960, 540), (960, 540), (960, 540), (960, 540), (960, 540), (960, 540), (960, 540), (960, 540), (960, 540), (960, 540), (960, 540), (960, 540), (960, 540), (960, 540), (960, 540), (960, 540), (960, 540), (960, 540), (960, 540), (960, 540), (960, 540), (960, 540), (960, 540), (960, 540), (960, 540), (960, 540), (960, 540), (960, 540), (960, 540), (960, 540), (960, 540), (960, 540), (960, 540), (960, 540), (960, 540), (960, 540), (960, 540), (960, 540), (960, 540), (960, 540), (960, 540), (960, 540), (960, 540), (960, 540), (960, 540), (960, 540), (960, 540), (960, 540), (960, 540), (960, 540), (960, 540), (960, 540), (960, 540), (960, 540), (960, 540), (960, 540), (961, 540), (972, 537), (983, 536), (1004, 533), (1013, 532), (1023, 531), (1033, 527), (1052, 523), (1060, 520), (1068, 516), (1077, 511), (1094, 503), (1106, 497), (1118, 492), (1127, 487), (1149, 476), (1162, 468), (1172, 463), (1184, 458), (1210, 447), (1224, 441), (1239, 434), (1259, 429), (1298, 419), (1318, 412), (1337, 406)]",340.43287090194667,"[7, 5, 1, 2, 6, 4, 8, 3, 9]","(0, 0.25)",CHN005D,CHN,D,English,Thu Aug 23 15:43:25 2018,Mouse
1,1,4,0,64,4,6,0,-2030,1770,260,135,0,500,200,8000,"[(960, 540), (960, 540), (960, 540), (960, 540), (960, 540), (960, 540), (960, 540), (960, 540), (960, 540), (960, 540), (960, 540), (960, 540), (960, 540), (960, 540), (960, 540), (960, 540), (960, 540), (960, 540), (960, 540), (960, 540), (960, 540), (960, 540), (960, 540), (960, 540), (960, 540), (960, 540), (960, 540), (960, 540), (960, 540), (960, 540), (960, 540), (960, 540), (960, 540), (960, 540), (960, 540), (960, 540), (960, 540), (960, 540), (960, 540), (960, 540), (960, 540), (960, 540), (960, 540), (960, 540), (960, 540), (960, 540), (960, 540), (960, 540), (960, 540), (960, 540), (960, 540), (960, 540), (960, 540), (960, 540), (960, 540), (960, 540), (960, 540), (960, 540), (960, 540), (960, 540), (960, 540), (960, 540), (960, 540), (960, 540), (960, 540), (960, 540), (960, 540), (960, 540), (960, 540), (960, 540), (960, 540), (960, 540), (960, 540), (960, 540), (960, 540), (960, 540), (960, 540), (960, 540), (960, 540), (960, 540), (960, 540), (960, 540), (960, 540), (960, 540), (960, 540), (960, 540), (960, 540), (960, 540), (960, 540), (960, 540), (960, 540), (960, 540), (960, 540), (960, 540), (960, 540), (960, 540), (960, 540), (960, 540), (960, 540), (960, 540), (960, 540), (960, 540), (960, 540), (960, 540), (960, 540), (960, 540), (960, 540), (960, 540), (960, 540), (960, 540), (960, 540), (960, 540), (960, 540), (960, 540), (960, 540), (960, 540), (960, 540), (960, 540), (960, 540), (960, 540), (960, 540), (960, 540), (960, 540), (960, 540), (960, 540), (960, 540), (960, 540), (960, 540), (960, 540), (960, 540), (960, 540), (960, 540), (960, 540), (960, 540), (960, 540), (960, 540), (960, 540), (960, 540), (960, 540), (960, 540), (960, 540), (960, 540), (960, 540), (960, 540), (960, 540), (960, 540), (960, 540), (960, 540), (960, 540), (960, 540), (960, 540), (960, 540), (960, 540), (960, 540), (960, 540), (960, 540), (960, 540), (960, 540), (960, 540), (960, 540), (960, 540), (960, 540), (960, 540), (960, 540), (960, 540), (960, 540), (960, 540), (960, 540), (960, 540), (960, 540), (960, 540), (960, 540), (960, 540), (960, 540), (960, 540), (960, 540), (943, 540), (931, 540), (919, 540), (905, 540), (876, 540), (865, 540), (853, 540), (842, 540), (822, 540), (810, 540), (798, 540), (784, 543), (755, 547), (741, 549), (727, 550), (714, 553), (689, 556), (675, 558), (663, 560), (653, 561), (630, 564), (619, 566), (606, 568), (597, 569), (576, 573), (566, 574), (558, 575)]",175.02410901649114,"[7, 5, 1, 2, 6, 4, 8, 3, 9]","(0, 0.25)",CHN005D,CHN,D,English,Thu Aug 23 15:43:25 2018,Mouse
1,1,4,0,65,2,2,1,591,281,310,136,0,500,200,8000,"[(960, 540), (960, 540), (960, 540), (960, 540), (960, 540), (960, 540), (960, 540), (960, 540), (960, 540), (960, 540), (960, 540), (960, 540), (960, 540), (960, 540), (960, 540), (960, 540), (960, 540), (960, 540), (960, 540), (960, 540), (960, 540), (960, 540), (960, 540), (960, 540), (960, 540), (960, 540), (960, 540), (960, 540), (955, 545), (944, 554), (939, 558), (931, 562), (926, 566), (912, 580), (906, 588), (899, 596), (893, 603), (879, 621), (873, 630), (864, 637), (853, 646), (831, 663), (821, 672), (811, 683), (800, 693), (781, 710), (773, 718), (763, 726), (754, 732), (738, 743), (729, 750), (722, 755), (714, 759), (697, 769), (692, 772), (683, 777), (677, 782), (663, 792), (657, 798), (652, 802)]",139.61387089748843,"[7, 5, 1, 2, 6, 4, 8, 3, 9]","(0, 0.25)",CHN005D,CHN,D,English,Thu Aug 23 15:43:25 2018,Mouse
1,1,4,0,66,1,6,0,-1779,1050,729,136,0,500,200,8000,"[(960, 540), (960, 540), (960, 540), (960, 540), (960, 540), (960, 540), (960, 540), (960, 540), (960, 540), (960, 540), (960, 540), (960, 540), (960, 540), (960, 540), (960, 540), (960, 540), (960, 540), (960, 540), (960, 540), (960, 540), (960, 540), (960, 540), (960, 540), (960, 540), (960, 540), (960, 540), (960, 540), (960, 540), (960, 540), (960, 540), (960, 540), (960, 540), (960, 540), (960, 540), (960, 540), (960, 540), (960, 540), (960, 540), (960, 540), (960, 540), (960, 540), (960, 540), (960, 540), (960, 540), (960, 540), (960, 540), (960, 540), (960, 540), (960, 540), (960, 540), (960, 540), (960, 540), (960, 540), (960, 540), (960, 540), (960, 540), (960, 540), (960, 540), (960, 540), (960, 540), (960, 540), (960, 540), (960, 540), (960, 540), (960, 540), (960, 540), (960, 540), (960, 540), (960, 540), (960, 540), (960, 540), (960, 540), (960, 540), (960, 540), (960, 540), (960, 540), (960, 540), (960, 540), (960, 540), (960, 540), (960, 540), (960, 540), (960, 540), (960, 540), (960, 540), (960, 540), (960, 540), (960, 540), (960, 540), (960, 540), (960, 540), (960, 540), (960, 540), (960, 540), (960, 540), (960, 540), (960, 540), (960, 540), (960, 540), (960, 540), (960, 540), (960, 540), (960, 540), (960, 540), (963, 529), (965, 523), (966, 520), (968, 515), (969, 513), (969, 513), (969, 513), (969, 513), (969, 513), (969, 513), (969, 513), (969, 513), (969, 513), (969, 513), (969, 513), (969, 513), (969, 513), (969, 513), (969, 513), (969, 513), (969, 513), (969, 513), (969, 513), (969, 513), (969, 513), (969, 513), (969, 513), (969, 513), (969, 513), (969, 513), (969, 513), (969, 513), (969, 513), (969, 513), (969, 513), (969, 513), (969, 513), (969, 513), (969, 513), (969, 513), (969, 513), (969, 513), (969, 513), (969, 513), (969, 513), (969, 513), (969, 513), (969, 513), (966, 513), (949, 515), (919, 520), (895, 523), (861, 527), (844, 529), (829, 530), (813, 530), (779, 530), (767, 530), (756, 530), (745, 530), (730, 530), (723, 530), (718, 530), (712, 530), (698, 527), (687, 526), (673, 524), (656, 522), (622, 522), (607, 522), (593, 522), (583, 522), (563, 523), (555, 524)]",182.2623604741195,"[7, 5, 1, 2, 6, 4, 8, 3, 9]","(0, 0.25)",CHN005D,CHN,D,English,Thu Aug 23 15:43:25 2018,Mouse
1,1,4,0,67,2,2,1,441,101,340,137,0,500,200,8000,"[(960, 540), (960, 540), (960, 540), (960, 540), (960, 540), (960, 540), (960, 540), (960, 540), (960, 540), (960, 540), (961, 545), (961, 549), (961, 554), (961, 558), (961, 568), (961, 573), (961, 579), (961, 583), (956, 594), (954, 599), (952, 605), (947, 611), (940, 619), (936, 623), (931, 628), (926, 631), (918, 639), (910, 645), (904, 650), (895, 656), (876, 667), (867, 673), (857, 678), (848, 684), (830, 695), (821, 700), (812, 706), (802, 714), (778, 729), (762, 737), (748, 746), (723, 761), (688, 782), (656, 794), (635, 806)]",140.70099424673452,"[7, 5, 1, 2, 6, 4, 8, 3, 9]","(0, 0.25)",CHN005D,CHN,D,English,Thu Aug 23 15:43:25 2018,Mouse
1,1,4,0,68,6,7,0,-1919,349,1570,137,0,500,200,8000,"[(960, 540), (960, 540), (960, 540), (960, 540), (960, 540), (960, 540), (960, 540), (960, 540), (960, 540), (960, 540), (960, 540), (960, 540), (960, 540), (960, 540), (960, 540), (960, 540), (960, 540), (960, 540), (960, 540), (960, 540), (960, 540), (960, 540), (960, 540), (960, 540), (960, 540), (960, 540), (960, 540), (960, 540), (960, 540), (960, 540), (960, 540), (960, 540), (960, 540), (960, 540), (961, 540), (963, 540), (968, 540), (971, 540), (973, 540), (976, 541), (978, 542), (978, 542), (978, 542), (978, 542), (978, 542), (978, 542), (978, 542), (978, 542), (978, 542), (978, 542), (978, 542), (978, 542), (978, 542), (978, 542), (978, 542), (978, 542), (978, 542), (978, 542), (978, 542), (978, 542), (978, 542), (978, 542), (978, 542), (978, 542), (978, 542), (978, 542), (978, 542), (978, 542), (978, 542), (978, 542), (978, 542), (978, 542), (978, 542), (978, 542), (978, 542), (978, 542), (978, 542), (978, 542), (978, 542), (978, 542), (978, 542), (978, 542), (978, 542), (978, 542), (978, 542), (978, 542), (978, 542), (978, 542), (978, 542), (978, 542), (978, 542), (978, 542), (978, 542), (978, 542), (978, 542), (978, 542), (978, 542), (978, 542), (978, 542), (978, 542), (978, 542), (978, 542), (978, 542), (978, 542), (978, 542), (978, 542), (978, 542), (978, 542), (978, 542), (978, 542), (978, 542), (978, 542), (978, 542), (978, 542), (978, 542), (978, 542), (978, 542), (978, 542), (978, 542), (978, 542), (978, 542), (978, 542), (978, 542), (978, 542), (978, 542), (978, 542), (978, 542), (978, 542), (978, 542), (978, 542), (978, 542), (978, 542), (978, 542), (978, 542), (978, 542), (978, 542), (978, 542), (978, 542), (979, 542), (981, 542), (988, 547), (991, 548), (994, 550), (999, 552), (1014, 558), (1021, 561), (1028, 564), (1034, 566), (1050, 575), (1059, 577), (1066, 581), (1074, 584), (1087, 590), (1094, 593), (1102, 596), (1108, 599), (1121, 604), (1126, 607), (1132, 611), (1140, 613), (1156, 621), (1165, 624), (1175, 627), (1183, 631), (1197, 636), (1201, 638), (1205, 640), (1205, 640), (1207, 640), (1207, 640), (1207, 640), (1207, 640), (1207, 640), (1207, 640), (1207, 640), (1207, 640), (1207, 640), (1207, 640), (1207, 640), (1207, 640), (1207, 640), (1207, 640), (1207, 640), (1207, 640), (1207, 640), (1212, 642), (1222, 647), (1236, 653), (1282, 668), (1307, 676), (1327, 681), (1343, 685)]",20.736168540060547,"[7, 5, 1, 2, 6, 4, 8, 3, 9]","(0, 0.25)",CHN005D,CHN,D,English,Thu Aug 23 15:43:25 2018,Mouse
1,1,4,0,69,2,2,1,381,111,270,138,0,500,200,8000,"[(960, 540), (960, 540), (960, 540), (960, 540), (960, 540), (960, 540), (960, 540), (960, 540), (960, 540), (960, 540), (960, 540), (956, 540), (946, 540), (937, 545), (931, 548), (925, 552), (906, 567), (897, 573), (888, 581), (880, 589), (866, 602), (859, 608), (850, 614), (842, 621), (820, 639), (811, 648), (803, 658), (796, 668), (780, 689), (769, 701), (760, 711), (749, 723), (727, 747), (719, 756), (709, 766), (700, 776), (683, 797), (674, 807), (667, 817)]",136.60788036991374,"[7, 5, 1, 2, 6, 4, 8, 3, 9]","(0, 0.25)",CHN005D,CHN,D,English,Thu Aug 23 15:43:25 2018,Mouse
1,1,4,0,70,6,6,1,290,50,240,138,0,500,200,8000,"[(960, 540), (960, 540), (960, 540), (960, 540), (956, 537), (951, 537), (946, 536), (941, 536), (926, 536), (919, 536), (911, 536), (904, 536), (890, 536), (881, 536), (871, 536), (862, 536), (843, 536), (832, 536), (820, 536), (809, 536), (788, 536), (773, 536), (759, 536), (742, 536), (694, 536), (667, 536), (633, 536), (592, 536), (516, 536)]",180.51616422976483,"[7, 5, 1, 2, 6, 4, 8, 3, 9]","(0, 0.25)",CHN005D,CHN,D,English,Thu Aug 23 15:43:25 2018,Mouse
1,1,4,0,71,2,2,1,321,71,250,137,0,500,200,8000,"[(960, 540), (960, 540), (960, 540), (960, 540), (960, 540), (960, 540), (960, 540), (959, 542), (954, 546), (949, 551), (943, 554), (929, 567), (922, 573), (916, 579), (908, 588), (895, 601), (890, 607), (883, 615), (875, 623), (851, 652), (839, 667), (827, 681), (816, 692), (792, 719), (780, 730), (767, 741), (758, 752), (736, 776), (723, 789), (712, 798), (704, 805), (680, 822), (671, 826)]",135.29893178940253,"[7, 5, 1, 2, 6, 4, 8, 3, 9]","(0, 0.25)",CHN005D,CHN,D,English,Thu Aug 23 15:43:25 2018,Mouse
1,1,4,0,72,8,6,0,-501,182,319,136,0,500,200,8000,"[(960, 540), (960, 540), (960, 540), (960, 540), (960, 540), (960, 540), (960, 540), (960, 540), (960, 540), (960, 540), (960, 540), (960, 540), (960, 540), (960, 540), (960, 540), (960, 540), (960, 540), (960, 540), (959, 540), (955, 540), (953, 540), (950, 540), (944, 540), (940, 540), (936, 540), (933, 540), (921, 540), (913, 540), (906, 540), (898, 540), (893, 540), (889, 540), (885, 540), (880, 540), (866, 540), (859, 540), (848, 540), (837, 540), (804, 540), (789, 540), (770, 540), (748, 540), (709, 540), (684, 540), (661, 540), (642, 540), (608, 540), (594, 540), (582, 540), (572, 540), (560, 540)]",180.0,"[7, 5, 1, 2, 6, 4, 8, 3, 9]","(0, 0.25)",CHN005D,CHN,D,English,Thu Aug 23 15:43:25 2018,Mouse
1,1,4,0,73,4,4,1,441,151,290,137,0,500,200,8000,"[(960, 540), (960, 540), (960, 540), (960, 540), (960, 540), (960, 540), (960, 540), (960, 540), (960, 540), (960, 540), (960, 540), (960, 540), (960, 540), (960, 540), (960, 540), (958, 539), (956, 539), (953, 537), (949, 534), (939, 526), (935, 523), (930, 519), (923, 512), (915, 500), (907, 491), (899, 481), (890, 472), (872, 455), (862, 446), (853, 435), (842, 425), (816, 403), (804, 393), (791, 382), (779, 370), (761, 347), (753, 336), (746, 326), (738, 316), (724, 298), (716, 289), (707, 279), (697, 270), (679, 256), (670, 250)]",225.0,"[7, 5, 1, 2, 6, 4, 8, 3, 9]","(0, 0.25)",CHN005D,CHN,D,English,Thu Aug 23 15:43:25 2018,Mouse
1,1,4,0,74,3,3,1,381,171,210,137,0,500,200,8000,"[(960, 540), (960, 540), (960, 540), (960, 540), (960, 540), (960, 540), (960, 540), (960, 540), (960, 540), (960, 540), (960, 540), (960, 540), (960, 540), (960, 540), (960, 540), (960, 540), (960, 540), (963, 541), (977, 537), (985, 534), (989, 531), (999, 525), (1020, 510), (1028, 502), (1038, 493), (1046, 485), (1065, 466), (1074, 457), (1081, 448), (1090, 438), (1106, 416), (1114, 403), (1127, 385), (1134, 375), (1156, 339), (1171, 317), (1183, 292), (1192, 272), (1217, 221)]",308.8563999399446,"[7, 5, 1, 2, 6, 4, 8, 3, 9]","(0, 0.25)",CHN005D,CHN,D,English,Thu Aug 23 15:43:25 2018,Mouse
1,1,4,0,75,6,6,1,380,150,230,136,0,500,200,8000,"[(960, 540), (960, 540), (960, 540), (960, 540), (960, 540), (960, 540), (960, 540), (960, 540), (960, 540), (960, 540), (960, 540), (960, 540), (960, 540), (960, 540), (958, 540), (947, 540), (933, 540), (920, 540), (902, 540), (891, 540), (880, 540), (869, 540), (844, 540), (831, 540), (819, 541), (804, 544), (768, 545), (748, 545), (722, 547), (699, 548), (657, 555), (643, 557), (629, 559), (617, 560), (590, 564), (579, 565), (566, 565), (558, 565)]",176.44141249744519,"[7, 5, 1, 2, 6, 4, 8, 3, 9]","(0, 0.25)",CHN005D,CHN,D,English,Thu Aug 23 15:43:25 2018,Mouse
1,1,4,0,76,2,9,0,-2961,2671,290,135,0,500,200,8000,"[(960, 540), (960, 540), (960, 540), (960, 540), (960, 540), (960, 540), (960, 540), (960, 540), (960, 540), (960, 540), (960, 540), (960, 540), (960, 540), (960, 540), (960, 540), (960, 540), (960, 540), (960, 540), (960, 540), (960, 540), (960, 540), (960, 540), (960, 540), (960, 540), (960, 540), (960, 540), (960, 540), (960, 540), (960, 540), (960, 540), (960, 540), (960, 540), (960, 540), (960, 540), (960, 540), (960, 540), (960, 540), (960, 540), (960, 540), (960, 540), (960, 540), (960, 540), (960, 540), (960, 540), (960, 540), (960, 540), (960, 540), (960, 540), (960, 540), (960, 540), (960, 540), (960, 540), (960, 540), (960, 540), (960, 540), (960, 540), (960, 540), (960, 540), (960, 540), (960, 540), (960, 540), (960, 540), (960, 540), (960, 540), (960, 540), (960, 540), (960, 540), (960, 540), (960, 540), (960, 540), (960, 540), (960, 540), (960, 540), (960, 540), (960, 540), (960, 540), (960, 540), (960, 540), (960, 540), (960, 540), (960, 540), (960, 540), (960, 540), (960, 540), (960, 540), (960, 540), (960, 540), (960, 540), (960, 540), (960, 540), (960, 540), (960, 540), (960, 540), (960, 540), (960, 540), (960, 540), (960, 540), (960, 540), (960, 540), (960, 540), (960, 540), (960, 540), (960, 540), (960, 540), (960, 540), (960, 540), (960, 540), (960, 540), (960, 540), (960, 540), (960, 540), (960, 540), (960, 540), (960, 540), (960, 540), (960, 540), (960, 540), (960, 540), (960, 540), (960, 540), (960, 540), (960, 540), (960, 540), (960, 540), (960, 540), (960, 540), (960, 540), (960, 540), (960, 540), (960, 540), (960, 540), (960, 540), (960, 540), (960, 540), (960, 540), (960, 540), (960, 540), (960, 540), (960, 540), (960, 540), (960, 540), (960, 540), (960, 540), (960, 540), (960, 540), (960, 540), (960, 540), (960, 540), (960, 540), (960, 540), (960, 540), (960, 540), (960, 540), (960, 540), (960, 540), (960, 540), (960, 540), (960, 540), (960, 540), (960, 540), (960, 540), (960, 540), (960, 540), (960, 540), (960, 540), (960, 540), (960, 540), (960, 540), (960, 540), (960, 540), (960, 540), (960, 540), (960, 540), (960, 540), (960, 540), (960, 540), (960, 540), (960, 540), (960, 540), (960, 540), (960, 540), (960, 540), (960, 540), (960, 540), (960, 540), (960, 540), (960, 540), (960, 540), (960, 540), (960, 540), (960, 540), (960, 540), (960, 540), (960, 540), (960, 540), (960, 540), (960, 540), (960, 540), (960, 540), (960, 540), (960, 540), (960, 540), (960, 540), (960, 540), (960, 540), (960, 540), (960, 540), (960, 540), (960, 540), (960, 540), (960, 540), (960, 540), (960, 540), (960, 540), (960, 540), (960, 540), (960, 540), (960, 540), (960, 540), (960, 540), (960, 540), (960, 540), (960, 540), (960, 540), (960, 540), (960, 540), (960, 540), (960, 540), (960, 540), (960, 540), (960, 540), (960, 540), (960, 540), (960, 540), (960, 540), (960, 540), (960, 540), (960, 540), (960, 540), (960, 540), (960, 540), (960, 540), (960, 540), (960, 540), (960, 540), (960, 540), (960, 540), (960, 540), (960, 540), (960, 540), (960, 540), (960, 540), (960, 540), (960, 540), (960, 540), (960, 540), (960, 540), (960, 540), (960, 540), (960, 540), (960, 540), (960, 540), (960, 540), (960, 540), (960, 540), (960, 540), (960, 540), (964, 538), (980, 533), (990, 530), (1001, 527), (1012, 525), (1037, 519), (1048, 515), (1061, 511), (1073, 509), (1096, 501), (1107, 496), (1118, 491), (1131, 483), (1155, 473), (1170, 467), (1183, 461), (1195, 456), (1225, 443), (1236, 439), (1246, 434), (1255, 430), (1270, 421), (1275, 418), (1281, 415), (1284, 412), (1295, 404), (1305, 398), (1315, 394), (1325, 390), (1342, 385)]",337.914694830399,"[7, 5, 1, 2, 6, 4, 8, 3, 9]","(0, 0.25)",CHN005D,CHN,D,English,Thu Aug 23 15:43:25 2018,Mouse
1,1,4,0,77,5,5,1,630,340,290,136,0,500,200,8000,"[(960, 540), (960, 540), (960, 540), (960, 540), (960, 540), (960, 540), (960, 540), (960, 540), (960, 540), (960, 540), (960, 540), (960, 540), (960, 540), (960, 540), (960, 540), (960, 540), (960, 540), (960, 540), (960, 540), (960, 540), (960, 540), (960, 540), (960, 540), (960, 540), (960, 540), (960, 540), (960, 540), (960, 540), (960, 540), (960, 540), (960, 540), (960, 540), (960, 540), (959, 542), (961, 547), (966, 550), (968, 552), (971, 555), (983, 562), (990, 568), (997, 574), (1005, 579), (1016, 590), (1023, 596), (1029, 602), (1038, 611), (1054, 632), (1062, 642), (1069, 654), (1079, 668), (1097, 693), (1105, 709), (1117, 728), (1119, 741), (1126, 772), (1130, 789), (1131, 802), (1132, 816), (1137, 844), (1138, 855), (1142, 866), (1143, 877), (1149, 898)]",62.16894982252728,"[7, 5, 1, 2, 6, 4, 8, 3, 9]","(0, 0.25)",CHN005D,CHN,D,English,Thu Aug 23 15:43:25 2018,Mouse
1,1,4,0,78,9,9,1,2348,248,2100,136,0,500,200,8000,"[(960, 540), (960, 540), (960, 540), (960, 540), (960, 540), (960, 540), (960, 540), (960, 540), (960, 540), (960, 540), (960, 540), (960, 540), (960, 540), (960, 540), (960, 540), (960, 540), (960, 540), (960, 540), (960, 540), (960, 540), (960, 540), (960, 540), (960, 540), (960, 540), (961, 540), (967, 542), (983, 548), (991, 551), (1000, 554), (1007, 555), (1017, 558), (1020, 559), (1022, 559), (1023, 561), (1025, 561), (1027, 562), (1031, 564), (1036, 567), (1046, 570), (1056, 573), (1065, 577), (1075, 580), (1100, 588), (1111, 593), (1124, 598), (1141, 606), (1172, 619), (1184, 624), (1197, 630), (1207, 635), (1224, 641), (1233, 646), (1235, 646), (1241, 649), (1243, 650), (1243, 650), (1243, 650), (1243, 650), (1243, 650), (1243, 650), (1243, 650), (1243, 650), (1243, 650), (1243, 650), (1243, 650), (1243, 650), (1243, 650), (1243, 650), (1243, 650), (1243, 650), (1243, 650), (1243, 650), (1243, 650), (1243, 650), (1243, 650), (1243, 650), (1243, 650), (1243, 650), (1243, 650), (1243, 650), (1243, 650), (1243, 650), (1243, 650), (1243, 650), (1243, 650), (1243, 650), (1243, 650), (1243, 650), (1243, 650), (1243, 650), (1243, 650), (1243, 650), (1243, 650), (1243, 650), (1243, 650), (1243, 650), (1243, 650), (1243, 650), (1243, 650), (1243, 650), (1243, 650), (1243, 650), (1243, 650), (1243, 650), (1243, 650), (1243, 650), (1243, 650), (1243, 650), (1243, 650), (1243, 650), (1243, 650), (1243, 650), (1243, 650), (1243, 650), (1243, 650), (1243, 650), (1243, 650), (1243, 650), (1243, 650), (1243, 650), (1243, 650), (1243, 650), (1243, 650), (1243, 650), (1243, 650), (1243, 650), (1243, 650), (1243, 650), (1243, 650), (1243, 650), (1243, 650), (1243, 650), (1243, 650), (1243, 650), (1243, 650), (1243, 650), (1243, 650), (1243, 650), (1243, 650), (1243, 650), (1243, 650), (1243, 650), (1243, 650), (1243, 650), (1243, 650), (1243, 650), (1243, 650), (1243, 650), (1243, 650), (1243, 650), (1243, 650), (1243, 650), (1243, 650), (1243, 650), (1243, 650), (1243, 650), (1243, 650), (1243, 650), (1243, 650), (1243, 650), (1243, 650), (1243, 650), (1243, 650), (1243, 650), (1243, 650), (1243, 650), (1243, 650), (1243, 650), (1243, 650), (1243, 650), (1243, 650), (1243, 650), (1243, 650), (1243, 650), (1243, 650), (1243, 650), (1243, 650), (1243, 650), (1243, 650), (1243, 650), (1243, 650), (1243, 650), (1243, 650), (1243, 650), (1243, 650), (1243, 650), (1243, 650), (1243, 650), (1243, 650), (1243, 650), (1243, 650), (1243, 650), (1243, 650), (1243, 650), (1243, 650), (1243, 650), (1243, 650), (1243, 650), (1243, 650), (1243, 650), (1243, 650), (1243, 650), (1243, 650), (1243, 650), (1243, 650), (1243, 650), (1243, 650), (1243, 650), (1243, 650), (1243, 648), (1243, 644), (1243, 643), (1242, 640), (1242, 638), (1242, 633), (1242, 631), (1242, 627), (1242, 622), (1242, 607), (1243, 598), (1245, 588), (1249, 578), (1258, 554), (1262, 541), (1268, 529), (1274, 516), (1286, 490), (1290, 480), (1297, 470), (1305, 460), (1316, 446), (1323, 438), (1327, 432), (1334, 425), (1345, 408)]",341.07535558394875,"[7, 5, 1, 2, 6, 4, 8, 3, 9]","(0, 0.25)",CHN005D,CHN,D,English,Thu Aug 23 15:43:25 2018,Mouse
