NativeLangNumber,LanuageNumber,SessionNumber,Block,TrialNum,ConditionNumber,Response,Accuracy,RT,MovementOnsetTime,TimeInMotion,SignalContrast,SignalContrastNumber,StimDisplayTime,MaskTime,MaxResponseTime,MousePositionXY,MouseAngle,WheelOrder,NoiseMuSigma,ParticipantID,LanuageTested,SessionTested,NativeLanuage,Date,ResponseDevice
1,1,4,0,1,7,7,1,377,307,70,153,0,500,200,8000,"[(960, 540), (960, 540), (960, 540), (960, 540), (960, 540), (960, 540), (960, 540), (960, 540), (960, 540), (960, 540), (960, 540), (960, 540), (960, 540), (960, 540), (960, 540), (960, 540), (960, 540), (960, 540), (960, 540), (960, 540), (960, 540), (960, 540), (960, 540), (960, 540), (960, 540), (960, 540), (960, 540), (960, 540), (960, 540), (960, 540), (961, 540), (961, 540), (959, 540), (946, 540), (859, 540), (773, 540), (663, 540), (547, 540)]",180.0,"[9, 5, 2, 8, 7, 6, 1, 4, 3]","(0, 0.25)",CHN002D,CHN,D,English,Tue Aug 14 13:05:29 2018,Mouse
1,1,4,0,2,7,7,1,41,11,30,153,0,500,200,8000,"[(960, 540), (844, 540), (712, 540), (577, 540), (309, 540)]",180.0,"[9, 5, 2, 8, 7, 6, 1, 4, 3]","(0, 0.25)",CHN002D,CHN,D,English,Tue Aug 14 13:05:29 2018,Mouse
1,1,4,0,3,5,5,1,1099,999,100,152,0,500,200,8000,"[(960, 540), (960, 540), (960, 540), (960, 540), (960, 540), (960, 540), (960, 540), (960, 540), (960, 540), (960, 540), (960, 540), (960, 540), (960, 540), (960, 540), (960, 540), (960, 540), (960, 540), (960, 540), (960, 540), (960, 540), (960, 540), (960, 540), (960, 540), (960, 540), (960, 540), (960, 540), (960, 540), (960, 540), (960, 540), (960, 540), (960, 540), (960, 540), (960, 540), (960, 540), (960, 540), (960, 540), (960, 540), (960, 540), (960, 540), (960, 540), (960, 540), (960, 540), (960, 540), (960, 540), (960, 540), (960, 540), (960, 540), (960, 540), (960, 540), (960, 540), (960, 540), (960, 540), (960, 540), (960, 540), (960, 540), (960, 540), (960, 540), (960, 540), (960, 540), (960, 540), (960, 540), (960, 540), (960, 540), (960, 540), (960, 540), (960, 540), (960, 540), (960, 540), (960, 540), (960, 540), (960, 540), (960, 540), (960, 540), (960, 540), (960, 540), (960, 540), (960, 540), (960, 540), (960, 540), (960, 540), (960, 540), (960, 540), (960, 540), (960, 540), (960, 540), (960, 540), (960, 540), (960, 540), (960, 540), (960, 540), (960, 540), (960, 540), (960, 540), (960, 540), (960, 540), (960, 540), (960, 540), (960, 540), (960, 540), (960, 541), (960, 542), (960, 543), (961, 547), (962, 555), (966, 569), (999, 641), (1020, 692), (1053, 744), (1093, 797), (1192, 896)]",56.90830006131757,"[9, 5, 2, 8, 7, 6, 1, 4, 3]","(0, 0.25)",CHN002D,CHN,D,English,Tue Aug 14 13:05:29 2018,Mouse
1,1,4,0,4,1,1,1,408,308,100,151,0,500,200,8000,"[(960, 540), (960, 540), (960, 540), (960, 540), (960, 540), (960, 540), (960, 540), (960, 540), (960, 540), (960, 540), (960, 540), (960, 540), (960, 540), (960, 540), (960, 540), (960, 540), (960, 540), (960, 540), (960, 540), (960, 540), (960, 540), (960, 540), (960, 540), (960, 540), (960, 540), (960, 540), (960, 540), (960, 540), (960, 540), (960, 540), (958, 529), (956, 519), (951, 503), (943, 481), (925, 422), (916, 391), (903, 349), (890, 307), (855, 227), (840, 185), (827, 149)]",251.21408601383638,"[9, 5, 2, 8, 7, 6, 1, 4, 3]","(0, 0.25)",CHN002D,CHN,D,English,Tue Aug 14 13:05:29 2018,Mouse
1,1,4,0,5,4,4,1,219,89,130,150,0,500,200,8000,"[(960, 540), (960, 540), (960, 540), (960, 540), (960, 540), (960, 540), (960, 540), (960, 540), (960, 539), (961, 537), (961, 536), (963, 534), (967, 526), (969, 519), (974, 510), (980, 496), (1003, 448), (1021, 403), (1041, 357), (1056, 315), (1108, 204), (1140, 152)]",294.88741171092454,"[9, 5, 2, 8, 7, 6, 1, 4, 3]","(0, 0.25)",CHN002D,CHN,D,English,Tue Aug 14 13:05:29 2018,Mouse
1,1,4,0,6,8,8,1,409,339,70,149,0,500,200,8000,"[(960, 540), (960, 540), (960, 540), (960, 540), (960, 540), (960, 540), (960, 540), (960, 540), (960, 540), (960, 540), (960, 540), (960, 540), (960, 540), (960, 540), (960, 540), (960, 540), (960, 540), (960, 540), (960, 540), (960, 540), (960, 540), (960, 540), (960, 540), (960, 540), (960, 540), (960, 540), (960, 540), (960, 540), (960, 540), (960, 540), (960, 540), (960, 540), (960, 540), (959, 540), (953, 545), (945, 552), (932, 566), (905, 591), (796, 679), (721, 733), (643, 786)]",142.18763466223658,"[9, 5, 2, 8, 7, 6, 1, 4, 3]","(0, 0.25)",CHN002D,CHN,D,English,Tue Aug 14 13:05:29 2018,Mouse
1,1,4,0,7,3,3,1,870,810,60,148,0,500,200,8000,"[(960, 540), (960, 540), (960, 540), (960, 540), (960, 540), (960, 540), (960, 540), (960, 540), (960, 540), (960, 540), (960, 540), (960, 540), (960, 540), (960, 540), (960, 540), (960, 540), (960, 540), (960, 540), (960, 540), (960, 540), (960, 540), (960, 540), (960, 540), (960, 540), (960, 540), (960, 540), (960, 540), (960, 540), (960, 540), (960, 540), (960, 540), (960, 540), (960, 540), (960, 540), (960, 540), (960, 540), (960, 540), (960, 540), (960, 540), (960, 540), (960, 540), (960, 540), (960, 540), (960, 540), (960, 540), (960, 540), (960, 540), (960, 540), (960, 540), (960, 540), (960, 540), (960, 540), (960, 540), (960, 540), (960, 540), (960, 540), (960, 540), (960, 540), (960, 540), (960, 540), (960, 540), (960, 540), (960, 540), (960, 540), (960, 540), (960, 540), (960, 540), (960, 540), (960, 540), (960, 540), (960, 540), (960, 540), (960, 540), (960, 540), (960, 540), (960, 540), (960, 540), (960, 540), (960, 540), (960, 540), (973, 536), (992, 528), (1023, 516), (1058, 500), (1193, 441), (1283, 402), (1392, 347)]",335.92685407811,"[9, 5, 2, 8, 7, 6, 1, 4, 3]","(0, 0.25)",CHN002D,CHN,D,English,Tue Aug 14 13:05:29 2018,Mouse
1,1,4,0,8,1,1,1,529,429,100,147,0,500,200,8000,"[(960, 540), (960, 540), (960, 540), (960, 540), (960, 540), (960, 540), (960, 540), (960, 540), (960, 540), (960, 540), (960, 540), (960, 540), (960, 540), (960, 540), (960, 540), (960, 540), (960, 540), (960, 540), (960, 540), (960, 540), (960, 540), (960, 540), (960, 540), (960, 540), (960, 540), (960, 540), (960, 540), (960, 540), (960, 540), (960, 540), (960, 540), (960, 540), (960, 540), (960, 540), (960, 540), (960, 540), (960, 540), (960, 540), (960, 540), (960, 540), (960, 540), (960, 540), (960, 538), (960, 535), (960, 520), (960, 506), (960, 482), (957, 444), (955, 372), (955, 324), (955, 272), (955, 219), (955, 108)]",269.3368840128864,"[9, 5, 2, 8, 7, 6, 1, 4, 3]","(0, 0.25)",CHN002D,CHN,D,English,Tue Aug 14 13:05:29 2018,Mouse
1,1,4,0,9,3,3,1,620,580,40,146,0,500,200,8000,"[(960, 540), (960, 540), (960, 540), (960, 540), (960, 540), (960, 540), (960, 540), (960, 540), (960, 540), (960, 540), (960, 540), (960, 540), (960, 540), (960, 540), (960, 540), (960, 540), (960, 540), (960, 540), (960, 540), (960, 540), (960, 540), (960, 540), (960, 540), (960, 540), (960, 540), (960, 540), (960, 540), (960, 540), (960, 540), (960, 540), (960, 540), (960, 540), (960, 540), (960, 540), (960, 540), (960, 540), (960, 540), (960, 540), (960, 540), (960, 540), (960, 540), (960, 540), (960, 540), (960, 540), (960, 540), (960, 540), (960, 540), (960, 540), (960, 540), (960, 540), (960, 540), (960, 540), (960, 540), (960, 540), (960, 540), (960, 540), (960, 540), (976, 540), (1096, 523), (1205, 509), (1336, 490), (1489, 466)]",352.03676335745223,"[9, 5, 2, 8, 7, 6, 1, 4, 3]","(0, 0.25)",CHN002D,CHN,D,English,Tue Aug 14 13:05:29 2018,Mouse
1,1,4,0,10,9,9,1,1300,1250,50,145,0,500,200,8000,"[(960, 540), (960, 540), (960, 540), (960, 540), (960, 540), (960, 540), (960, 540), (960, 540), (960, 540), (960, 540), (960, 540), (960, 540), (960, 540), (960, 540), (960, 540), (960, 540), (960, 540), (960, 540), (960, 540), (960, 540), (960, 540), (960, 540), (960, 540), (960, 540), (960, 540), (960, 540), (960, 540), (960, 540), (960, 540), (960, 540), (960, 540), (960, 540), (960, 540), (960, 540), (960, 540), (960, 540), (960, 540), (960, 540), (960, 540), (960, 540), (960, 540), (960, 540), (960, 540), (960, 540), (960, 540), (960, 540), (960, 540), (960, 540), (960, 540), (960, 540), (960, 540), (960, 540), (960, 540), (960, 540), (960, 540), (960, 540), (960, 540), (960, 540), (960, 540), (960, 540), (960, 540), (960, 540), (960, 540), (960, 540), (960, 540), (960, 540), (960, 540), (960, 540), (960, 540), (960, 540), (960, 540), (960, 540), (960, 540), (960, 540), (960, 540), (960, 540), (960, 540), (960, 540), (960, 540), (960, 540), (960, 540), (960, 540), (960, 540), (960, 540), (960, 540), (960, 540), (960, 540), (960, 540), (960, 540), (960, 540), (960, 540), (960, 540), (960, 540), (960, 540), (960, 540), (960, 540), (960, 540), (960, 540), (960, 540), (960, 540), (960, 540), (960, 540), (960, 540), (960, 540), (960, 540), (960, 540), (960, 540), (960, 540), (960, 540), (960, 540), (960, 540), (960, 540), (960, 540), (960, 540), (960, 540), (960, 540), (960, 540), (960, 540), (960, 540), (960, 540), (960, 540), (960, 540), (960, 540), (960, 540), (962, 544), (986, 553), (1118, 584), (1223, 610), (1338, 631), (1464, 655)]",12.853392161036254,"[9, 5, 2, 8, 7, 6, 1, 4, 3]","(0, 0.25)",CHN002D,CHN,D,English,Tue Aug 14 13:05:29 2018,Mouse
1,1,4,0,11,1,1,1,600,350,250,144,0,500,200,8000,"[(960, 540), (960, 540), (960, 540), (960, 540), (960, 540), (960, 540), (960, 540), (960, 540), (960, 540), (960, 540), (960, 540), (960, 540), (960, 540), (960, 540), (960, 540), (960, 540), (960, 540), (960, 540), (960, 540), (960, 540), (960, 540), (960, 540), (960, 540), (960, 540), (960, 540), (960, 540), (960, 540), (960, 540), (960, 540), (960, 540), (960, 540), (960, 540), (960, 540), (960, 540), (958, 541), (956, 543), (955, 544), (954, 544), (954, 544), (952, 546), (952, 546), (952, 546), (952, 546), (952, 546), (952, 546), (952, 546), (952, 546), (951, 546), (950, 545), (950, 544), (950, 544), (949, 541), (949, 537), (946, 531), (945, 520), (941, 472), (941, 419), (941, 364), (941, 281), (941, 88)]",267.59296614650435,"[9, 5, 2, 8, 7, 6, 1, 4, 3]","(0, 0.25)",CHN002D,CHN,D,English,Tue Aug 14 13:05:29 2018,Mouse
1,1,4,0,12,3,3,1,719,489,230,143,0,500,200,8000,"[(960, 540), (960, 540), (960, 540), (960, 540), (960, 540), (960, 540), (960, 540), (960, 540), (960, 540), (960, 540), (960, 540), (960, 540), (960, 540), (960, 540), (960, 540), (960, 540), (960, 540), (960, 540), (960, 540), (960, 540), (960, 540), (960, 540), (960, 540), (960, 540), (960, 540), (960, 540), (960, 540), (960, 540), (960, 540), (960, 540), (960, 540), (960, 540), (960, 540), (960, 540), (960, 540), (960, 540), (960, 540), (960, 540), (960, 540), (960, 540), (960, 540), (960, 540), (960, 540), (960, 540), (960, 540), (960, 540), (960, 540), (960, 540), (961, 538), (961, 537), (961, 535), (961, 533), (961, 532), (961, 531), (961, 531), (961, 530), (961, 530), (961, 530), (961, 530), (961, 530), (961, 530), (961, 530), (961, 530), (961, 530), (961, 530), (961, 530), (961, 530), (967, 527), (993, 520), (1050, 510), (1181, 493), (1540, 434)]",349.6430032608843,"[9, 5, 2, 8, 7, 6, 1, 4, 3]","(0, 0.25)",CHN002D,CHN,D,English,Tue Aug 14 13:05:29 2018,Mouse
1,1,4,0,13,4,4,1,390,340,50,142,0,500,200,8000,"[(960, 540), (960, 540), (960, 540), (960, 540), (960, 540), (960, 540), (960, 540), (960, 540), (960, 540), (960, 540), (960, 540), (960, 540), (960, 540), (960, 540), (960, 540), (960, 540), (960, 540), (960, 540), (960, 540), (960, 540), (960, 540), (960, 540), (960, 540), (960, 540), (960, 540), (960, 540), (960, 540), (960, 540), (960, 540), (960, 540), (960, 540), (960, 540), (960, 540), (960, 538), (980, 509), (1009, 470), (1050, 414), (1091, 356), (1198, 204)]",305.3112134396332,"[9, 5, 2, 8, 7, 6, 1, 4, 3]","(0, 0.25)",CHN002D,CHN,D,English,Tue Aug 14 13:05:29 2018,Mouse
1,1,4,0,14,7,7,1,190,150,40,141,0,500,200,8000,"[(960, 540), (960, 540), (960, 540), (960, 540), (960, 540), (960, 540), (960, 540), (960, 540), (960, 540), (960, 540), (960, 540), (960, 540), (960, 540), (960, 540), (948, 540), (897, 540), (809, 540), (685, 540), (411, 540)]",180.0,"[9, 5, 2, 8, 7, 6, 1, 4, 3]","(0, 0.25)",CHN002D,CHN,D,English,Tue Aug 14 13:05:29 2018,Mouse
1,1,4,0,15,4,4,1,270,200,70,140,0,500,200,8000,"[(960, 540), (960, 540), (960, 540), (960, 540), (960, 540), (960, 540), (960, 540), (960, 540), (960, 540), (960, 540), (960, 540), (960, 540), (960, 540), (960, 540), (960, 540), (960, 540), (960, 540), (960, 540), (960, 540), (961, 540), (965, 539), (972, 527), (996, 471), (1025, 422), (1059, 361), (1096, 301), (1187, 147)]",300.0110800516133,"[9, 5, 2, 8, 7, 6, 1, 4, 3]","(0, 0.25)",CHN002D,CHN,D,English,Tue Aug 14 13:05:29 2018,Mouse
1,1,4,0,16,1,1,1,329,109,220,139,0,500,200,8000,"[(960, 540), (960, 540), (960, 540), (960, 540), (960, 540), (960, 540), (960, 540), (960, 540), (960, 540), (960, 540), (959, 539), (959, 538), (959, 538), (958, 537), (957, 536), (957, 535), (956, 535), (955, 533), (955, 532), (954, 530), (953, 529), (952, 529), (952, 529), (952, 529), (952, 528), (952, 524), (952, 520), (952, 512), (952, 493), (956, 381), (950, 292), (932, 204), (905, 113)]",262.6603937199688,"[9, 5, 2, 8, 7, 6, 1, 4, 3]","(0, 0.25)",CHN002D,CHN,D,English,Tue Aug 14 13:05:29 2018,Mouse
1,1,4,0,17,1,1,1,39,19,20,138,0,500,200,8000,"[(968, 483), (979, 388), (982, 278), (989, 0)]",273.0740425663392,"[9, 5, 2, 8, 7, 6, 1, 4, 3]","(0, 0.25)",CHN002D,CHN,D,English,Tue Aug 14 13:05:29 2018,Mouse
1,1,4,0,18,8,8,1,680,630,50,137,0,500,200,8000,"[(960, 540), (960, 540), (960, 540), (960, 540), (960, 540), (960, 540), (960, 540), (960, 540), (960, 540), (960, 540), (960, 540), (960, 540), (960, 540), (960, 540), (960, 540), (960, 540), (960, 540), (960, 540), (960, 540), (960, 540), (960, 540), (960, 540), (960, 540), (960, 540), (960, 540), (960, 540), (960, 540), (960, 540), (960, 540), (960, 540), (960, 540), (960, 540), (960, 540), (960, 540), (960, 540), (960, 540), (960, 540), (960, 540), (960, 540), (960, 540), (960, 540), (960, 540), (960, 540), (960, 540), (960, 540), (960, 540), (960, 540), (960, 540), (960, 540), (960, 540), (960, 540), (960, 540), (960, 540), (960, 540), (960, 540), (960, 540), (960, 540), (960, 540), (960, 540), (960, 540), (960, 540), (960, 540), (955, 540), (935, 560), (900, 605), (845, 683), (720, 834), (654, 899)]",130.44320138005116,"[9, 5, 2, 8, 7, 6, 1, 4, 3]","(0, 0.25)",CHN002D,CHN,D,English,Tue Aug 14 13:05:29 2018,Mouse
1,1,4,0,19,4,4,1,318,258,60,136,0,500,200,8000,"[(960, 540), (960, 540), (960, 540), (960, 540), (960, 540), (960, 540), (960, 540), (960, 540), (960, 540), (960, 540), (960, 540), (960, 540), (960, 540), (960, 540), (960, 540), (960, 540), (960, 540), (960, 540), (960, 540), (960, 540), (960, 540), (960, 540), (960, 540), (960, 540), (960, 540), (960, 537), (965, 521), (977, 500), (1003, 453), (1038, 388), (1102, 247), (1135, 174)]",295.554425601164,"[9, 5, 2, 8, 7, 6, 1, 4, 3]","(0, 0.25)",CHN002D,CHN,D,English,Tue Aug 14 13:05:29 2018,Mouse
1,1,4,0,20,9,9,1,300,250,50,135,0,500,200,8000,"[(960, 540), (960, 540), (960, 540), (960, 540), (960, 540), (960, 540), (960, 540), (960, 540), (960, 540), (960, 540), (960, 540), (960, 540), (960, 540), (960, 540), (960, 540), (960, 540), (960, 540), (960, 540), (960, 540), (960, 540), (960, 540), (960, 540), (960, 540), (960, 540), (962, 543), (997, 558), (1042, 578), (1120, 600), (1219, 630), (1433, 672)]",15.592810939266347,"[9, 5, 2, 8, 7, 6, 1, 4, 3]","(0, 0.25)",CHN002D,CHN,D,English,Tue Aug 14 13:05:29 2018,Mouse
1,1,4,0,21,7,8,0,-598,548,50,134,0,500,200,8000,"[(960, 540), (960, 540), (960, 540), (960, 540), (960, 540), (960, 540), (960, 540), (960, 540), (960, 540), (960, 540), (960, 540), (960, 540), (960, 540), (960, 540), (960, 540), (960, 540), (960, 540), (960, 540), (960, 540), (960, 540), (960, 540), (960, 540), (960, 540), (960, 540), (960, 540), (960, 540), (960, 540), (960, 540), (960, 540), (960, 540), (960, 540), (960, 540), (960, 540), (960, 540), (960, 540), (960, 540), (960, 540), (960, 540), (960, 540), (960, 540), (960, 540), (960, 540), (960, 540), (960, 540), (960, 540), (960, 540), (960, 540), (960, 540), (960, 540), (960, 540), (960, 540), (960, 540), (960, 540), (960, 540), (947, 551), (934, 565), (903, 602), (852, 661), (728, 797), (660, 865)]",132.70938995736148,"[9, 5, 2, 8, 7, 6, 1, 4, 3]","(0, 0.25)",CHN002D,CHN,D,English,Tue Aug 14 13:05:29 2018,Mouse
1,1,4,0,22,9,9,1,1429,279,1150,135,0,500,200,8000,"[(960, 540), (960, 540), (960, 540), (960, 540), (960, 540), (960, 540), (960, 540), (960, 540), (960, 540), (960, 540), (960, 540), (960, 540), (960, 540), (960, 540), (960, 540), (960, 540), (960, 540), (960, 540), (960, 540), (960, 540), (960, 540), (960, 540), (960, 540), (960, 540), (960, 540), (960, 540), (960, 540), (959, 538), (959, 538), (959, 538), (958, 537), (958, 537), (958, 537), (957, 537), (957, 537), (957, 537), (957, 537), (957, 537), (957, 537), (957, 537), (957, 537), (957, 537), (957, 537), (957, 537), (957, 537), (957, 537), (957, 537), (957, 537), (957, 537), (957, 537), (957, 537), (957, 537), (957, 537), (957, 537), (957, 537), (957, 537), (957, 537), (957, 537), (957, 537), (957, 537), (957, 537), (957, 537), (957, 537), (957, 537), (957, 537), (957, 537), (957, 537), (957, 537), (957, 537), (957, 537), (957, 537), (957, 537), (957, 537), (957, 537), (957, 537), (957, 537), (957, 537), (957, 537), (957, 537), (957, 537), (957, 537), (957, 537), (957, 537), (957, 537), (957, 537), (957, 537), (957, 537), (957, 537), (957, 537), (957, 537), (957, 537), (957, 537), (953, 537), (923, 537), (891, 532), (862, 527), (848, 524), (843, 523), (843, 523), (843, 523), (842, 523), (842, 521), (842, 520), (843, 518), (843, 518), (844, 518), (844, 518), (844, 518), (844, 518), (845, 517), (845, 517), (845, 517), (846, 517), (846, 517), (846, 517), (846, 517), (847, 516), (848, 515), (848, 515), (848, 515), (848, 515), (848, 515), (848, 515), (849, 515), (849, 515), (849, 515), (850, 515), (850, 515), (851, 515), (852, 515), (852, 515), (852, 515), (854, 515), (860, 515), (865, 515), (878, 518), (934, 551), (986, 578), (1041, 609), (1098, 644), (1164, 678), (1283, 740), (1345, 768)]",30.634347860787525,"[9, 5, 2, 8, 7, 6, 1, 4, 3]","(0, 0.25)",CHN002D,CHN,D,English,Tue Aug 14 13:05:29 2018,Mouse
1,1,4,0,23,4,4,1,290,240,50,135,0,500,200,8000,"[(960, 540), (960, 540), (960, 540), (960, 540), (960, 540), (960, 540), (960, 540), (960, 540), (960, 540), (960, 540), (960, 540), (960, 540), (960, 540), (960, 540), (960, 540), (960, 540), (960, 540), (960, 540), (960, 540), (960, 540), (960, 540), (960, 540), (960, 540), (963, 537), (971, 528), (985, 512), (1024, 472), (1093, 393), (1256, 209)]",311.80498682788635,"[9, 5, 2, 8, 7, 6, 1, 4, 3]","(0, 0.25)",CHN002D,CHN,D,English,Tue Aug 14 13:05:29 2018,Mouse
1,1,4,0,24,7,7,1,470,170,300,134,0,500,200,8000,"[(960, 540), (960, 540), (960, 540), (960, 540), (960, 540), (960, 540), (960, 540), (960, 540), (960, 540), (960, 540), (960, 540), (960, 540), (960, 540), (960, 540), (960, 540), (960, 540), (959, 539), (958, 539), (951, 539), (945, 539), (934, 541), (921, 543), (884, 549), (861, 551), (842, 555), (829, 556), (818, 557), (818, 557), (818, 557), (818, 557), (816, 556), (816, 556), (815, 554), (815, 554), (815, 551), (815, 549), (815, 546), (815, 545), (815, 538), (815, 535), (815, 534), (814, 531), (807, 528), (787, 526), (752, 521), (693, 517), (544, 517)]",183.16457362188552,"[9, 5, 2, 8, 7, 6, 1, 4, 3]","(0, 0.25)",CHN002D,CHN,D,English,Tue Aug 14 13:05:29 2018,Mouse
1,1,4,0,25,3,4,0,-828,768,60,133,0,500,200,8000,"[(960, 540), (960, 540), (960, 540), (960, 540), (960, 540), (960, 540), (960, 540), (960, 540), (960, 540), (960, 540), (960, 540), (960, 540), (960, 540), (960, 540), (960, 540), (960, 540), (960, 540), (960, 540), (960, 540), (960, 540), (960, 540), (960, 540), (960, 540), (960, 540), (960, 540), (960, 540), (960, 540), (960, 540), (960, 540), (960, 540), (960, 540), (960, 540), (960, 540), (960, 540), (960, 540), (960, 540), (960, 540), (960, 540), (960, 540), (960, 540), (960, 540), (960, 540), (960, 540), (960, 540), (960, 540), (960, 540), (960, 540), (960, 540), (960, 540), (960, 540), (960, 540), (960, 540), (960, 540), (960, 540), (960, 540), (960, 540), (960, 540), (960, 540), (960, 540), (960, 540), (960, 540), (960, 540), (960, 540), (960, 540), (960, 540), (960, 540), (960, 540), (960, 540), (960, 540), (960, 540), (960, 540), (960, 540), (960, 540), (960, 540), (960, 540), (960, 540), (961, 538), (970, 528), (984, 512), (1062, 423), (1112, 362), (1161, 300), (1215, 225)]",308.99099404250546,"[9, 5, 2, 8, 7, 6, 1, 4, 3]","(0, 0.25)",CHN002D,CHN,D,English,Tue Aug 14 13:05:29 2018,Mouse
1,1,4,0,26,6,1,0,-399,359,40,134,0,500,200,8000,"[(960, 540), (960, 540), (960, 540), (960, 540), (960, 540), (960, 540), (960, 540), (960, 540), (960, 540), (960, 540), (960, 540), (960, 540), (960, 540), (960, 540), (960, 540), (960, 540), (960, 540), (960, 540), (960, 540), (960, 540), (960, 540), (960, 540), (960, 540), (960, 540), (960, 540), (960, 540), (960, 540), (960, 540), (960, 540), (960, 540), (960, 540), (960, 540), (960, 540), (960, 540), (960, 540), (960, 502), (960, 438), (960, 361), (960, 267), (956, 37)]",269.54437716273793,"[9, 5, 2, 8, 7, 6, 1, 4, 3]","(0, 0.25)",CHN002D,CHN,D,English,Tue Aug 14 13:05:29 2018,Mouse
1,1,4,0,27,1,1,1,220,160,60,135,0,500,200,8000,"[(960, 540), (960, 540), (960, 540), (960, 540), (960, 540), (960, 540), (960, 540), (960, 540), (960, 540), (960, 540), (960, 540), (960, 540), (960, 540), (960, 540), (960, 540), (960, 534), (960, 505), (955, 440), (914, 299), (894, 228), (877, 156), (860, 87)]",257.55156976374144,"[9, 5, 2, 8, 7, 6, 1, 4, 3]","(0, 0.25)",CHN002D,CHN,D,English,Tue Aug 14 13:05:29 2018,Mouse
1,1,4,0,28,5,5,1,1670,1430,240,135,0,500,200,8000,"[(960, 540), (960, 540), (960, 540), (960, 540), (960, 540), (960, 540), (960, 540), (960, 540), (960, 540), (960, 540), (960, 540), (960, 540), (960, 540), (960, 540), (960, 540), (960, 540), (960, 540), (960, 540), (960, 540), (960, 540), (960, 540), (960, 540), (960, 540), (960, 540), (960, 540), (960, 540), (960, 540), (960, 540), (960, 540), (960, 540), (960, 540), (960, 540), (960, 540), (960, 540), (960, 540), (960, 540), (960, 540), (960, 540), (960, 540), (960, 540), (960, 540), (960, 540), (960, 540), (960, 540), (960, 540), (960, 540), (960, 540), (960, 540), (960, 540), (960, 540), (960, 540), (960, 540), (960, 540), (960, 540), (960, 540), (960, 540), (960, 540), (960, 540), (960, 540), (960, 540), (960, 540), (960, 540), (960, 540), (960, 540), (960, 540), (960, 540), (960, 540), (960, 540), (960, 540), (960, 540), (960, 540), (960, 540), (960, 540), (960, 540), (960, 540), (960, 540), (960, 540), (960, 540), (960, 540), (960, 540), (960, 540), (960, 540), (960, 540), (960, 540), (960, 540), (960, 540), (960, 540), (960, 540), (960, 540), (960, 540), (960, 540), (960, 540), (960, 540), (960, 540), (960, 540), (960, 540), (960, 540), (960, 540), (960, 540), (960, 540), (960, 540), (960, 540), (960, 540), (960, 540), (960, 540), (960, 540), (960, 540), (960, 540), (960, 540), (960, 540), (960, 540), (960, 540), (960, 540), (960, 540), (960, 540), (960, 540), (960, 540), (960, 540), (960, 540), (960, 540), (960, 540), (960, 540), (960, 540), (960, 540), (960, 540), (960, 540), (960, 540), (960, 540), (960, 540), (960, 540), (960, 540), (960, 540), (960, 540), (960, 540), (960, 540), (960, 540), (960, 540), (960, 540), (960, 540), (960, 540), (960, 540), (960, 540), (960, 541), (961, 543), (961, 545), (962, 549), (964, 557), (973, 588), (981, 621), (998, 656), (1015, 693), (1037, 746), (1044, 764), (1048, 776), (1052, 786), (1058, 801), (1062, 807), (1064, 811), (1067, 815), (1071, 823), (1073, 831), (1073, 837), (1076, 847), (1081, 878), (1083, 893), (1088, 908), (1095, 928)]",70.81526468717186,"[9, 5, 2, 8, 7, 6, 1, 4, 3]","(0, 0.25)",CHN002D,CHN,D,English,Tue Aug 14 13:05:29 2018,Mouse
1,1,4,0,29,5,5,1,630,60,570,134,0,500,200,8000,"[(960, 540), (960, 540), (960, 540), (960, 540), (960, 540), (959, 540), (959, 540), (959, 540), (959, 540), (958, 540), (958, 540), (958, 540), (958, 540), (958, 540), (958, 540), (958, 540), (958, 540), (958, 540), (958, 540), (958, 540), (958, 540), (957, 540), (957, 540), (956, 540), (956, 540), (956, 540), (956, 540), (955, 540), (955, 540), (955, 540), (955, 540), (955, 540), (955, 540), (955, 540), (955, 540), (955, 540), (955, 540), (955, 540), (955, 540), (955, 540), (955, 540), (955, 540), (955, 540), (955, 540), (955, 540), (955, 540), (955, 540), (955, 540), (955, 540), (956, 540), (957, 540), (958, 540), (959, 540), (960, 540), (962, 540), (962, 540), (965, 540), (967, 548), (983, 616), (995, 671), (1017, 748), (1046, 824), (1088, 925)]",71.60970882938561,"[9, 5, 2, 8, 7, 6, 1, 4, 3]","(0, 0.25)",CHN002D,CHN,D,English,Tue Aug 14 13:05:29 2018,Mouse
1,1,4,0,30,1,1,1,209,139,70,133,0,500,200,8000,"[(960, 540), (960, 540), (960, 540), (960, 540), (960, 540), (960, 540), (960, 540), (960, 540), (960, 540), (960, 540), (960, 540), (960, 540), (960, 540), (959, 539), (959, 526), (959, 508), (959, 466), (959, 402), (959, 258), (950, 188), (940, 117)]",267.29299568160013,"[9, 5, 2, 8, 7, 6, 1, 4, 3]","(0, 0.25)",CHN002D,CHN,D,English,Tue Aug 14 13:05:29 2018,Mouse
1,1,4,0,31,5,6,0,-898,848,50,132,0,500,200,8000,"[(960, 540), (960, 540), (960, 540), (960, 540), (960, 540), (960, 540), (960, 540), (960, 540), (960, 540), (960, 540), (960, 540), (960, 540), (960, 540), (960, 540), (960, 540), (960, 540), (960, 540), (960, 540), (960, 540), (960, 540), (960, 540), (960, 540), (960, 540), (960, 540), (960, 540), (960, 540), (960, 540), (960, 540), (960, 540), (960, 540), (960, 540), (960, 540), (960, 540), (960, 540), (960, 540), (960, 540), (960, 540), (960, 540), (960, 540), (960, 540), (960, 540), (960, 540), (960, 540), (960, 540), (960, 540), (960, 540), (960, 540), (960, 540), (960, 540), (960, 540), (960, 540), (960, 540), (960, 540), (960, 540), (960, 540), (960, 540), (960, 540), (960, 540), (960, 540), (960, 540), (960, 540), (960, 540), (960, 540), (960, 540), (960, 540), (960, 540), (960, 540), (960, 540), (960, 540), (960, 540), (960, 540), (960, 540), (960, 540), (960, 540), (960, 540), (960, 540), (960, 540), (960, 540), (960, 540), (960, 540), (960, 540), (960, 540), (960, 540), (960, 540), (955, 538), (894, 442), (839, 380), (771, 316), (693, 252), (521, 134)]",222.76354986136738,"[9, 5, 2, 8, 7, 6, 1, 4, 3]","(0, 0.25)",CHN002D,CHN,D,English,Tue Aug 14 13:05:29 2018,Mouse
1,1,4,0,32,2,5,0,-989,829,160,133,0,500,200,8000,"[(960, 540), (960, 540), (960, 540), (960, 540), (960, 540), (960, 540), (960, 540), (960, 540), (960, 540), (960, 540), (960, 540), (960, 540), (960, 540), (960, 540), (960, 540), (960, 540), (960, 540), (960, 540), (960, 540), (960, 540), (960, 540), (960, 540), (960, 540), (960, 540), (960, 540), (960, 540), (960, 540), (960, 540), (960, 540), (960, 540), (960, 540), (960, 540), (960, 540), (960, 540), (960, 540), (960, 540), (960, 540), (960, 540), (960, 540), (960, 540), (960, 540), (960, 540), (960, 540), (960, 540), (960, 540), (960, 540), (960, 540), (960, 540), (960, 540), (960, 540), (960, 540), (960, 540), (960, 540), (960, 540), (960, 540), (960, 540), (960, 540), (960, 540), (960, 540), (960, 540), (960, 540), (960, 540), (960, 540), (960, 540), (960, 540), (960, 540), (960, 540), (960, 540), (960, 540), (960, 540), (960, 540), (960, 540), (960, 540), (960, 540), (960, 540), (960, 540), (960, 540), (960, 540), (960, 540), (960, 540), (960, 540), (960, 540), (963, 543), (965, 544), (967, 546), (968, 546), (971, 550), (971, 552), (973, 555), (976, 558), (982, 570), (985, 579), (990, 592), (1001, 613), (1039, 688), (1069, 732), (1108, 775), (1144, 815), (1218, 873)]",52.23237870827766,"[9, 5, 2, 8, 7, 6, 1, 4, 3]","(0, 0.25)",CHN002D,CHN,D,English,Tue Aug 14 13:05:29 2018,Mouse
1,1,4,0,33,5,5,1,460,360,100,134,0,500,200,8000,"[(960, 540), (960, 540), (960, 540), (960, 540), (960, 540), (960, 540), (960, 540), (960, 540), (960, 540), (960, 540), (960, 540), (960, 540), (960, 540), (960, 540), (960, 540), (960, 540), (960, 540), (960, 540), (960, 540), (960, 540), (960, 540), (960, 540), (960, 540), (960, 540), (960, 540), (960, 540), (960, 540), (960, 540), (960, 540), (960, 540), (960, 540), (960, 540), (960, 540), (960, 540), (960, 540), (960, 543), (960, 547), (965, 560), (988, 606), (1009, 644), (1037, 688), (1061, 720), (1123, 794), (1152, 828), (1179, 857), (1207, 889)]",54.71156818123903,"[9, 5, 2, 8, 7, 6, 1, 4, 3]","(0, 0.25)",CHN002D,CHN,D,English,Tue Aug 14 13:05:29 2018,Mouse
1,1,4,0,34,8,4,0,-709,629,80,134,0,500,200,8000,"[(960, 540), (960, 540), (960, 540), (960, 540), (960, 540), (960, 540), (960, 540), (960, 540), (960, 540), (960, 540), (960, 540), (960, 540), (960, 540), (960, 540), (960, 540), (960, 540), (960, 540), (960, 540), (960, 540), (960, 540), (960, 540), (960, 540), (960, 540), (960, 540), (960, 540), (960, 540), (960, 540), (960, 540), (960, 540), (960, 540), (960, 540), (960, 540), (960, 540), (960, 540), (960, 540), (960, 540), (960, 540), (960, 540), (960, 540), (960, 540), (960, 540), (960, 540), (960, 540), (960, 540), (960, 540), (960, 540), (960, 540), (960, 540), (960, 540), (960, 540), (960, 540), (960, 540), (960, 540), (960, 540), (960, 540), (960, 540), (960, 540), (960, 540), (960, 540), (960, 540), (960, 540), (960, 540), (960, 538), (972, 524), (985, 510), (1001, 488), (1018, 463), (1081, 353), (1111, 291), (1136, 229), (1153, 165)]",297.23337036138605,"[9, 5, 2, 8, 7, 6, 1, 4, 3]","(0, 0.25)",CHN002D,CHN,D,English,Tue Aug 14 13:05:29 2018,Mouse
1,1,4,0,35,9,9,1,450,350,100,135,0,500,200,8000,"[(960, 540), (960, 540), (960, 540), (960, 540), (960, 540), (960, 540), (960, 540), (960, 540), (960, 540), (960, 540), (960, 540), (960, 540), (960, 540), (960, 540), (960, 540), (960, 540), (960, 540), (960, 540), (960, 540), (960, 540), (960, 540), (960, 540), (960, 540), (960, 540), (960, 540), (960, 540), (960, 540), (960, 540), (960, 540), (960, 540), (960, 540), (960, 540), (960, 540), (960, 540), (960, 542), (960, 544), (960, 544), (962, 545), (977, 550), (995, 555), (1031, 566), (1092, 580), (1237, 636), (1313, 667), (1380, 700)]",20.854458039578347,"[9, 5, 2, 8, 7, 6, 1, 4, 3]","(0, 0.25)",CHN002D,CHN,D,English,Tue Aug 14 13:05:29 2018,Mouse
1,1,4,0,36,2,3,0,-1329,1269,60,135,0,500,200,8000,"[(960, 540), (960, 540), (960, 540), (960, 540), (960, 540), (960, 540), (960, 540), (960, 540), (960, 540), (960, 540), (960, 540), (960, 540), (960, 540), (960, 540), (960, 540), (960, 540), (960, 540), (960, 540), (960, 540), (960, 540), (960, 540), (960, 540), (960, 540), (960, 540), (960, 540), (960, 540), (960, 540), (960, 540), (960, 540), (960, 540), (960, 540), (960, 540), (960, 540), (960, 540), (960, 540), (960, 540), (960, 540), (960, 540), (960, 540), (960, 540), (960, 540), (960, 540), (960, 540), (960, 540), (960, 540), (960, 540), (960, 540), (960, 540), (960, 540), (960, 540), (960, 540), (960, 540), (960, 540), (960, 540), (960, 540), (960, 540), (960, 540), (960, 540), (960, 540), (960, 540), (960, 540), (960, 540), (960, 540), (960, 540), (960, 540), (960, 540), (960, 540), (960, 540), (960, 540), (960, 540), (960, 540), (960, 540), (960, 540), (960, 540), (960, 540), (960, 540), (960, 540), (960, 540), (960, 540), (960, 540), (960, 540), (960, 540), (960, 540), (960, 540), (960, 540), (960, 540), (960, 540), (960, 540), (960, 540), (960, 540), (960, 540), (960, 540), (960, 540), (960, 540), (960, 540), (960, 540), (960, 540), (960, 540), (960, 540), (960, 540), (960, 540), (960, 540), (960, 540), (960, 540), (960, 540), (960, 540), (960, 540), (960, 540), (960, 540), (960, 540), (960, 540), (960, 540), (960, 540), (960, 540), (960, 540), (960, 540), (960, 540), (960, 540), (960, 540), (960, 540), (960, 540), (960, 540), (960, 540), (960, 540), (960, 540), (960, 540), (968, 534), (984, 524), (1034, 487), (1074, 457), (1134, 423), (1194, 388), (1323, 316)]",328.32209904303954,"[9, 5, 2, 8, 7, 6, 1, 4, 3]","(0, 0.25)",CHN002D,CHN,D,English,Tue Aug 14 13:05:29 2018,Mouse
1,1,4,0,37,1,1,1,349,149,200,136,0,500,200,8000,"[(960, 540), (960, 540), (960, 540), (960, 540), (960, 540), (960, 540), (960, 540), (960, 540), (960, 540), (960, 540), (960, 540), (960, 540), (960, 540), (960, 540), (958, 540), (956, 538), (954, 537), (953, 536), (951, 533), (948, 530), (946, 526), (944, 520), (943, 516), (938, 500), (936, 493), (932, 480), (929, 466), (914, 418), (905, 385), (894, 344), (882, 299), (858, 224), (855, 198), (850, 168), (847, 142)]",254.14971652750245,"[9, 5, 2, 8, 7, 6, 1, 4, 3]","(0, 0.25)",CHN002D,CHN,D,English,Tue Aug 14 13:05:29 2018,Mouse
1,1,4,0,38,9,9,1,319,59,260,136,0,500,200,8000,"[(960, 540), (960, 540), (960, 540), (960, 540), (960, 540), (961, 540), (961, 540), (961, 540), (961, 540), (961, 540), (961, 540), (961, 540), (961, 540), (961, 540), (961, 540), (961, 540), (961, 540), (961, 540), (961, 540), (963, 540), (966, 540), (969, 541), (975, 542), (987, 546), (995, 549), (1006, 552), (1017, 556), (1061, 566), (1095, 579), (1147, 593), (1203, 609), (1360, 656)]",16.17215901578255,"[9, 5, 2, 8, 7, 6, 1, 4, 3]","(0, 0.25)",CHN002D,CHN,D,English,Tue Aug 14 13:05:29 2018,Mouse
1,1,4,0,39,8,8,1,831,671,160,135,0,500,200,8000,"[(960, 540), (960, 540), (960, 540), (960, 540), (960, 540), (960, 540), (960, 540), (960, 540), (960, 540), (960, 540), (960, 540), (960, 540), (960, 540), (960, 540), (960, 540), (960, 540), (960, 540), (960, 540), (960, 540), (960, 540), (960, 540), (960, 540), (960, 540), (960, 540), (960, 540), (960, 540), (960, 540), (960, 540), (960, 540), (960, 540), (960, 540), (960, 540), (960, 540), (960, 540), (960, 540), (960, 540), (960, 540), (960, 540), (960, 540), (960, 540), (960, 540), (960, 540), (960, 540), (960, 540), (960, 540), (960, 540), (960, 540), (960, 540), (960, 540), (960, 540), (960, 540), (960, 540), (960, 540), (960, 540), (960, 540), (960, 540), (960, 540), (960, 540), (960, 540), (960, 540), (960, 540), (960, 540), (960, 540), (960, 540), (960, 540), (960, 540), (960, 540), (959, 540), (958, 541), (957, 541), (956, 541), (952, 543), (949, 546), (944, 550), (941, 553), (925, 575), (907, 595), (885, 619), (869, 637), (805, 693), (766, 725), (724, 753), (683, 778), (607, 818)]",141.77831568787184,"[9, 5, 2, 8, 7, 6, 1, 4, 3]","(0, 0.25)",CHN002D,CHN,D,English,Tue Aug 14 13:05:29 2018,Mouse
1,1,4,0,40,8,8,1,679,389,290,134,0,500,200,8000,"[(960, 540), (960, 540), (960, 540), (960, 540), (960, 540), (960, 540), (960, 540), (960, 540), (960, 540), (960, 540), (960, 540), (960, 540), (960, 540), (960, 540), (960, 540), (960, 540), (960, 540), (960, 540), (960, 540), (960, 540), (960, 540), (960, 540), (960, 540), (960, 540), (960, 540), (960, 540), (960, 540), (960, 540), (960, 540), (960, 540), (960, 540), (960, 540), (960, 540), (960, 540), (960, 540), (960, 540), (960, 540), (960, 540), (957, 540), (948, 529), (933, 508), (914, 483), (897, 460), (892, 454), (889, 449), (889, 448), (888, 447), (888, 447), (888, 447), (888, 447), (888, 447), (888, 447), (888, 447), (888, 447), (887, 447), (886, 450), (885, 455), (881, 462), (873, 478), (864, 493), (856, 511), (846, 530), (803, 589), (781, 622), (756, 656), (727, 695), (663, 767), (626, 798)]",142.3155253043963,"[9, 5, 2, 8, 7, 6, 1, 4, 3]","(0, 0.25)",CHN002D,CHN,D,English,Tue Aug 14 13:05:29 2018,Mouse
1,1,4,0,41,5,5,1,660,310,350,133,0,500,200,8000,"[(960, 540), (960, 540), (960, 540), (960, 540), (960, 540), (960, 540), (960, 540), (960, 540), (960, 540), (960, 540), (960, 540), (960, 540), (960, 540), (960, 540), (960, 540), (960, 540), (960, 540), (960, 540), (960, 540), (960, 540), (960, 540), (960, 540), (960, 540), (960, 540), (960, 540), (960, 540), (960, 540), (960, 540), (960, 540), (960, 540), (962, 540), (964, 540), (969, 543), (971, 545), (972, 546), (972, 546), (972, 546), (972, 546), (973, 546), (973, 546), (973, 546), (973, 546), (973, 546), (973, 546), (973, 546), (973, 546), (974, 547), (974, 548), (975, 551), (977, 553), (979, 557), (982, 562), (995, 585), (1007, 602), (1020, 622), (1040, 643), (1084, 684), (1105, 703), (1119, 719), (1134, 737), (1163, 776), (1172, 790), (1185, 808), (1194, 821), (1209, 845), (1214, 852)]",50.85087633272928,"[9, 5, 2, 8, 7, 6, 1, 4, 3]","(0, 0.25)",CHN002D,CHN,D,English,Tue Aug 14 13:05:29 2018,Mouse
1,1,4,0,42,8,9,0,-1700,1630,70,132,0,500,200,8000,"[(960, 540), (960, 540), (960, 540), (960, 540), (960, 540), (960, 540), (960, 540), (960, 540), (960, 540), (960, 540), (960, 540), (960, 540), (960, 540), (960, 540), (960, 540), (960, 540), (960, 540), (960, 540), (960, 540), (960, 540), (960, 540), (960, 540), (960, 540), (960, 540), (960, 540), (960, 540), (960, 540), (960, 540), (960, 540), (960, 540), (960, 540), (960, 540), (960, 540), (960, 540), (960, 540), (960, 540), (960, 540), (960, 540), (960, 540), (960, 540), (960, 540), (960, 540), (960, 540), (960, 540), (960, 540), (960, 540), (960, 540), (960, 540), (960, 540), (960, 540), (960, 540), (960, 540), (960, 540), (960, 540), (960, 540), (960, 540), (960, 540), (960, 540), (960, 540), (960, 540), (960, 540), (960, 540), (960, 540), (960, 540), (960, 540), (960, 540), (960, 540), (960, 540), (960, 540), (960, 540), (960, 540), (960, 540), (960, 540), (960, 540), (960, 540), (960, 540), (960, 540), (960, 540), (960, 540), (960, 540), (960, 540), (960, 540), (960, 540), (960, 540), (960, 540), (960, 540), (960, 540), (960, 540), (960, 540), (960, 540), (960, 540), (960, 540), (960, 540), (960, 540), (960, 540), (960, 540), (960, 540), (960, 540), (960, 540), (960, 540), (960, 540), (960, 540), (960, 540), (960, 540), (960, 540), (960, 540), (960, 540), (960, 540), (960, 540), (960, 540), (960, 540), (960, 540), (960, 540), (960, 540), (960, 540), (960, 540), (960, 540), (960, 540), (960, 540), (960, 540), (960, 540), (960, 540), (960, 540), (960, 540), (960, 540), (960, 540), (960, 540), (960, 540), (960, 540), (960, 540), (960, 540), (960, 540), (960, 540), (960, 540), (960, 540), (960, 540), (960, 540), (960, 540), (960, 540), (960, 540), (960, 540), (960, 540), (960, 540), (960, 540), (960, 540), (960, 540), (960, 540), (960, 540), (960, 540), (960, 540), (960, 540), (960, 540), (960, 540), (960, 540), (960, 540), (960, 540), (960, 540), (960, 540), (960, 540), (960, 540), (960, 540), (960, 540), (969, 540), (998, 555), (1047, 579), (1151, 639), (1208, 671), (1260, 700), (1314, 725), (1405, 765)]",26.8219812015815,"[9, 5, 2, 8, 7, 6, 1, 4, 3]","(0, 0.25)",CHN002D,CHN,D,English,Tue Aug 14 13:05:29 2018,Mouse
1,1,4,0,43,5,5,1,519,289,230,133,0,500,200,8000,"[(960, 540), (960, 540), (960, 540), (960, 540), (960, 540), (960, 540), (960, 540), (960, 540), (960, 540), (960, 540), (960, 540), (960, 540), (960, 540), (960, 540), (960, 540), (960, 540), (960, 540), (960, 540), (960, 540), (960, 540), (960, 540), (960, 540), (960, 540), (960, 540), (960, 540), (960, 540), (960, 540), (960, 540), (960, 541), (960, 543), (960, 545), (963, 549), (965, 551), (967, 553), (970, 557), (974, 561), (975, 563), (977, 565), (978, 566), (980, 571), (982, 572), (984, 576), (988, 581), (998, 598), (1007, 615), (1022, 638), (1038, 670), (1069, 741), (1084, 776), (1103, 819), (1120, 859), (1159, 942)]",63.66344523673552,"[9, 5, 2, 8, 7, 6, 1, 4, 3]","(0, 0.25)",CHN002D,CHN,D,English,Tue Aug 14 13:05:29 2018,Mouse
1,1,4,0,44,3,5,0,-400,320,80,133,0,500,200,8000,"[(960, 540), (960, 540), (960, 540), (960, 540), (960, 540), (960, 540), (960, 540), (960, 540), (960, 540), (960, 540), (960, 540), (960, 540), (960, 540), (960, 540), (960, 540), (960, 540), (960, 540), (960, 540), (960, 540), (960, 540), (960, 540), (960, 540), (960, 540), (960, 540), (960, 540), (960, 540), (960, 540), (960, 540), (960, 540), (960, 540), (960, 540), (960, 543), (960, 554), (968, 571), (1005, 654), (1031, 703), (1063, 755), (1104, 798), (1183, 862), (1216, 886)]",53.50283915585753,"[9, 5, 2, 8, 7, 6, 1, 4, 3]","(0, 0.25)",CHN002D,CHN,D,English,Tue Aug 14 13:05:29 2018,Mouse
1,1,4,0,45,9,9,1,331,191,140,134,0,500,200,8000,"[(960, 540), (960, 540), (960, 540), (960, 540), (960, 540), (960, 540), (960, 540), (960, 540), (960, 540), (960, 540), (960, 540), (960, 540), (960, 540), (960, 540), (960, 540), (960, 540), (960, 540), (960, 540), (960, 540), (960, 541), (960, 541), (961, 545), (971, 553), (974, 554), (983, 559), (990, 563), (1013, 572), (1034, 582), (1068, 594), (1110, 610), (1204, 635), (1254, 651), (1307, 672), (1356, 692)]",20.998719034387015,"[9, 5, 2, 8, 7, 6, 1, 4, 3]","(0, 0.25)",CHN002D,CHN,D,English,Tue Aug 14 13:05:29 2018,Mouse
1,1,4,0,46,3,5,0,-918,528,390,134,0,500,200,8000,"[(960, 540), (960, 540), (960, 540), (960, 540), (960, 540), (960, 540), (960, 540), (960, 540), (960, 540), (960, 540), (960, 540), (960, 540), (960, 540), (960, 540), (960, 540), (960, 540), (960, 540), (960, 540), (960, 540), (960, 540), (960, 540), (960, 540), (960, 540), (960, 540), (960, 540), (960, 540), (960, 540), (960, 540), (960, 540), (960, 540), (960, 540), (960, 540), (960, 540), (960, 540), (960, 540), (960, 540), (960, 540), (960, 540), (960, 540), (960, 540), (960, 540), (960, 540), (960, 540), (960, 540), (960, 540), (960, 540), (960, 540), (960, 540), (960, 540), (960, 540), (960, 540), (960, 540), (960, 541), (961, 543), (962, 546), (966, 551), (970, 555), (972, 559), (975, 561), (982, 570), (985, 572), (986, 573), (989, 574), (991, 576), (991, 576), (991, 576), (991, 576), (991, 576), (991, 576), (991, 576), (991, 576), (991, 576), (991, 576), (991, 576), (991, 576), (991, 576), (991, 576), (991, 576), (991, 576), (991, 576), (991, 576), (992, 577), (997, 580), (1019, 604), (1034, 629), (1055, 657), (1080, 693), (1123, 752), (1145, 783), (1162, 808), (1181, 836), (1218, 909)]",55.03925478715235,"[9, 5, 2, 8, 7, 6, 1, 4, 3]","(0, 0.25)",CHN002D,CHN,D,English,Tue Aug 14 13:05:29 2018,Mouse
1,1,4,0,47,7,7,1,300,130,170,135,0,500,200,8000,"[(960, 540), (960, 540), (960, 540), (960, 540), (960, 540), (960, 540), (960, 540), (960, 540), (960, 540), (960, 540), (960, 540), (960, 540), (957, 540), (954, 538), (953, 538), (953, 538), (953, 538), (951, 538), (951, 538), (950, 537), (950, 537), (942, 537), (929, 535), (910, 532), (867, 528), (767, 512), (713, 504), (653, 494), (591, 490), (468, 479)]",187.0676775844426,"[9, 5, 2, 8, 7, 6, 1, 4, 3]","(0, 0.25)",CHN002D,CHN,D,English,Tue Aug 14 13:05:29 2018,Mouse
1,1,4,0,48,6,1,0,-810,370,440,135,0,500,200,8000,"[(960, 540), (960, 540), (960, 540), (960, 540), (960, 540), (960, 540), (960, 540), (960, 540), (960, 540), (960, 540), (960, 540), (960, 540), (960, 540), (960, 540), (960, 540), (960, 540), (960, 540), (960, 540), (960, 540), (960, 540), (960, 540), (960, 540), (960, 540), (960, 540), (960, 540), (960, 540), (960, 540), (960, 540), (960, 540), (960, 540), (960, 540), (960, 540), (960, 540), (960, 540), (960, 540), (960, 540), (960, 543), (955, 549), (943, 564), (937, 572), (932, 578), (928, 583), (926, 585), (926, 586), (926, 586), (926, 586), (926, 586), (926, 586), (926, 586), (926, 586), (926, 586), (926, 586), (926, 586), (926, 586), (925, 584), (926, 582), (926, 581), (928, 576), (929, 576), (929, 576), (929, 576), (929, 575), (929, 575), (929, 575), (929, 575), (929, 575), (929, 575), (929, 575), (929, 575), (929, 575), (929, 575), (929, 575), (929, 575), (929, 569), (929, 538), (926, 503), (916, 457), (898, 399), (851, 273), (818, 207), (783, 145)]",245.86278833604672,"[9, 5, 2, 8, 7, 6, 1, 4, 3]","(0, 0.25)",CHN002D,CHN,D,English,Tue Aug 14 13:05:29 2018,Mouse
1,1,4,0,49,3,5,0,-619,199,420,136,0,500,200,8000,"[(960, 540), (960, 540), (960, 540), (960, 540), (960, 540), (960, 540), (960, 540), (960, 540), (960, 540), (960, 540), (960, 540), (960, 540), (960, 540), (960, 540), (960, 540), (960, 540), (960, 540), (960, 540), (960, 540), (962, 540), (963, 540), (970, 544), (977, 549), (986, 553), (997, 559), (1020, 566), (1031, 572), (1041, 577), (1047, 580), (1058, 586), (1061, 587), (1066, 591), (1069, 594), (1073, 599), (1074, 602), (1076, 606), (1077, 606), (1078, 611), (1079, 613), (1080, 614), (1080, 614), (1081, 616), (1082, 617), (1082, 617), (1082, 617), (1083, 618), (1083, 618), (1083, 618), (1084, 618), (1086, 620), (1092, 624), (1097, 628), (1103, 635), (1115, 657), (1120, 668), (1124, 679), (1126, 691), (1136, 724), (1141, 746), (1148, 781), (1155, 822), (1169, 925)]",61.50436138175502,"[9, 5, 2, 8, 7, 6, 1, 4, 3]","(0, 0.25)",CHN002D,CHN,D,English,Tue Aug 14 13:05:29 2018,Mouse
1,1,4,0,50,6,6,1,690,110,580,137,0,500,200,8000,"[(960, 540), (960, 540), (960, 540), (960, 540), (960, 540), (960, 540), (960, 540), (960, 540), (960, 540), (960, 540), (960, 539), (960, 539), (960, 539), (960, 539), (960, 539), (959, 538), (959, 538), (959, 538), (959, 538), (959, 538), (959, 538), (959, 538), (959, 538), (959, 538), (959, 538), (959, 538), (959, 537), (959, 537), (959, 537), (958, 537), (958, 537), (958, 537), (958, 537), (958, 537), (958, 537), (958, 537), (958, 537), (958, 537), (958, 537), (958, 537), (958, 537), (958, 537), (957, 536), (955, 535), (955, 535), (954, 535), (952, 534), (951, 533), (951, 533), (950, 533), (949, 533), (948, 533), (947, 532), (944, 531), (937, 528), (933, 528), (931, 526), (924, 525), (911, 518), (903, 512), (892, 504), (878, 490), (840, 443), (816, 412), (793, 374), (770, 345), (721, 275), (695, 244), (673, 220)]",228.1118636280039,"[9, 5, 2, 8, 7, 6, 1, 4, 3]","(0, 0.25)",CHN002D,CHN,D,English,Tue Aug 14 13:05:29 2018,Mouse
1,1,4,0,51,8,8,1,370,280,90,137,0,500,200,8000,"[(960, 540), (960, 540), (960, 540), (960, 540), (960, 540), (960, 540), (960, 540), (960, 540), (960, 540), (960, 540), (960, 540), (960, 540), (960, 540), (960, 540), (960, 540), (960, 540), (960, 540), (960, 540), (960, 540), (960, 540), (960, 540), (960, 540), (960, 540), (960, 540), (960, 540), (960, 540), (960, 540), (960, 541), (957, 544), (950, 548), (943, 554), (931, 564), (878, 614), (838, 648), (785, 684), (738, 717), (626, 780)]",144.3003786609991,"[9, 5, 2, 8, 7, 6, 1, 4, 3]","(0, 0.25)",CHN002D,CHN,D,English,Tue Aug 14 13:05:29 2018,Mouse
1,1,4,0,52,1,1,1,400,90,310,136,0,500,200,8000,"[(960, 540), (960, 540), (960, 540), (960, 540), (960, 540), (960, 540), (960, 540), (960, 540), (960, 539), (960, 537), (960, 534), (960, 533), (960, 531), (960, 529), (959, 527), (959, 527), (959, 527), (959, 527), (959, 527), (959, 527), (959, 527), (959, 527), (959, 527), (959, 527), (959, 527), (959, 527), (959, 527), (959, 527), (959, 527), (959, 527), (959, 527), (959, 527), (959, 527), (959, 525), (957, 512), (955, 493), (950, 458), (941, 393), (917, 227), (901, 137)]",261.6709547664834,"[9, 5, 2, 8, 7, 6, 1, 4, 3]","(0, 0.25)",CHN002D,CHN,D,English,Tue Aug 14 13:05:29 2018,Mouse
1,1,4,0,53,2,3,0,-600,470,130,135,0,500,200,8000,"[(960, 540), (960, 540), (960, 540), (960, 540), (960, 540), (960, 540), (960, 540), (960, 540), (960, 540), (960, 540), (960, 540), (960, 540), (960, 540), (960, 540), (960, 540), (960, 540), (960, 540), (960, 540), (960, 540), (960, 540), (960, 540), (960, 540), (960, 540), (960, 540), (960, 540), (960, 540), (960, 540), (960, 540), (960, 540), (960, 540), (960, 540), (960, 540), (960, 540), (960, 540), (960, 540), (960, 540), (960, 540), (960, 540), (960, 540), (960, 540), (960, 540), (960, 540), (960, 540), (960, 540), (960, 540), (960, 540), (960, 539), (960, 538), (963, 533), (965, 532), (972, 527), (982, 520), (1014, 497), (1042, 476), (1068, 453), (1107, 426), (1209, 359), (1247, 338), (1285, 319), (1310, 303)]",325.8963874411174,"[9, 5, 2, 8, 7, 6, 1, 4, 3]","(0, 0.25)",CHN002D,CHN,D,English,Tue Aug 14 13:05:29 2018,Mouse
1,1,4,0,54,8,6,0,-490,430,60,136,0,500,200,8000,"[(960, 540), (960, 540), (960, 540), (960, 540), (960, 540), (960, 540), (960, 540), (960, 540), (960, 540), (960, 540), (960, 540), (960, 540), (960, 540), (960, 540), (960, 540), (960, 540), (960, 540), (960, 540), (960, 540), (960, 540), (960, 540), (960, 540), (960, 540), (960, 540), (960, 540), (960, 540), (960, 540), (960, 540), (960, 540), (960, 540), (960, 540), (960, 540), (960, 540), (960, 540), (960, 540), (960, 540), (960, 540), (960, 540), (960, 540), (960, 540), (960, 540), (960, 540), (958, 533), (915, 489), (873, 459), (823, 422), (775, 387), (666, 303), (624, 271)]",218.68059772324779,"[9, 5, 2, 8, 7, 6, 1, 4, 3]","(0, 0.25)",CHN002D,CHN,D,English,Tue Aug 14 13:05:29 2018,Mouse
1,1,4,0,55,8,8,1,308,148,160,137,0,500,200,8000,"[(960, 540), (960, 540), (960, 540), (960, 540), (960, 540), (960, 540), (960, 540), (960, 540), (960, 540), (960, 540), (960, 540), (960, 540), (960, 540), (960, 540), (960, 541), (960, 541), (960, 541), (960, 542), (959, 542), (959, 543), (957, 543), (955, 545), (943, 550), (934, 557), (918, 568), (893, 585), (826, 636), (784, 666), (740, 694), (690, 722), (602, 778)]",146.38386247107215,"[9, 5, 2, 8, 7, 6, 1, 4, 3]","(0, 0.25)",CHN002D,CHN,D,English,Tue Aug 14 13:05:29 2018,Mouse
1,1,4,0,56,5,5,1,469,99,370,137,0,500,200,8000,"[(960, 540), (960, 540), (960, 540), (960, 540), (960, 540), (960, 540), (960, 540), (960, 540), (960, 540), (960, 541), (960, 542), (960, 543), (960, 544), (961, 544), (961, 545), (961, 546), (962, 547), (963, 548), (964, 550), (964, 550), (966, 552), (970, 554), (977, 558), (979, 558), (983, 560), (988, 563), (996, 567), (1002, 570), (1008, 574), (1011, 575), (1022, 582), (1026, 584), (1029, 587), (1031, 589), (1034, 595), (1034, 599), (1036, 606), (1038, 615), (1044, 645), (1047, 669), (1054, 699), (1061, 734), (1071, 801), (1080, 834), (1082, 860), (1092, 888), (1108, 942)]",69.7883514930878,"[9, 5, 2, 8, 7, 6, 1, 4, 3]","(0, 0.25)",CHN002D,CHN,D,English,Tue Aug 14 13:05:29 2018,Mouse
1,1,4,0,57,4,4,1,450,300,150,136,0,500,200,8000,"[(960, 540), (960, 540), (960, 540), (960, 540), (960, 540), (960, 540), (960, 540), (960, 540), (960, 540), (960, 540), (960, 540), (960, 540), (960, 540), (960, 540), (960, 540), (960, 540), (960, 540), (960, 540), (960, 540), (960, 540), (960, 540), (960, 540), (960, 540), (960, 540), (960, 540), (960, 540), (960, 540), (960, 540), (960, 540), (961, 539), (964, 533), (967, 530), (971, 525), (974, 520), (981, 506), (986, 499), (989, 490), (993, 479), (1006, 430), (1011, 387), (1017, 344), (1025, 301), (1050, 212), (1061, 168), (1075, 123)]",285.4177583540572,"[9, 5, 2, 8, 7, 6, 1, 4, 3]","(0, 0.25)",CHN002D,CHN,D,English,Tue Aug 14 13:05:29 2018,Mouse
1,1,4,0,58,2,2,1,981,371,610,135,0,500,200,8000,"[(960, 540), (960, 540), (960, 540), (960, 540), (960, 540), (960, 540), (960, 540), (960, 540), (960, 540), (960, 540), (960, 540), (960, 540), (960, 540), (960, 540), (960, 540), (960, 540), (960, 540), (960, 540), (960, 540), (960, 540), (960, 540), (960, 540), (960, 540), (960, 540), (960, 540), (960, 540), (960, 540), (960, 540), (960, 540), (960, 540), (960, 540), (960, 540), (960, 540), (960, 540), (960, 540), (960, 540), (960, 540), (964, 540), (965, 540), (966, 540), (967, 540), (972, 540), (974, 540), (977, 540), (981, 540), (998, 540), (1005, 540), (1016, 540), (1025, 538), (1049, 535), (1064, 534), (1081, 531), (1103, 527), (1148, 519), (1173, 513), (1198, 505), (1218, 498), (1239, 489), (1244, 485), (1247, 484), (1247, 483), (1247, 483), (1247, 483), (1247, 483), (1247, 483), (1247, 483), (1247, 483), (1247, 483), (1247, 483), (1247, 483), (1246, 482), (1243, 483), (1240, 483), (1233, 488), (1228, 490), (1222, 493), (1214, 495), (1196, 503), (1185, 506), (1178, 510), (1168, 514), (1147, 521), (1136, 525), (1125, 528), (1112, 531), (1084, 538), (1070, 543), (1048, 549), (1018, 560), (1001, 573), (978, 591), (957, 615), (933, 648), (883, 738), (863, 786), (852, 825), (845, 863), (843, 920), (843, 945)]",106.11341823308929,"[9, 5, 2, 8, 7, 6, 1, 4, 3]","(0, 0.25)",CHN002D,CHN,D,English,Tue Aug 14 13:05:29 2018,Mouse
1,1,4,0,59,6,8,0,-569,309,260,134,0,500,200,8000,"[(960, 540), (960, 540), (960, 540), (960, 540), (960, 540), (960, 540), (960, 540), (960, 540), (960, 540), (960, 540), (960, 540), (960, 540), (960, 540), (960, 540), (960, 540), (960, 540), (960, 540), (960, 540), (960, 540), (960, 540), (960, 540), (960, 540), (960, 540), (960, 540), (960, 540), (960, 540), (960, 540), (960, 540), (960, 540), (960, 540), (959, 540), (958, 540), (957, 540), (957, 540), (957, 540), (957, 540), (956, 540), (956, 540), (956, 540), (956, 540), (954, 540), (954, 540), (952, 540), (949, 540), (947, 540), (934, 546), (928, 549), (919, 552), (906, 558), (899, 560), (886, 566), (874, 572), (816, 611), (771, 645), (719, 695), (666, 742), (554, 851)]",142.5475294444806,"[9, 5, 2, 8, 7, 6, 1, 4, 3]","(0, 0.25)",CHN002D,CHN,D,English,Tue Aug 14 13:05:29 2018,Mouse
1,1,4,0,60,5,5,1,460,90,370,135,0,500,200,8000,"[(960, 540), (960, 540), (960, 540), (960, 540), (960, 540), (960, 540), (960, 540), (960, 540), (961, 540), (961, 540), (962, 540), (962, 540), (962, 540), (962, 540), (963, 540), (964, 540), (965, 540), (965, 540), (966, 542), (967, 542), (967, 543), (969, 543), (971, 545), (972, 546), (974, 548), (975, 549), (979, 552), (980, 553), (982, 554), (982, 555), (983, 556), (985, 557), (985, 558), (987, 559), (990, 564), (994, 567), (998, 572), (1003, 579), (1013, 595), (1016, 606), (1023, 623), (1033, 659), (1069, 754), (1103, 809), (1151, 863), (1197, 914)]",57.63798020385201,"[9, 5, 2, 8, 7, 6, 1, 4, 3]","(0, 0.25)",CHN002D,CHN,D,English,Tue Aug 14 13:05:29 2018,Mouse
1,1,4,0,61,3,2,0,-1369,489,880,135,0,500,200,8000,"[(960, 540), (960, 540), (960, 540), (960, 540), (960, 540), (960, 540), (960, 540), (960, 540), (960, 540), (960, 540), (960, 540), (960, 540), (960, 540), (960, 540), (960, 540), (960, 540), (960, 540), (960, 540), (960, 540), (960, 540), (960, 540), (960, 540), (960, 540), (960, 540), (960, 540), (960, 540), (960, 540), (960, 540), (960, 540), (960, 540), (960, 540), (960, 540), (960, 540), (960, 540), (960, 540), (960, 540), (960, 540), (960, 540), (960, 540), (960, 540), (960, 540), (960, 540), (960, 540), (960, 540), (960, 540), (960, 540), (960, 540), (960, 540), (963, 535), (967, 533), (969, 531), (974, 528), (989, 522), (1001, 520), (1019, 515), (1033, 510), (1074, 500), (1093, 490), (1102, 487), (1110, 481), (1128, 468), (1135, 462), (1140, 456), (1143, 453), (1147, 448), (1148, 447), (1148, 447), (1149, 446), (1149, 446), (1149, 446), (1149, 446), (1149, 446), (1149, 446), (1149, 446), (1149, 446), (1149, 446), (1149, 446), (1149, 446), (1149, 446), (1149, 446), (1148, 447), (1146, 450), (1141, 454), (1135, 459), (1117, 474), (1101, 488), (1075, 506), (1045, 526), (963, 573), (920, 595), (873, 623), (826, 651), (736, 704), (708, 723), (692, 739), (685, 746), (680, 754), (680, 754), (680, 754), (680, 754), (680, 754), (680, 754), (680, 754), (680, 754), (680, 755), (683, 755), (685, 754), (690, 753), (711, 741), (728, 730), (749, 719), (774, 705), (823, 675), (841, 660), (858, 645), (871, 634), (885, 616), (891, 610), (893, 606), (896, 603), (898, 599), (899, 599), (899, 599), (899, 599), (899, 599), (899, 599), (899, 599), (899, 599), (899, 625), (899, 650), (901, 684), (905, 727), (912, 795), (912, 826), (914, 863), (917, 897), (925, 953)]",94.84400037508068,"[9, 5, 2, 8, 7, 6, 1, 4, 3]","(0, 0.25)",CHN002D,CHN,D,English,Tue Aug 14 13:05:29 2018,Mouse
1,1,4,0,62,2,2,1,260,170,90,136,0,500,200,8000,"[(960, 540), (960, 540), (960, 540), (960, 540), (960, 540), (960, 540), (960, 540), (960, 540), (960, 540), (960, 540), (960, 540), (960, 540), (960, 540), (960, 540), (960, 540), (960, 540), (959, 544), (958, 550), (954, 563), (952, 573), (947, 587), (946, 610), (927, 732), (916, 819), (903, 912), (889, 1007)]",98.64472126527316,"[9, 5, 2, 8, 7, 6, 1, 4, 3]","(0, 0.25)",CHN002D,CHN,D,English,Tue Aug 14 13:05:29 2018,Mouse
1,1,4,0,63,2,2,1,120,40,80,136,0,500,200,8000,"[(960, 540), (960, 540), (960, 540), (960, 541), (960, 552), (959, 569), (956, 590), (948, 654), (940, 700), (932, 763), (923, 825), (902, 969)]",97.69959659483969,"[9, 5, 2, 8, 7, 6, 1, 4, 3]","(0, 0.25)",CHN002D,CHN,D,English,Tue Aug 14 13:05:29 2018,Mouse
1,1,4,0,64,7,7,1,1004,904,100,135,0,500,200,8000,"[(960, 540), (960, 540), (960, 540), (960, 540), (960, 540), (960, 540), (960, 540), (960, 540), (960, 540), (960, 540), (960, 540), (960, 540), (960, 540), (960, 540), (960, 540), (960, 540), (960, 540), (960, 540), (960, 540), (960, 540), (960, 540), (960, 540), (960, 540), (960, 540), (960, 540), (960, 540), (960, 540), (960, 540), (960, 540), (960, 540), (960, 540), (960, 540), (960, 540), (960, 540), (960, 540), (960, 540), (960, 540), (960, 540), (960, 540), (960, 540), (960, 540), (960, 540), (960, 540), (960, 540), (960, 540), (960, 540), (960, 540), (960, 540), (960, 540), (960, 540), (960, 540), (960, 540), (960, 540), (960, 540), (960, 540), (960, 540), (960, 540), (960, 540), (960, 540), (960, 540), (960, 540), (960, 540), (960, 540), (960, 540), (960, 540), (960, 540), (960, 540), (960, 540), (960, 540), (960, 540), (960, 540), (960, 540), (960, 540), (960, 540), (960, 540), (960, 540), (960, 540), (960, 540), (960, 540), (960, 540), (960, 540), (960, 540), (960, 540), (960, 540), (960, 540), (960, 540), (960, 540), (960, 540), (960, 540), (960, 540), (957, 541), (948, 541), (919, 541), (886, 541), (849, 541), (802, 541), (718, 536), (672, 530), (634, 525), (597, 521), (549, 514)]",183.61972711095513,"[9, 5, 2, 8, 7, 6, 1, 4, 3]","(0, 0.25)",CHN002D,CHN,D,English,Tue Aug 14 13:05:29 2018,Mouse
1,1,4,0,65,9,9,1,360,230,130,134,0,500,200,8000,"[(960, 540), (960, 540), (960, 540), (960, 540), (960, 540), (960, 540), (960, 540), (960, 540), (960, 540), (960, 540), (960, 540), (960, 540), (960, 540), (960, 540), (960, 540), (960, 540), (960, 540), (960, 540), (960, 540), (960, 540), (960, 540), (960, 540), (962, 541), (967, 543), (968, 545), (969, 545), (972, 547), (973, 549), (975, 550), (978, 553), (993, 563), (1010, 569), (1048, 580), (1117, 599), (1305, 655), (1421, 690)]",18.023831563776795,"[9, 5, 2, 8, 7, 6, 1, 4, 3]","(0, 0.25)",CHN002D,CHN,D,English,Tue Aug 14 13:05:29 2018,Mouse
1,1,4,0,66,9,9,1,649,579,70,133,0,500,200,8000,"[(960, 540), (960, 540), (960, 540), (960, 540), (960, 540), (960, 540), (960, 540), (960, 540), (960, 540), (960, 540), (960, 540), (960, 540), (960, 540), (960, 540), (960, 540), (960, 540), (960, 540), (960, 540), (960, 540), (960, 540), (960, 540), (960, 540), (960, 540), (960, 540), (960, 540), (960, 540), (960, 540), (960, 540), (960, 540), (960, 540), (960, 540), (960, 540), (960, 540), (960, 540), (960, 540), (960, 540), (960, 540), (960, 540), (960, 540), (960, 540), (960, 540), (960, 540), (960, 540), (960, 540), (960, 540), (960, 540), (960, 540), (960, 540), (960, 540), (960, 540), (960, 540), (960, 540), (960, 540), (960, 540), (960, 540), (960, 540), (960, 540), (960, 541), (971, 550), (992, 569), (1080, 623), (1142, 653), (1215, 689), (1293, 718), (1483, 796)]",26.080996968240463,"[9, 5, 2, 8, 7, 6, 1, 4, 3]","(0, 0.25)",CHN002D,CHN,D,English,Tue Aug 14 13:05:29 2018,Mouse
1,1,4,0,67,2,2,1,619,519,100,132,0,500,200,8000,"[(960, 540), (960, 540), (960, 540), (960, 540), (960, 540), (960, 540), (960, 540), (960, 540), (960, 540), (960, 540), (960, 540), (960, 540), (960, 540), (960, 540), (960, 540), (960, 540), (960, 540), (960, 540), (960, 540), (960, 540), (960, 540), (960, 540), (960, 540), (960, 540), (960, 540), (960, 540), (960, 540), (960, 540), (960, 540), (960, 540), (960, 540), (960, 540), (960, 540), (960, 540), (960, 540), (960, 540), (960, 540), (960, 540), (960, 540), (960, 540), (960, 540), (960, 540), (960, 540), (960, 540), (960, 540), (960, 540), (960, 540), (960, 540), (960, 540), (960, 540), (960, 540), (959, 541), (958, 543), (957, 544), (955, 547), (950, 562), (949, 579), (941, 617), (933, 674), (909, 845), (900, 927), (889, 1011)]",98.57240065468984,"[9, 5, 2, 8, 7, 6, 1, 4, 3]","(0, 0.25)",CHN002D,CHN,D,English,Tue Aug 14 13:05:29 2018,Mouse
1,1,4,0,68,5,5,1,529,449,80,131,0,500,200,8000,"[(960, 540), (960, 540), (960, 540), (960, 540), (960, 540), (960, 540), (960, 540), (960, 540), (960, 540), (960, 540), (960, 540), (960, 540), (960, 540), (960, 540), (960, 540), (960, 540), (960, 540), (960, 540), (960, 540), (960, 540), (960, 540), (960, 540), (960, 540), (960, 540), (960, 540), (960, 540), (960, 540), (960, 540), (960, 540), (960, 540), (960, 540), (960, 540), (960, 540), (960, 540), (960, 540), (960, 540), (960, 540), (960, 540), (960, 540), (960, 540), (960, 540), (960, 540), (960, 540), (960, 540), (965, 553), (975, 579), (994, 622), (1017, 660), (1075, 744), (1106, 783), (1132, 815), (1152, 848), (1176, 903)]",59.245605920441385,"[9, 5, 2, 8, 7, 6, 1, 4, 3]","(0, 0.25)",CHN002D,CHN,D,English,Tue Aug 14 13:05:29 2018,Mouse
1,1,4,0,69,6,9,0,-879,809,70,130,0,500,200,8000,"[(960, 540), (960, 540), (960, 540), (960, 540), (960, 540), (960, 540), (960, 540), (960, 540), (960, 540), (960, 540), (960, 540), (960, 540), (960, 540), (960, 540), (960, 540), (960, 540), (960, 540), (960, 540), (960, 540), (960, 540), (960, 540), (960, 540), (960, 540), (960, 540), (960, 540), (960, 540), (960, 540), (960, 540), (960, 540), (960, 540), (960, 540), (960, 540), (960, 540), (960, 540), (960, 540), (960, 540), (960, 540), (960, 540), (960, 540), (960, 540), (960, 540), (960, 540), (960, 540), (960, 540), (960, 540), (960, 540), (960, 540), (960, 540), (960, 540), (960, 540), (960, 540), (960, 540), (960, 540), (960, 540), (960, 540), (960, 540), (960, 540), (960, 540), (960, 540), (960, 540), (960, 540), (960, 540), (960, 540), (960, 540), (960, 540), (960, 540), (960, 540), (960, 540), (960, 540), (960, 540), (960, 540), (960, 540), (960, 540), (960, 540), (960, 540), (960, 540), (960, 540), (960, 540), (960, 540), (960, 540), (960, 542), (964, 546), (1018, 570), (1066, 588), (1117, 608), (1175, 624), (1301, 674), (1360, 697)]",21.430007301752383,"[9, 5, 2, 8, 7, 6, 1, 4, 3]","(0, 0.25)",CHN002D,CHN,D,English,Tue Aug 14 13:05:29 2018,Mouse
1,1,4,0,70,8,8,1,530,60,470,131,0,500,200,8000,"[(960, 540), (960, 540), (960, 540), (960, 540), (960, 540), (960, 541), (958, 543), (958, 543), (955, 545), (952, 547), (951, 547), (951, 547), (951, 547), (951, 548), (951, 548), (951, 548), (951, 548), (951, 548), (951, 548), (951, 548), (951, 548), (951, 548), (951, 548), (951, 548), (951, 548), (951, 548), (949, 548), (949, 548), (948, 548), (947, 549), (946, 550), (946, 550), (946, 550), (946, 550), (945, 551), (945, 551), (945, 551), (945, 551), (945, 551), (944, 552), (944, 552), (943, 553), (941, 554), (938, 558), (932, 563), (916, 582), (899, 600), (880, 626), (853, 662), (789, 737), (749, 773), (709, 805), (674, 835)]",134.11252878477023,"[9, 5, 2, 8, 7, 6, 1, 4, 3]","(0, 0.25)",CHN002D,CHN,D,English,Tue Aug 14 13:05:29 2018,Mouse
1,1,4,0,71,4,4,1,719,549,170,131,0,500,200,8000,"[(960, 540), (960, 540), (960, 540), (960, 540), (960, 540), (960, 540), (960, 540), (960, 540), (960, 540), (960, 540), (960, 540), (960, 540), (960, 540), (960, 540), (960, 540), (960, 540), (960, 540), (960, 540), (960, 540), (960, 540), (960, 540), (960, 540), (960, 540), (960, 540), (960, 540), (960, 540), (960, 540), (960, 540), (960, 540), (960, 540), (960, 540), (960, 540), (960, 540), (960, 540), (960, 540), (960, 540), (960, 540), (960, 540), (960, 540), (960, 540), (960, 540), (960, 540), (960, 540), (960, 540), (960, 540), (960, 540), (960, 540), (960, 540), (960, 540), (960, 540), (960, 540), (960, 540), (960, 540), (960, 540), (960, 537), (962, 522), (968, 509), (975, 492), (988, 461), (1027, 385), (1046, 353), (1066, 320), (1084, 294), (1117, 247), (1127, 234), (1135, 223), (1144, 214), (1157, 202), (1161, 199), (1164, 198), (1164, 197), (1167, 196)]",301.0371812413624,"[9, 5, 2, 8, 7, 6, 1, 4, 3]","(0, 0.25)",CHN002D,CHN,D,English,Tue Aug 14 13:05:29 2018,Mouse
1,1,4,0,72,4,5,0,-759,619,140,130,0,500,200,8000,"[(960, 540), (960, 540), (960, 540), (960, 540), (960, 540), (960, 540), (960, 540), (960, 540), (960, 540), (960, 540), (960, 540), (960, 540), (960, 540), (960, 540), (960, 540), (960, 540), (960, 540), (960, 540), (960, 540), (960, 540), (960, 540), (960, 540), (960, 540), (960, 540), (960, 540), (960, 540), (960, 540), (960, 540), (960, 540), (960, 540), (960, 540), (960, 540), (960, 540), (960, 540), (960, 540), (960, 540), (960, 540), (960, 540), (960, 540), (960, 540), (960, 540), (960, 540), (960, 540), (960, 540), (960, 540), (960, 540), (960, 540), (960, 540), (960, 540), (960, 540), (960, 540), (960, 540), (960, 540), (960, 540), (960, 540), (960, 540), (960, 540), (960, 540), (960, 540), (960, 540), (960, 540), (967, 540), (972, 540), (979, 542), (985, 543), (1001, 557), (1012, 573), (1023, 596), (1037, 628), (1065, 702), (1076, 731), (1091, 765), (1103, 796), (1131, 855), (1143, 884), (1160, 911)]",61.67162293795899,"[9, 5, 2, 8, 7, 6, 1, 4, 3]","(0, 0.25)",CHN002D,CHN,D,English,Tue Aug 14 13:05:29 2018,Mouse
1,1,4,0,73,6,7,0,-368,308,60,131,0,500,200,8000,"[(960, 540), (960, 540), (960, 540), (960, 540), (960, 540), (960, 540), (960, 540), (960, 540), (960, 540), (960, 540), (960, 540), (960, 540), (960, 540), (960, 540), (960, 540), (960, 540), (960, 540), (960, 540), (960, 540), (960, 540), (960, 540), (960, 540), (960, 540), (960, 540), (960, 540), (960, 540), (960, 540), (960, 540), (960, 540), (960, 540), (955, 540), (945, 540), (922, 540), (808, 540), (720, 543), (628, 547), (531, 552)]",178.39773865372902,"[9, 5, 2, 8, 7, 6, 1, 4, 3]","(0, 0.25)",CHN002D,CHN,D,English,Tue Aug 14 13:05:29 2018,Mouse
1,1,4,0,74,5,5,1,459,319,140,132,0,500,200,8000,"[(960, 540), (960, 540), (960, 540), (960, 540), (960, 540), (960, 540), (960, 540), (960, 540), (960, 540), (960, 540), (960, 540), (960, 540), (960, 540), (960, 540), (960, 540), (960, 540), (960, 540), (960, 540), (960, 540), (960, 540), (960, 540), (960, 540), (960, 540), (960, 540), (960, 540), (960, 540), (960, 540), (960, 540), (960, 540), (960, 540), (960, 540), (960, 541), (961, 544), (963, 546), (964, 547), (969, 553), (973, 557), (975, 559), (978, 565), (994, 592), (1006, 620), (1022, 671), (1045, 724), (1085, 849), (1106, 911), (1129, 962)]",68.17518537626007,"[9, 5, 2, 8, 7, 6, 1, 4, 3]","(0, 0.25)",CHN002D,CHN,D,English,Tue Aug 14 13:05:29 2018,Mouse
1,1,4,0,75,7,7,1,259,209,50,132,0,500,200,8000,"[(960, 540), (960, 540), (960, 540), (960, 540), (960, 540), (960, 540), (960, 540), (960, 540), (960, 540), (960, 540), (960, 540), (960, 540), (960, 540), (960, 540), (960, 540), (960, 540), (960, 540), (960, 540), (960, 540), (960, 540), (947, 548), (923, 555), (877, 558), (785, 572), (586, 595), (501, 613)]",170.963284173004,"[9, 5, 2, 8, 7, 6, 1, 4, 3]","(0, 0.25)",CHN002D,CHN,D,English,Tue Aug 14 13:05:29 2018,Mouse
1,1,4,0,76,7,2,0,-1710,1650,60,131,0,500,200,8000,"[(960, 540), (960, 540), (960, 540), (960, 540), (960, 540), (960, 540), (960, 540), (960, 540), (960, 540), (960, 540), (960, 540), (960, 540), (960, 540), (960, 540), (960, 540), (960, 540), (960, 540), (960, 540), (960, 540), (960, 540), (960, 540), (960, 540), (960, 540), (960, 540), (960, 540), (960, 540), (960, 540), (960, 540), (960, 540), (960, 540), (960, 540), (960, 540), (960, 540), (960, 540), (960, 540), (960, 540), (960, 540), (960, 540), (960, 540), (960, 540), (960, 540), (960, 540), (960, 540), (960, 540), (960, 540), (960, 540), (960, 540), (960, 540), (960, 540), (960, 540), (960, 540), (960, 540), (960, 540), (960, 540), (960, 540), (960, 540), (960, 540), (960, 540), (960, 540), (960, 540), (960, 540), (960, 540), (960, 540), (960, 540), (960, 540), (960, 540), (960, 540), (960, 540), (960, 540), (960, 540), (960, 540), (960, 540), (960, 540), (960, 540), (960, 540), (960, 540), (960, 540), (960, 540), (960, 540), (960, 540), (960, 540), (960, 540), (960, 540), (960, 540), (960, 540), (960, 540), (960, 540), (960, 540), (960, 540), (960, 540), (960, 540), (960, 540), (960, 540), (960, 540), (960, 540), (960, 540), (960, 540), (960, 540), (960, 540), (960, 540), (960, 540), (960, 540), (960, 540), (960, 540), (960, 540), (960, 540), (960, 540), (960, 540), (960, 540), (960, 540), (960, 540), (960, 540), (960, 540), (960, 540), (960, 540), (960, 540), (960, 540), (960, 540), (960, 540), (960, 540), (960, 540), (960, 540), (960, 540), (960, 540), (960, 540), (960, 540), (960, 540), (960, 540), (960, 540), (960, 540), (960, 540), (960, 540), (960, 540), (960, 540), (960, 540), (960, 540), (960, 540), (960, 540), (960, 540), (960, 540), (960, 540), (960, 540), (960, 540), (960, 540), (960, 540), (960, 540), (960, 540), (960, 540), (960, 540), (960, 540), (960, 540), (960, 540), (960, 540), (960, 540), (960, 540), (960, 540), (960, 540), (960, 540), (960, 540), (960, 540), (960, 540), (960, 540), (960, 540), (960, 540), (960, 550), (960, 623), (960, 676), (960, 731), (960, 792), (960, 895), (967, 941)]",88.9999258718773,"[9, 5, 2, 8, 7, 6, 1, 4, 3]","(0, 0.25)",CHN002D,CHN,D,English,Tue Aug 14 13:05:29 2018,Mouse
1,1,4,0,77,2,4,0,-539,459,80,132,0,500,200,8000,"[(960, 540), (960, 540), (960, 540), (960, 540), (960, 540), (960, 540), (960, 540), (960, 540), (960, 540), (960, 540), (960, 540), (960, 540), (960, 540), (960, 540), (960, 540), (960, 540), (960, 540), (960, 540), (960, 540), (960, 540), (960, 540), (960, 540), (960, 540), (960, 540), (960, 540), (960, 540), (960, 540), (960, 540), (960, 540), (960, 540), (960, 540), (960, 540), (960, 540), (960, 540), (960, 540), (960, 540), (960, 540), (960, 540), (960, 540), (960, 540), (960, 540), (960, 540), (960, 540), (960, 540), (960, 540), (962, 537), (967, 532), (975, 517), (992, 487), (1049, 376), (1075, 314), (1103, 249), (1128, 190), (1169, 88)]",294.8153199307681,"[9, 5, 2, 8, 7, 6, 1, 4, 3]","(0, 0.25)",CHN002D,CHN,D,English,Tue Aug 14 13:05:29 2018,Mouse
1,1,4,0,78,3,3,1,518,188,330,133,0,500,200,8000,"[(960, 540), (960, 540), (960, 540), (960, 540), (960, 540), (960, 540), (960, 540), (960, 540), (960, 540), (960, 540), (960, 540), (960, 540), (960, 540), (960, 540), (960, 540), (960, 540), (960, 540), (960, 540), (960, 542), (960, 542), (960, 542), (960, 542), (960, 542), (960, 542), (960, 542), (960, 542), (960, 542), (960, 542), (960, 542), (960, 542), (960, 542), (960, 542), (960, 542), (960, 542), (960, 542), (960, 542), (960, 542), (960, 542), (960, 542), (960, 542), (960, 542), (960, 542), (960, 542), (963, 543), (971, 542), (1006, 531), (1042, 520), (1091, 512), (1153, 506), (1272, 487), (1329, 479), (1376, 469)]",350.3144775984352,"[9, 5, 2, 8, 7, 6, 1, 4, 3]","(0, 0.25)",CHN002D,CHN,D,English,Tue Aug 14 13:05:29 2018,Mouse
1,1,4,0,79,1,7,0,-249,189,60,133,0,500,200,8000,"[(960, 540), (960, 540), (960, 540), (960, 540), (960, 540), (960, 540), (960, 540), (960, 540), (960, 540), (960, 540), (960, 540), (960, 540), (960, 540), (960, 540), (960, 540), (960, 540), (960, 540), (960, 540), (958, 541), (945, 543), (879, 546), (807, 546), (732, 546), (644, 546), (434, 546)]",179.3464643193222,"[9, 5, 2, 8, 7, 6, 1, 4, 3]","(0, 0.25)",CHN002D,CHN,D,English,Tue Aug 14 13:05:29 2018,Mouse
1,1,4,0,80,1,7,0,-618,558,60,134,0,500,200,8000,"[(960, 540), (960, 540), (960, 540), (960, 540), (960, 540), (960, 540), (960, 540), (960, 540), (960, 540), (960, 540), (960, 540), (960, 540), (960, 540), (960, 540), (960, 540), (960, 540), (960, 540), (960, 540), (960, 540), (960, 540), (960, 540), (960, 540), (960, 540), (960, 540), (960, 540), (960, 540), (960, 540), (960, 540), (960, 540), (960, 540), (960, 540), (960, 540), (960, 540), (960, 540), (960, 540), (960, 540), (960, 540), (960, 540), (960, 540), (960, 540), (960, 540), (960, 540), (960, 540), (960, 540), (960, 540), (960, 540), (960, 540), (960, 540), (960, 540), (960, 540), (960, 540), (960, 540), (960, 540), (960, 540), (960, 540), (957, 541), (946, 541), (926, 541), (881, 541), (728, 531), (638, 522), (551, 509)]",184.33442440270625,"[9, 5, 2, 8, 7, 6, 1, 4, 3]","(0, 0.25)",CHN002D,CHN,D,English,Tue Aug 14 13:05:29 2018,Mouse
1,1,4,0,81,5,5,1,330,90,240,135,0,500,200,8000,"[(960, 540), (960, 540), (960, 540), (960, 540), (960, 540), (960, 540), (960, 540), (960, 540), (964, 549), (966, 556), (972, 565), (975, 574), (983, 587), (990, 595), (993, 600), (998, 606), (1002, 612), (1005, 615), (1007, 619), (1009, 620), (1016, 627), (1021, 630), (1027, 635), (1037, 641), (1056, 650), (1066, 655), (1076, 663), (1084, 675), (1101, 715), (1110, 754), (1130, 802), (1155, 851), (1200, 953)]",59.8385376703151,"[9, 5, 2, 8, 7, 6, 1, 4, 3]","(0, 0.25)",CHN002D,CHN,D,English,Tue Aug 14 13:05:29 2018,Mouse
1,1,4,0,82,6,6,1,470,230,240,135,0,500,200,8000,"[(960, 540), (960, 540), (960, 540), (960, 540), (960, 540), (960, 540), (960, 540), (960, 540), (960, 540), (960, 540), (960, 540), (960, 540), (960, 540), (960, 540), (960, 540), (960, 540), (960, 540), (960, 540), (960, 540), (960, 540), (960, 540), (960, 540), (957, 540), (955, 540), (954, 540), (953, 540), (952, 539), (952, 537), (951, 536), (951, 535), (950, 534), (949, 533), (948, 532), (948, 530), (943, 527), (939, 524), (932, 516), (924, 507), (896, 475), (878, 458), (855, 440), (829, 420), (772, 375), (741, 351), (705, 327), (671, 302), (620, 265)]",218.9667469937993,"[9, 5, 2, 8, 7, 6, 1, 4, 3]","(0, 0.25)",CHN002D,CHN,D,English,Tue Aug 14 13:05:29 2018,Mouse
1,1,4,0,83,3,3,1,539,479,60,134,0,500,200,8000,"[(960, 540), (960, 540), (960, 540), (960, 540), (960, 540), (960, 540), (960, 540), (960, 540), (960, 540), (960, 540), (960, 540), (960, 540), (960, 540), (960, 540), (960, 540), (960, 540), (960, 540), (960, 540), (960, 540), (960, 540), (960, 540), (960, 540), (960, 540), (960, 540), (960, 540), (960, 540), (960, 540), (960, 540), (960, 540), (960, 540), (960, 540), (960, 540), (960, 540), (960, 540), (960, 540), (960, 540), (960, 540), (960, 540), (960, 540), (960, 540), (960, 540), (960, 540), (960, 540), (960, 540), (960, 540), (960, 540), (960, 540), (963, 538), (976, 533), (1010, 522), (1124, 487), (1201, 469), (1292, 446), (1375, 420)]",343.8724241740402,"[9, 5, 2, 8, 7, 6, 1, 4, 3]","(0, 0.25)",CHN002D,CHN,D,English,Tue Aug 14 13:05:29 2018,Mouse
1,1,4,0,84,9,9,1,339,129,210,133,0,500,200,8000,"[(960, 540), (960, 540), (960, 540), (960, 540), (960, 540), (960, 540), (960, 540), (960, 540), (960, 540), (960, 540), (960, 540), (960, 540), (960, 541), (960, 541), (960, 541), (960, 541), (960, 541), (960, 541), (961, 542), (961, 542), (961, 542), (961, 542), (962, 543), (963, 543), (964, 544), (969, 547), (982, 550), (993, 553), (1015, 557), (1052, 562), (1115, 571), (1251, 594), (1325, 609), (1394, 631)]",11.842076115327766,"[9, 5, 2, 8, 7, 6, 1, 4, 3]","(0, 0.25)",CHN002D,CHN,D,English,Tue Aug 14 13:05:29 2018,Mouse
1,1,4,0,85,7,3,0,-840,430,410,132,0,500,200,8000,"[(960, 540), (960, 540), (960, 540), (960, 540), (960, 540), (960, 540), (960, 540), (960, 540), (960, 540), (960, 540), (960, 540), (960, 540), (960, 540), (960, 540), (960, 540), (960, 540), (960, 540), (960, 540), (960, 540), (960, 540), (960, 540), (960, 540), (960, 540), (960, 540), (960, 540), (960, 540), (960, 540), (960, 540), (960, 540), (960, 540), (960, 540), (960, 540), (960, 540), (960, 540), (960, 540), (960, 540), (960, 540), (960, 540), (960, 540), (960, 540), (960, 540), (960, 540), (959, 540), (958, 541), (958, 541), (958, 541), (958, 541), (958, 541), (958, 541), (958, 541), (958, 541), (958, 541), (958, 541), (958, 541), (958, 541), (958, 541), (958, 541), (958, 541), (958, 541), (958, 541), (958, 541), (958, 541), (958, 541), (958, 541), (958, 541), (958, 541), (958, 541), (958, 541), (958, 541), (963, 537), (969, 535), (986, 524), (992, 522), (998, 519), (1004, 515), (1020, 509), (1027, 505), (1037, 502), (1049, 498), (1101, 470), (1142, 446), (1194, 415), (1244, 377), (1333, 321)]",329.58146836931996,"[9, 5, 2, 8, 7, 6, 1, 4, 3]","(0, 0.25)",CHN002D,CHN,D,English,Tue Aug 14 13:05:29 2018,Mouse
1,1,4,0,86,4,7,0,-498,238,260,133,0,500,200,8000,"[(960, 540), (960, 540), (960, 540), (960, 540), (960, 540), (960, 540), (960, 540), (960, 540), (960, 540), (960, 540), (960, 540), (960, 540), (960, 540), (960, 540), (960, 540), (960, 540), (960, 540), (960, 540), (960, 540), (960, 540), (960, 540), (960, 540), (960, 540), (959, 541), (958, 541), (957, 541), (955, 541), (954, 542), (951, 544), (948, 545), (944, 546), (929, 550), (919, 553), (906, 557), (897, 560), (863, 565), (848, 567), (828, 567), (805, 567), (758, 567), (738, 563), (716, 555), (696, 549), (669, 542), (658, 539), (647, 538), (635, 536), (596, 536), (562, 536), (507, 536)]",180.50590984970415,"[9, 5, 2, 8, 7, 6, 1, 4, 3]","(0, 0.25)",CHN002D,CHN,D,English,Tue Aug 14 13:05:29 2018,Mouse
1,1,4,0,87,9,5,0,-378,188,190,134,0,500,200,8000,"[(960, 540), (960, 540), (960, 540), (960, 540), (960, 540), (960, 540), (960, 540), (960, 540), (960, 540), (960, 540), (960, 540), (960, 540), (960, 540), (960, 540), (960, 540), (960, 540), (960, 540), (960, 540), (960, 541), (960, 547), (968, 571), (971, 581), (977, 593), (981, 601), (989, 616), (992, 621), (996, 626), (1000, 631), (1009, 644), (1014, 653), (1023, 668), (1029, 683), (1052, 724), (1070, 749), (1084, 769), (1109, 796), (1179, 849), (1212, 871)]",52.71691879912841,"[9, 5, 2, 8, 7, 6, 1, 4, 3]","(0, 0.25)",CHN002D,CHN,D,English,Tue Aug 14 13:05:29 2018,Mouse
1,1,4,0,88,3,3,1,541,331,210,135,0,500,200,8000,"[(960, 540), (960, 540), (960, 540), (960, 540), (960, 540), (960, 540), (960, 540), (960, 540), (960, 540), (960, 540), (960, 540), (960, 540), (960, 540), (960, 540), (960, 540), (960, 540), (960, 540), (960, 540), (960, 540), (960, 540), (960, 540), (960, 540), (960, 540), (960, 540), (960, 540), (960, 540), (960, 540), (960, 540), (960, 540), (960, 540), (960, 540), (960, 540), (960, 540), (958, 540), (958, 540), (957, 540), (957, 540), (957, 540), (957, 540), (957, 540), (957, 540), (957, 540), (957, 540), (957, 540), (957, 540), (957, 540), (957, 539), (960, 535), (966, 532), (978, 526), (1052, 505), (1123, 492), (1207, 479), (1306, 461), (1505, 436)]",349.19637972207033,"[9, 5, 2, 8, 7, 6, 1, 4, 3]","(0, 0.25)",CHN002D,CHN,D,English,Tue Aug 14 13:05:29 2018,Mouse
1,1,4,0,89,1,1,1,920,30,890,135,0,500,200,8000,"[(960, 540), (960, 540), (959, 540), (959, 540), (959, 540), (958, 540), (958, 540), (958, 540), (958, 540), (958, 540), (958, 540), (958, 540), (958, 540), (958, 540), (957, 540), (957, 540), (957, 540), (957, 540), (957, 540), (957, 540), (957, 540), (957, 540), (957, 540), (957, 540), (957, 540), (957, 540), (957, 540), (957, 540), (957, 540), (957, 540), (957, 540), (957, 540), (957, 540), (957, 540), (957, 540), (957, 540), (957, 540), (957, 540), (957, 540), (957, 540), (957, 540), (957, 540), (957, 540), (957, 540), (957, 540), (957, 540), (957, 540), (957, 540), (957, 540), (957, 540), (957, 540), (957, 540), (957, 540), (957, 540), (957, 540), (957, 540), (957, 540), (957, 540), (957, 540), (957, 540), (957, 540), (957, 540), (957, 540), (957, 540), (957, 540), (957, 540), (957, 540), (957, 540), (957, 540), (957, 540), (957, 540), (957, 540), (957, 540), (957, 540), (957, 540), (957, 540), (957, 540), (957, 540), (957, 540), (957, 540), (957, 540), (957, 540), (957, 540), (957, 540), (957, 540), (957, 540), (953, 539), (937, 510), (908, 455), (874, 395), (788, 247), (748, 170)]",240.1884569768679,"[9, 5, 2, 8, 7, 6, 1, 4, 3]","(0, 0.25)",CHN002D,CHN,D,English,Tue Aug 14 13:05:29 2018,Mouse
1,1,4,0,90,5,9,0,-380,30,350,134,0,500,200,8000,"[(960, 540), (960, 540), (960, 542), (960, 542), (960, 542), (960, 543), (960, 543), (960, 543), (960, 543), (960, 543), (960, 543), (960, 543), (960, 543), (960, 543), (960, 542), (960, 539), (959, 537), (959, 534), (959, 533), (959, 533), (959, 533), (959, 533), (959, 533), (959, 533), (959, 533), (959, 533), (959, 533), (959, 533), (962, 533), (990, 540), (1017, 547), (1058, 558), (1108, 572), (1216, 602), (1262, 610), (1303, 617), (1331, 619), (1377, 628)]",11.916353882552693,"[9, 5, 2, 8, 7, 6, 1, 4, 3]","(0, 0.25)",CHN002D,CHN,D,English,Tue Aug 14 13:05:29 2018,Mouse
1,1,4,0,91,6,1,0,-539,279,260,135,0,500,200,8000,"[(960, 540), (960, 540), (960, 540), (960, 540), (960, 540), (960, 540), (960, 540), (960, 540), (960, 540), (960, 540), (960, 540), (960, 540), (960, 540), (960, 540), (960, 540), (960, 540), (960, 540), (960, 540), (960, 540), (960, 540), (960, 540), (960, 540), (960, 540), (960, 540), (960, 540), (960, 540), (960, 540), (960, 541), (960, 541), (959, 542), (959, 542), (959, 542), (959, 542), (959, 542), (959, 542), (959, 542), (959, 542), (959, 542), (959, 542), (959, 542), (959, 542), (958, 542), (957, 542), (957, 541), (956, 536), (953, 515), (953, 494), (953, 461), (951, 413), (935, 316), (929, 267), (924, 222), (916, 181), (908, 122)]",262.9087267446724,"[9, 5, 2, 8, 7, 6, 1, 4, 3]","(0, 0.25)",CHN002D,CHN,D,English,Tue Aug 14 13:05:29 2018,Mouse
1,1,4,0,92,8,8,1,448,108,340,136,0,500,200,8000,"[(960, 540), (960, 540), (960, 540), (960, 540), (960, 540), (960, 540), (960, 540), (960, 540), (960, 540), (960, 540), (959, 540), (959, 540), (959, 540), (959, 540), (959, 540), (958, 540), (958, 540), (958, 540), (958, 540), (958, 540), (958, 540), (958, 540), (958, 540), (958, 540), (958, 540), (957, 540), (957, 540), (957, 540), (957, 540), (957, 540), (956, 540), (956, 540), (956, 540), (956, 540), (956, 540), (952, 540), (948, 543), (940, 548), (933, 554), (907, 570), (872, 590), (823, 615), (763, 647), (632, 721), (564, 754)]",151.61303337592315,"[9, 5, 2, 8, 7, 6, 1, 4, 3]","(0, 0.25)",CHN002D,CHN,D,English,Tue Aug 14 13:05:29 2018,Mouse
1,1,4,0,93,9,9,1,680,450,230,136,0,500,200,8000,"[(960, 540), (960, 540), (960, 540), (960, 540), (960, 540), (960, 540), (960, 540), (960, 540), (960, 540), (960, 540), (960, 540), (960, 540), (960, 540), (960, 540), (960, 540), (960, 540), (960, 540), (960, 540), (960, 540), (960, 540), (960, 540), (960, 540), (960, 540), (960, 540), (960, 540), (960, 540), (960, 540), (960, 540), (960, 540), (960, 540), (960, 540), (960, 540), (960, 540), (960, 540), (960, 540), (960, 540), (960, 540), (960, 540), (960, 540), (960, 540), (960, 540), (960, 540), (960, 540), (960, 540), (964, 540), (973, 543), (976, 544), (979, 545), (982, 546), (984, 547), (984, 547), (984, 547), (984, 547), (985, 548), (986, 548), (986, 548), (987, 549), (988, 550), (988, 550), (990, 551), (993, 551), (1000, 554), (1009, 555), (1024, 559), (1054, 562), (1192, 581), (1287, 592), (1399, 606)]",8.549911002256199,"[9, 5, 2, 8, 7, 6, 1, 4, 3]","(0, 0.25)",CHN002D,CHN,D,English,Tue Aug 14 13:05:29 2018,Mouse
1,1,4,0,94,4,4,1,380,109,271,135,0,500,200,8000,"[(960, 540), (960, 540), (960, 540), (960, 540), (960, 540), (960, 540), (960, 540), (960, 540), (960, 540), (960, 540), (961, 540), (962, 540), (963, 540), (965, 540), (966, 540), (966, 540), (968, 539), (969, 539), (969, 539), (970, 538), (977, 533), (981, 527), (983, 521), (989, 510), (999, 487), (1004, 471), (1010, 458), (1016, 446), (1027, 420), (1036, 406), (1047, 385), (1059, 363), (1089, 314), (1106, 287), (1125, 259), (1138, 241), (1166, 200), (1177, 183)]",301.2930389959202,"[9, 5, 2, 8, 7, 6, 1, 4, 3]","(0, 0.25)",CHN002D,CHN,D,English,Tue Aug 14 13:05:29 2018,Mouse
1,1,4,0,95,6,6,1,389,19,370,134,0,500,200,8000,"[(960, 540), (960, 541), (960, 541), (960, 541), (960, 541), (959, 542), (959, 542), (959, 542), (959, 542), (959, 542), (959, 542), (959, 542), (959, 542), (959, 542), (958, 543), (958, 543), (957, 544), (957, 544), (957, 544), (956, 544), (956, 545), (956, 545), (956, 545), (956, 545), (956, 545), (956, 545), (956, 545), (956, 545), (956, 545), (954, 542), (953, 539), (952, 535), (950, 526), (937, 495), (911, 451), (885, 405), (845, 357), (742, 253), (681, 212)]",229.61518711897685,"[9, 5, 2, 8, 7, 6, 1, 4, 3]","(0, 0.25)",CHN002D,CHN,D,English,Tue Aug 14 13:05:29 2018,Mouse
1,1,4,0,96,9,9,1,440,130,310,133,0,500,200,8000,"[(960, 540), (960, 540), (960, 540), (960, 540), (960, 540), (960, 540), (960, 540), (960, 540), (960, 540), (960, 540), (960, 540), (960, 540), (960, 541), (962, 543), (962, 543), (962, 543), (962, 543), (964, 543), (964, 543), (964, 543), (965, 543), (967, 543), (967, 543), (968, 543), (968, 543), (970, 543), (972, 543), (973, 543), (974, 544), (979, 544), (985, 544), (990, 544), (996, 544), (1008, 545), (1015, 547), (1019, 548), (1028, 550), (1046, 555), (1056, 558), (1070, 560), (1097, 565), (1202, 579), (1287, 590), (1374, 608)]",9.327614510667603,"[9, 5, 2, 8, 7, 6, 1, 4, 3]","(0, 0.25)",CHN002D,CHN,D,English,Tue Aug 14 13:05:29 2018,Mouse
1,1,4,0,97,1,7,0,-569,499,70,132,0,500,200,8000,"[(960, 540), (960, 540), (960, 540), (960, 540), (960, 540), (960, 540), (960, 540), (960, 540), (960, 540), (960, 540), (960, 540), (960, 540), (960, 540), (960, 540), (960, 540), (960, 540), (960, 540), (960, 540), (960, 540), (960, 540), (960, 540), (960, 540), (960, 540), (960, 540), (960, 540), (960, 540), (960, 540), (960, 540), (960, 540), (960, 540), (960, 540), (960, 540), (960, 540), (960, 540), (960, 540), (960, 540), (960, 540), (960, 540), (960, 540), (960, 540), (960, 540), (960, 540), (960, 540), (960, 540), (960, 540), (960, 540), (960, 540), (960, 540), (960, 540), (959, 540), (950, 540), (906, 540), (849, 534), (787, 525), (719, 515), (575, 495), (508, 491)]",186.18710647146145,"[9, 5, 2, 8, 7, 6, 1, 4, 3]","(0, 0.25)",CHN002D,CHN,D,English,Tue Aug 14 13:05:29 2018,Mouse
1,1,4,0,98,2,2,1,899,460,439,133,0,500,200,8000,"[(960, 540), (960, 540), (960, 540), (960, 540), (960, 540), (960, 540), (960, 540), (960, 540), (960, 540), (960, 540), (960, 540), (960, 540), (960, 540), (960, 540), (960, 540), (960, 540), (960, 540), (960, 540), (960, 540), (960, 540), (960, 540), (960, 540), (960, 540), (960, 540), (960, 540), (960, 540), (960, 540), (960, 540), (960, 540), (960, 540), (960, 540), (960, 540), (960, 540), (960, 540), (960, 540), (960, 540), (960, 540), (960, 540), (960, 540), (960, 540), (960, 540), (960, 540), (960, 540), (960, 540), (960, 540), (961, 540), (961, 540), (961, 540), (961, 540), (961, 540), (961, 540), (961, 540), (961, 540), (961, 540), (961, 540), (961, 540), (961, 540), (961, 540), (961, 540), (961, 540), (961, 540), (961, 540), (961, 540), (961, 540), (961, 540), (961, 540), (961, 540), (961, 540), (961, 540), (961, 540), (962, 540), (962, 540), (962, 541), (962, 541), (961, 542), (960, 543), (960, 543), (959, 544), (957, 546), (956, 548), (955, 554), (953, 564), (950, 600), (942, 635), (937, 675), (935, 720), (935, 826), (935, 873), (935, 923), (935, 964)]",93.3743821039314,"[9, 5, 2, 8, 7, 6, 1, 4, 3]","(0, 0.25)",CHN002D,CHN,D,English,Tue Aug 14 13:05:29 2018,Mouse
1,1,4,0,99,7,7,1,369,279,90,133,0,500,200,8000,"[(960, 540), (960, 540), (960, 540), (960, 540), (960, 540), (960, 540), (960, 540), (960, 540), (960, 540), (960, 540), (960, 540), (960, 540), (960, 540), (960, 540), (960, 540), (960, 540), (960, 540), (960, 540), (960, 540), (960, 540), (960, 540), (960, 540), (960, 540), (960, 540), (960, 540), (960, 540), (960, 540), (943, 541), (926, 542), (901, 544), (865, 544), (754, 544), (709, 544), (658, 537), (617, 530), (567, 524), (557, 523)]",182.41551146481288,"[9, 5, 2, 8, 7, 6, 1, 4, 3]","(0, 0.25)",CHN002D,CHN,D,English,Tue Aug 14 13:05:29 2018,Mouse
1,1,4,0,100,4,4,1,490,410,80,132,0,500,200,8000,"[(960, 540), (960, 540), (960, 540), (960, 540), (960, 540), (960, 540), (960, 540), (960, 540), (960, 540), (960, 540), (960, 540), (960, 540), (960, 540), (960, 540), (960, 540), (960, 540), (960, 540), (960, 540), (960, 540), (960, 540), (960, 540), (960, 540), (960, 540), (960, 540), (960, 540), (960, 540), (960, 540), (960, 540), (960, 540), (960, 540), (960, 540), (960, 540), (960, 540), (960, 540), (960, 540), (960, 540), (960, 540), (960, 540), (960, 540), (960, 540), (961, 540), (975, 531), (987, 523), (997, 507), (1012, 483), (1081, 380), (1118, 314), (1157, 254), (1185, 192)]",302.8847581975421,"[9, 5, 2, 8, 7, 6, 1, 4, 3]","(0, 0.25)",CHN002D,CHN,D,English,Tue Aug 14 13:05:29 2018,Mouse
1,1,4,0,101,3,2,0,-590,510,80,131,0,500,200,8000,"[(960, 540), (960, 540), (960, 540), (960, 540), (960, 540), (960, 540), (960, 540), (960, 540), (960, 540), (960, 540), (960, 540), (960, 540), (960, 540), (960, 540), (960, 540), (960, 540), (960, 540), (960, 540), (960, 540), (960, 540), (960, 540), (960, 540), (960, 540), (960, 540), (960, 540), (960, 540), (960, 540), (960, 540), (960, 540), (960, 540), (960, 540), (960, 540), (960, 540), (960, 540), (960, 540), (960, 540), (960, 540), (960, 540), (960, 540), (960, 540), (960, 540), (960, 540), (960, 540), (960, 540), (960, 540), (960, 540), (960, 540), (960, 540), (960, 540), (960, 540), (960, 546), (964, 581), (969, 611), (972, 645), (982, 697), (999, 822), (1009, 879), (1013, 932), (1022, 968)]",81.75747964848112,"[9, 5, 2, 8, 7, 6, 1, 4, 3]","(0, 0.25)",CHN002D,CHN,D,English,Tue Aug 14 13:05:29 2018,Mouse
1,1,4,0,102,2,3,0,-589,499,90,132,0,500,200,8000,"[(960, 540), (960, 540), (960, 540), (960, 540), (960, 540), (960, 540), (960, 540), (960, 540), (960, 540), (960, 540), (960, 540), (960, 540), (960, 540), (960, 540), (960, 540), (960, 540), (960, 540), (960, 540), (960, 540), (960, 540), (960, 540), (960, 540), (960, 540), (960, 540), (960, 540), (960, 540), (960, 540), (960, 540), (960, 540), (960, 540), (960, 540), (960, 540), (960, 540), (960, 540), (960, 540), (960, 540), (960, 540), (960, 540), (960, 540), (960, 540), (960, 540), (960, 540), (960, 540), (960, 540), (960, 540), (960, 540), (960, 540), (960, 540), (960, 540), (960, 541), (961, 541), (970, 539), (980, 533), (994, 530), (1016, 523), (1133, 504), (1223, 491), (1327, 477), (1433, 463)]",350.75388725443673,"[9, 5, 2, 8, 7, 6, 1, 4, 3]","(0, 0.25)",CHN002D,CHN,D,English,Tue Aug 14 13:05:29 2018,Mouse
1,1,4,0,103,1,2,0,-609,349,260,133,0,500,200,8000,"[(960, 540), (960, 540), (960, 540), (960, 540), (960, 540), (960, 540), (960, 540), (960, 540), (960, 540), (960, 540), (960, 540), (960, 540), (960, 540), (960, 540), (960, 540), (960, 540), (960, 540), (960, 540), (960, 540), (960, 540), (960, 540), (960, 540), (960, 540), (960, 540), (960, 540), (960, 540), (960, 540), (960, 540), (960, 540), (960, 540), (960, 540), (960, 540), (960, 540), (960, 540), (961, 540), (963, 540), (964, 540), (966, 540), (967, 540), (969, 539), (970, 539), (971, 538), (972, 538), (972, 538), (973, 537), (973, 537), (973, 537), (973, 537), (973, 537), (973, 537), (973, 537), (973, 543), (973, 551), (970, 570), (970, 665), (970, 723), (970, 784), (970, 834), (970, 903), (970, 926), (970, 946)]",88.58905917961727,"[9, 5, 2, 8, 7, 6, 1, 4, 3]","(0, 0.25)",CHN002D,CHN,D,English,Tue Aug 14 13:05:29 2018,Mouse
1,1,4,0,104,2,3,0,-540,480,60,134,0,500,200,8000,"[(960, 540), (960, 540), (960, 540), (960, 540), (960, 540), (960, 540), (960, 540), (960, 540), (960, 540), (960, 540), (960, 540), (960, 540), (960, 540), (960, 540), (960, 540), (960, 540), (960, 540), (960, 540), (960, 540), (960, 540), (960, 540), (960, 540), (960, 540), (960, 540), (960, 540), (960, 540), (960, 540), (960, 540), (960, 540), (960, 540), (960, 540), (960, 540), (960, 540), (960, 540), (960, 540), (960, 540), (960, 540), (960, 540), (960, 540), (960, 540), (960, 540), (960, 540), (960, 540), (960, 540), (960, 540), (960, 540), (960, 540), (961, 539), (972, 535), (986, 530), (1020, 519), (1080, 502), (1251, 457), (1364, 429)]",344.63693459284036,"[9, 5, 2, 8, 7, 6, 1, 4, 3]","(0, 0.25)",CHN002D,CHN,D,English,Tue Aug 14 13:05:29 2018,Mouse
1,1,4,0,105,7,7,1,308,158,150,135,0,500,200,8000,"[(960, 540), (960, 540), (960, 540), (960, 540), (960, 540), (960, 540), (960, 540), (960, 540), (960, 540), (960, 540), (960, 540), (960, 540), (960, 540), (960, 540), (960, 540), (959, 540), (959, 540), (959, 540), (958, 540), (958, 540), (958, 540), (958, 540), (958, 540), (958, 540), (955, 540), (950, 540), (911, 540), (866, 540), (788, 534), (706, 521), (532, 498)]",185.60453906239005,"[9, 5, 2, 8, 7, 6, 1, 4, 3]","(0, 0.25)",CHN002D,CHN,D,English,Tue Aug 14 13:05:29 2018,Mouse
1,1,4,0,106,9,9,1,610,270,340,135,0,500,200,8000,"[(960, 540), (960, 540), (960, 540), (960, 540), (960, 540), (960, 540), (960, 540), (960, 540), (960, 540), (960, 540), (960, 540), (960, 540), (960, 540), (960, 540), (960, 540), (960, 540), (960, 540), (960, 540), (960, 540), (960, 540), (960, 540), (960, 540), (960, 540), (960, 540), (960, 540), (960, 540), (959, 540), (959, 541), (959, 541), (959, 542), (961, 543), (961, 543), (965, 543), (968, 544), (981, 546), (988, 547), (994, 549), (1002, 550), (1012, 551), (1016, 552), (1019, 554), (1020, 554), (1021, 554), (1021, 554), (1021, 554), (1021, 554), (1021, 554), (1021, 554), (1021, 554), (1021, 554), (1021, 555), (1021, 555), (1023, 558), (1024, 558), (1030, 562), (1038, 568), (1055, 575), (1084, 589), (1187, 619), (1264, 641), (1351, 655)]",16.389540334034784,"[9, 5, 2, 8, 7, 6, 1, 4, 3]","(0, 0.25)",CHN002D,CHN,D,English,Tue Aug 14 13:05:29 2018,Mouse
1,1,4,0,107,1,7,0,-371,301,70,134,0,500,200,8000,"[(960, 540), (960, 540), (960, 540), (960, 540), (960, 540), (960, 540), (960, 540), (960, 540), (960, 540), (960, 540), (960, 540), (960, 540), (960, 540), (960, 540), (960, 540), (960, 540), (960, 540), (960, 540), (960, 540), (960, 540), (960, 540), (960, 540), (960, 540), (960, 540), (960, 540), (960, 540), (960, 540), (960, 540), (960, 540), (960, 540), (956, 540), (947, 540), (926, 540), (831, 534), (760, 523), (679, 517), (598, 508), (437, 486)]",185.89492790114446,"[9, 5, 2, 8, 7, 6, 1, 4, 3]","(0, 0.25)",CHN002D,CHN,D,English,Tue Aug 14 13:05:29 2018,Mouse
1,1,4,0,108,4,4,1,279,229,50,135,0,500,200,8000,"[(960, 540), (960, 540), (960, 540), (960, 540), (960, 540), (960, 540), (960, 540), (960, 540), (960, 540), (960, 540), (960, 540), (960, 540), (960, 540), (960, 540), (960, 540), (960, 540), (960, 540), (960, 540), (960, 540), (960, 540), (960, 540), (960, 540), (973, 519), (993, 489), (1026, 442), (1070, 378), (1159, 237), (1202, 179)]",303.83632318664826,"[9, 5, 2, 8, 7, 6, 1, 4, 3]","(0, 0.25)",CHN002D,CHN,D,English,Tue Aug 14 13:05:29 2018,Mouse
1,1,4,0,109,9,9,1,360,20,340,135,0,500,200,8000,"[(960, 540), (960, 542), (960, 542), (960, 542), (962, 543), (965, 543), (967, 543), (968, 543), (970, 543), (972, 543), (974, 543), (976, 543), (978, 543), (978, 543), (978, 543), (978, 543), (978, 543), (978, 543), (978, 543), (978, 543), (978, 543), (979, 543), (980, 543), (980, 543), (981, 543), (985, 546), (988, 549), (989, 550), (992, 551), (1000, 556), (1008, 560), (1026, 565), (1054, 573), (1196, 597), (1299, 611), (1425, 629)]",10.835247564203073,"[9, 5, 2, 8, 7, 6, 1, 4, 3]","(0, 0.25)",CHN002D,CHN,D,English,Tue Aug 14 13:05:29 2018,Mouse
1,1,4,0,110,2,2,1,960,580,380,134,0,500,200,8000,"[(960, 540), (960, 540), (960, 540), (960, 540), (960, 540), (960, 540), (960, 540), (960, 540), (960, 540), (960, 540), (960, 540), (960, 540), (960, 540), (960, 540), (960, 540), (960, 540), (960, 540), (960, 540), (960, 540), (960, 540), (960, 540), (960, 540), (960, 540), (960, 540), (960, 540), (960, 540), (960, 540), (960, 540), (960, 540), (960, 540), (960, 540), (960, 540), (960, 540), (960, 540), (960, 540), (960, 540), (960, 540), (960, 540), (960, 540), (960, 540), (960, 540), (960, 540), (960, 540), (960, 540), (960, 540), (960, 540), (960, 540), (960, 540), (960, 540), (960, 540), (960, 540), (960, 540), (960, 540), (960, 540), (960, 540), (960, 540), (960, 540), (961, 540), (962, 540), (965, 540), (965, 540), (965, 540), (965, 540), (965, 540), (965, 540), (965, 540), (965, 540), (965, 540), (965, 540), (965, 540), (965, 540), (965, 540), (965, 540), (965, 540), (965, 540), (965, 540), (965, 540), (965, 540), (965, 540), (965, 540), (965, 540), (965, 540), (965, 540), (964, 542), (960, 552), (956, 563), (950, 576), (940, 624), (939, 650), (939, 684), (939, 717), (939, 795), (939, 828), (941, 871), (948, 906), (968, 978)]",88.95361809290185,"[9, 5, 2, 8, 7, 6, 1, 4, 3]","(0, 0.25)",CHN002D,CHN,D,English,Tue Aug 14 13:05:29 2018,Mouse
1,1,4,0,111,8,8,1,428,308,120,133,0,500,200,8000,"[(960, 540), (960, 540), (960, 540), (960, 540), (960, 540), (960, 540), (960, 540), (960, 540), (960, 540), (960, 540), (960, 540), (960, 540), (960, 540), (960, 540), (960, 540), (960, 540), (960, 540), (960, 540), (960, 540), (960, 540), (960, 540), (960, 540), (960, 540), (960, 540), (960, 540), (960, 540), (960, 540), (960, 540), (960, 540), (960, 540), (959, 540), (958, 540), (957, 540), (956, 541), (955, 541), (942, 551), (925, 563), (891, 585), (846, 622), (735, 704), (690, 738), (650, 770), (610, 806)]",142.76516601842533,"[9, 5, 2, 8, 7, 6, 1, 4, 3]","(0, 0.25)",CHN002D,CHN,D,English,Tue Aug 14 13:05:29 2018,Mouse
1,1,4,0,112,5,7,0,-1879,1259,620,132,0,500,200,8000,"[(960, 540), (960, 540), (960, 540), (960, 540), (960, 540), (960, 540), (960, 540), (960, 540), (960, 540), (960, 540), (960, 540), (960, 540), (960, 540), (960, 540), (960, 540), (960, 540), (960, 540), (960, 540), (960, 540), (960, 540), (960, 540), (960, 540), (960, 540), (960, 540), (960, 540), (960, 540), (960, 540), (960, 540), (960, 540), (960, 540), (960, 540), (960, 540), (960, 540), (960, 540), (960, 540), (960, 540), (960, 540), (960, 540), (960, 540), (960, 540), (960, 540), (960, 540), (960, 540), (960, 540), (960, 540), (960, 540), (960, 540), (960, 540), (960, 540), (960, 540), (960, 540), (960, 540), (960, 540), (960, 540), (960, 540), (960, 540), (960, 540), (960, 540), (960, 540), (960, 540), (960, 540), (960, 540), (960, 540), (960, 540), (960, 540), (960, 540), (960, 540), (960, 540), (960, 540), (960, 540), (960, 540), (960, 540), (960, 540), (960, 540), (960, 540), (960, 540), (960, 540), (960, 540), (960, 540), (960, 540), (960, 540), (960, 540), (960, 540), (960, 540), (960, 540), (960, 540), (960, 540), (960, 540), (960, 540), (960, 540), (960, 540), (960, 540), (960, 540), (960, 540), (960, 540), (960, 540), (960, 540), (960, 540), (960, 540), (960, 540), (960, 540), (960, 540), (960, 540), (960, 540), (960, 540), (960, 540), (960, 540), (960, 540), (960, 540), (960, 540), (960, 540), (960, 540), (960, 540), (960, 540), (960, 540), (960, 540), (960, 540), (960, 540), (960, 540), (960, 540), (960, 540), (960, 540), (960, 540), (960, 540), (960, 540), (961, 540), (961, 543), (961, 553), (961, 557), (961, 561), (961, 564), (961, 569), (961, 570), (961, 571), (961, 572), (961, 572), (961, 572), (961, 572), (961, 572), (961, 572), (961, 572), (961, 572), (961, 572), (961, 572), (961, 572), (961, 573), (961, 573), (961, 573), (960, 573), (960, 573), (960, 573), (960, 573), (960, 573), (960, 573), (960, 573), (960, 573), (960, 573), (960, 573), (960, 573), (960, 573), (960, 573), (960, 573), (960, 573), (959, 573), (959, 573), (958, 572), (958, 572), (957, 570), (957, 570), (957, 569), (957, 569), (956, 568), (955, 568), (954, 567), (954, 567), (953, 566), (952, 566), (951, 566), (950, 565), (945, 565), (939, 563), (928, 562), (909, 560), (820, 545), (761, 539), (693, 528), (619, 518), (473, 498)]",184.92912343441768,"[9, 5, 2, 8, 7, 6, 1, 4, 3]","(0, 0.25)",CHN002D,CHN,D,English,Tue Aug 14 13:05:29 2018,Mouse
1,1,4,0,113,2,4,0,-621,571,50,133,0,500,200,8000,"[(960, 540), (960, 540), (960, 540), (960, 540), (960, 540), (960, 540), (960, 540), (960, 540), (960, 540), (960, 540), (960, 540), (960, 540), (960, 540), (960, 540), (960, 540), (960, 540), (960, 540), (960, 540), (960, 540), (960, 540), (960, 540), (960, 540), (960, 540), (960, 540), (960, 540), (960, 540), (960, 540), (960, 540), (960, 540), (960, 540), (960, 540), (960, 540), (960, 540), (960, 540), (960, 540), (960, 540), (960, 540), (960, 540), (960, 540), (960, 540), (960, 540), (960, 540), (960, 540), (960, 540), (960, 540), (960, 540), (960, 540), (960, 540), (960, 540), (960, 540), (960, 540), (960, 540), (960, 540), (960, 540), (960, 540), (960, 540), (960, 540), (960, 534), (976, 507), (1074, 391), (1131, 316), (1194, 222), (1255, 131)]",305.8018335022518,"[9, 5, 2, 8, 7, 6, 1, 4, 3]","(0, 0.25)",CHN002D,CHN,D,English,Tue Aug 14 13:05:29 2018,Mouse
