NativeLangNumber,LanuageNumber,SessionNumber,Block,TrialNum,ConditionNumber,Response,Accuracy,RT,MovementOnsetTime,TimeInMotion,SignalContrast,SignalContrastNumber,StimDisplayTime,MaskTime,MaxResponseTime,MousePositionXY,MouseAngle,WheelOrder,NoiseMuSigma,ParticipantID,LanuageTested,SessionTested,NativeLanuage,Date,ResponseDevice
2,1,4,0,1,4,4,1,823,163,660,153,0,500,200,8000,"[(512, 384), (512, 384), (512, 384), (512, 384), (512, 384), (512, 384), (512, 384), (512, 384), (512, 384), (512, 384), (512, 384), (512, 384), (512, 384), (512, 384), (512, 384), (512, 384), (512, 386), (507, 394), (504, 400), (500, 406), (495, 412), (486, 425), (482, 431), (477, 435), (474, 438), (468, 445), (464, 448), (460, 451), (455, 455), (443, 463), (436, 468), (425, 475), (415, 483), (388, 502), (373, 512), (362, 520), (354, 524), (350, 524), (350, 524), (350, 524), (350, 524), (350, 524), (350, 524), (350, 524), (350, 524), (350, 524), (350, 524), (352, 521), (355, 520), (363, 513), (366, 510), (369, 506), (371, 504), (373, 501), (373, 500), (373, 500), (373, 500), (374, 499), (374, 499), (375, 499), (375, 498), (376, 497), (376, 496), (376, 496), (377, 496), (377, 496), (377, 496), (377, 496), (377, 496), (379, 496), (380, 498), (383, 500), (386, 503), (392, 511), (394, 514), (397, 519), (403, 527), (408, 544), (411, 555), (415, 569), (416, 582), (417, 608), (418, 622)]",111.55193742204219,"[2, 6, 4, 3, 9, 5, 7, 1, 8]","(0, 0.25)",CHN002D,CHN,D,Chinese,Wed Sep 26 13:30:51 2018,Mouse
2,1,4,0,2,9,9,1,259,129,130,153,0,500,200,8000,"[(512, 384), (512, 384), (512, 384), (512, 384), (512, 384), (512, 384), (512, 384), (512, 384), (512, 384), (512, 384), (512, 384), (512, 384), (511, 384), (503, 384), (496, 384), (489, 384), (482, 383), (463, 382), (452, 379), (441, 376), (427, 374), (397, 370), (376, 369), (350, 367), (322, 367), (258, 366)]",184.0535542318314,"[2, 6, 4, 3, 9, 5, 7, 1, 8]","(0, 0.25)",CHN002D,CHN,D,Chinese,Wed Sep 26 13:30:51 2018,Mouse
2,1,4,0,3,1,1,1,447,347,100,152,0,500,200,8000,"[(512, 384), (512, 384), (512, 384), (512, 384), (512, 384), (512, 384), (512, 384), (512, 384), (512, 384), (512, 384), (512, 384), (512, 384), (512, 384), (512, 384), (512, 384), (512, 384), (512, 384), (512, 384), (512, 384), (512, 384), (512, 384), (512, 384), (512, 384), (512, 384), (512, 384), (512, 384), (512, 384), (512, 384), (512, 384), (512, 384), (512, 384), (512, 384), (512, 384), (512, 384), (516, 370), (522, 359), (530, 342), (538, 324), (559, 282), (570, 258), (583, 236), (594, 217), (619, 183), (632, 165), (643, 153)]",299.55755339993044,"[2, 6, 4, 3, 9, 5, 7, 1, 8]","(0, 0.25)",CHN002D,CHN,D,Chinese,Wed Sep 26 13:30:51 2018,Mouse
2,1,4,0,4,6,6,1,1007,697,310,151,0,500,200,8000,"[(512, 384), (512, 384), (512, 384), (512, 384), (512, 384), (512, 384), (512, 384), (512, 384), (512, 384), (512, 384), (512, 384), (512, 384), (512, 384), (512, 384), (512, 384), (512, 384), (512, 384), (512, 384), (512, 384), (512, 384), (512, 384), (512, 384), (512, 384), (512, 384), (512, 384), (512, 384), (512, 384), (512, 384), (512, 384), (512, 384), (512, 384), (512, 384), (512, 384), (512, 384), (512, 384), (512, 384), (512, 384), (512, 384), (512, 384), (512, 384), (512, 384), (512, 384), (512, 384), (512, 384), (512, 384), (512, 384), (512, 384), (512, 384), (512, 384), (512, 384), (512, 384), (512, 384), (512, 384), (512, 384), (512, 384), (512, 384), (512, 384), (512, 384), (512, 384), (512, 384), (512, 384), (512, 384), (512, 384), (512, 384), (512, 384), (512, 384), (512, 384), (512, 384), (512, 384), (512, 385), (517, 395), (524, 406), (541, 427), (547, 435), (551, 441), (555, 447), (564, 458), (570, 464), (577, 473), (587, 482), (608, 501), (616, 507), (621, 512), (624, 516), (627, 521), (629, 523), (632, 527), (632, 530), (635, 534), (635, 536), (636, 538), (636, 540), (637, 546), (638, 552), (640, 561), (641, 569), (642, 582), (643, 587), (643, 590), (643, 595), (645, 602)]",58.61297811561116,"[2, 6, 4, 3, 9, 5, 7, 1, 8]","(0, 0.25)",CHN002D,CHN,D,Chinese,Wed Sep 26 13:30:51 2018,Mouse
2,1,4,0,5,7,7,1,428,308,120,150,0,500,200,8000,"[(512, 384), (512, 384), (512, 384), (512, 384), (512, 384), (512, 384), (512, 384), (512, 384), (512, 384), (512, 384), (512, 384), (512, 384), (512, 384), (512, 384), (512, 384), (512, 384), (512, 384), (512, 384), (512, 384), (512, 384), (512, 384), (512, 384), (512, 384), (512, 384), (512, 384), (512, 384), (512, 384), (512, 384), (512, 384), (512, 384), (509, 376), (505, 369), (499, 357), (490, 338), (467, 298), (457, 277), (449, 261), (442, 248), (429, 218), (427, 205), (424, 193), (423, 179), (417, 142)]",248.56691545099568,"[2, 6, 4, 3, 9, 5, 7, 1, 8]","(0, 0.25)",CHN002D,CHN,D,Chinese,Wed Sep 26 13:30:51 2018,Mouse
2,1,4,0,6,8,8,1,378,268,110,149,0,500,200,8000,"[(512, 384), (512, 384), (512, 384), (512, 384), (512, 384), (512, 384), (512, 384), (512, 384), (512, 384), (512, 384), (512, 384), (512, 384), (512, 384), (512, 384), (512, 384), (512, 384), (512, 384), (512, 384), (512, 384), (512, 384), (512, 384), (512, 384), (512, 384), (512, 384), (512, 384), (512, 384), (516, 384), (524, 380), (532, 378), (545, 374), (574, 362), (589, 355), (611, 343), (631, 334), (676, 312), (702, 303), (728, 291), (747, 283)]",336.7425842713813,"[2, 6, 4, 3, 9, 5, 7, 1, 8]","(0, 0.25)",CHN002D,CHN,D,Chinese,Wed Sep 26 13:30:51 2018,Mouse
2,1,4,0,7,5,5,1,437,347,90,148,0,500,200,8000,"[(512, 384), (512, 384), (512, 384), (512, 384), (512, 384), (512, 384), (512, 384), (512, 384), (512, 384), (512, 384), (512, 384), (512, 384), (512, 384), (512, 384), (512, 384), (512, 384), (512, 384), (512, 384), (512, 384), (512, 384), (512, 384), (512, 384), (512, 384), (512, 384), (512, 384), (512, 384), (512, 384), (512, 384), (512, 384), (512, 384), (512, 384), (512, 384), (512, 384), (512, 384), (510, 381), (499, 362), (492, 353), (487, 343), (478, 330), (448, 292), (428, 271), (405, 249), (378, 224), (326, 178)]",227.9207215210004,"[2, 6, 4, 3, 9, 5, 7, 1, 8]","(0, 0.25)",CHN002D,CHN,D,Chinese,Wed Sep 26 13:30:51 2018,Mouse
2,1,4,0,8,1,1,1,368,278,90,147,0,500,200,8000,"[(512, 384), (512, 384), (512, 384), (512, 384), (512, 384), (512, 384), (512, 384), (512, 384), (512, 384), (512, 384), (512, 384), (512, 384), (512, 384), (512, 384), (512, 384), (512, 384), (512, 384), (512, 384), (512, 384), (512, 384), (512, 384), (512, 384), (512, 384), (512, 384), (512, 384), (512, 384), (512, 384), (513, 381), (519, 371), (525, 357), (542, 327), (549, 314), (558, 298), (567, 279), (593, 226), (614, 190), (633, 150)]",297.34321425475247,"[2, 6, 4, 3, 9, 5, 7, 1, 8]","(0, 0.25)",CHN002D,CHN,D,Chinese,Wed Sep 26 13:30:51 2018,Mouse
2,1,4,0,9,7,7,1,398,328,70,146,0,500,200,8000,"[(512, 384), (512, 384), (512, 384), (512, 384), (512, 384), (512, 384), (512, 384), (512, 384), (512, 384), (512, 384), (512, 384), (512, 384), (512, 384), (512, 384), (512, 384), (512, 384), (512, 384), (512, 384), (512, 384), (512, 384), (512, 384), (512, 384), (512, 384), (512, 384), (512, 384), (512, 384), (512, 384), (512, 384), (512, 384), (512, 384), (512, 384), (512, 384), (512, 377), (512, 356), (512, 331), (511, 300), (507, 237), (498, 196), (486, 149), (473, 110)]",261.8991749961385,"[2, 6, 4, 3, 9, 5, 7, 1, 8]","(0, 0.25)",CHN002D,CHN,D,Chinese,Wed Sep 26 13:30:51 2018,Mouse
2,1,4,0,10,8,8,1,237,137,100,145,0,500,200,8000,"[(512, 384), (512, 384), (512, 384), (512, 384), (512, 384), (512, 384), (512, 384), (512, 384), (512, 384), (512, 384), (512, 384), (512, 384), (512, 384), (517, 384), (525, 382), (554, 371), (575, 362), (599, 349), (626, 338), (672, 319), (690, 313), (706, 309), (724, 302), (760, 285)]",338.2384345819911,"[2, 6, 4, 3, 9, 5, 7, 1, 8]","(0, 0.25)",CHN002D,CHN,D,Chinese,Wed Sep 26 13:30:51 2018,Mouse
2,1,4,0,11,8,8,1,128,18,110,144,0,500,200,8000,"[(523, 383), (536, 381), (563, 375), (579, 371), (594, 366), (610, 363), (649, 351), (669, 346), (688, 342), (702, 338), (735, 335), (749, 335), (763, 332)]",348.29553511169365,"[2, 6, 4, 3, 9, 5, 7, 1, 8]","(0, 0.25)",CHN002D,CHN,D,Chinese,Wed Sep 26 13:30:51 2018,Mouse
2,1,4,0,12,3,3,1,618,528,90,143,0,500,200,8000,"[(512, 384), (512, 384), (512, 384), (512, 384), (512, 384), (512, 384), (512, 384), (512, 384), (512, 384), (512, 384), (512, 384), (512, 384), (512, 384), (512, 384), (512, 384), (512, 384), (512, 384), (512, 384), (512, 384), (512, 384), (512, 384), (512, 384), (512, 384), (512, 384), (512, 384), (512, 384), (512, 384), (512, 384), (512, 384), (512, 384), (512, 384), (512, 384), (512, 384), (512, 384), (512, 384), (512, 384), (512, 384), (512, 384), (512, 384), (512, 384), (512, 384), (512, 384), (512, 384), (512, 384), (512, 384), (512, 384), (512, 384), (512, 384), (512, 384), (512, 384), (512, 384), (512, 384), (504, 393), (491, 401), (474, 413), (453, 423), (418, 443), (391, 458), (371, 470), (350, 480), (305, 502), (284, 513)]",150.49927537650083,"[2, 6, 4, 3, 9, 5, 7, 1, 8]","(0, 0.25)",CHN002D,CHN,D,Chinese,Wed Sep 26 13:30:51 2018,Mouse
2,1,4,0,13,1,1,1,288,168,120,142,0,500,200,8000,"[(512, 384), (512, 384), (512, 384), (512, 384), (512, 384), (512, 384), (512, 384), (512, 384), (512, 384), (512, 384), (512, 384), (512, 384), (512, 384), (512, 384), (512, 384), (512, 384), (513, 382), (523, 364), (529, 357), (533, 348), (537, 338), (548, 319), (555, 310), (561, 302), (567, 292), (593, 257), (609, 232), (629, 202), (652, 173)]",303.5645567091868,"[2, 6, 4, 3, 9, 5, 7, 1, 8]","(0, 0.25)",CHN002D,CHN,D,Chinese,Wed Sep 26 13:30:51 2018,Mouse
2,1,4,0,14,7,7,1,278,178,100,141,0,500,200,8000,"[(512, 384), (512, 384), (512, 384), (512, 384), (512, 384), (512, 384), (512, 384), (512, 384), (512, 384), (512, 384), (512, 384), (512, 384), (512, 384), (512, 384), (512, 384), (512, 384), (512, 384), (512, 383), (512, 373), (512, 350), (511, 339), (509, 325), (507, 306), (497, 255), (490, 219), (487, 188), (482, 155), (474, 102)]",262.32552048310606,"[2, 6, 4, 3, 9, 5, 7, 1, 8]","(0, 0.25)",CHN002D,CHN,D,Chinese,Wed Sep 26 13:30:51 2018,Mouse
2,1,4,0,15,3,3,1,789,398,391,140,0,500,200,8000,"[(512, 384), (512, 384), (512, 384), (512, 384), (512, 384), (512, 384), (512, 384), (512, 384), (512, 384), (512, 384), (512, 384), (512, 384), (512, 384), (512, 384), (512, 384), (512, 384), (512, 384), (512, 384), (512, 384), (512, 384), (512, 384), (512, 384), (512, 384), (512, 384), (512, 384), (512, 384), (512, 384), (512, 384), (512, 384), (512, 384), (512, 384), (512, 384), (512, 384), (512, 384), (512, 384), (512, 384), (512, 384), (512, 384), (512, 384), (514, 386), (518, 388), (525, 391), (536, 399), (541, 402), (547, 405), (552, 408), (560, 410), (563, 412), (564, 412), (564, 412), (564, 412), (564, 412), (564, 412), (564, 412), (564, 412), (564, 412), (564, 412), (564, 412), (564, 412), (564, 412), (564, 412), (564, 412), (563, 412), (562, 411), (562, 411), (561, 411), (558, 411), (555, 411), (552, 411), (547, 412), (531, 418), (521, 423), (506, 431), (489, 442), (431, 470), (398, 488), (368, 505), (336, 522), (270, 562)]",143.66413543310807,"[2, 6, 4, 3, 9, 5, 7, 1, 8]","(0, 0.25)",CHN002D,CHN,D,Chinese,Wed Sep 26 13:30:51 2018,Mouse
2,1,4,0,16,8,8,1,347,247,100,139,0,500,200,8000,"[(512, 384), (512, 384), (512, 384), (512, 384), (512, 384), (512, 384), (512, 384), (512, 384), (512, 384), (512, 384), (512, 384), (512, 384), (512, 384), (512, 384), (512, 384), (512, 384), (512, 384), (512, 384), (512, 384), (512, 384), (512, 384), (512, 384), (512, 384), (512, 384), (513, 384), (517, 383), (537, 378), (547, 375), (561, 371), (579, 366), (622, 351), (648, 342), (680, 327), (711, 317), (767, 297)]",341.16156644201925,"[2, 6, 4, 3, 9, 5, 7, 1, 8]","(0, 0.25)",CHN002D,CHN,D,Chinese,Wed Sep 26 13:30:51 2018,Mouse
2,1,4,0,17,2,2,1,1068,938,130,138,0,500,200,8000,"[(512, 384), (512, 384), (512, 384), (512, 384), (512, 384), (512, 384), (512, 384), (512, 384), (512, 384), (512, 384), (512, 384), (512, 384), (512, 384), (512, 384), (512, 384), (512, 384), (512, 384), (512, 384), (512, 384), (512, 384), (512, 384), (512, 384), (512, 384), (512, 384), (512, 384), (512, 384), (512, 384), (512, 384), (512, 384), (512, 384), (512, 384), (512, 384), (512, 384), (512, 384), (512, 384), (512, 384), (512, 384), (512, 384), (512, 384), (512, 384), (512, 384), (512, 384), (512, 384), (512, 384), (512, 384), (512, 384), (512, 384), (512, 384), (512, 384), (512, 384), (512, 384), (512, 384), (512, 384), (512, 384), (512, 384), (512, 384), (512, 384), (512, 384), (512, 384), (512, 384), (512, 384), (512, 384), (512, 384), (512, 384), (512, 384), (512, 384), (512, 384), (512, 384), (512, 384), (512, 384), (512, 384), (512, 384), (512, 384), (512, 384), (512, 384), (512, 384), (512, 384), (512, 384), (512, 384), (512, 384), (512, 384), (512, 384), (512, 384), (512, 384), (512, 384), (512, 384), (512, 384), (512, 384), (512, 384), (512, 384), (512, 384), (512, 384), (512, 384), (512, 385), (515, 386), (517, 387), (519, 388), (523, 391), (548, 402), (577, 414), (602, 420), (628, 430), (671, 444), (688, 450), (707, 455), (722, 460), (759, 472)]",19.609727776729134,"[2, 6, 4, 3, 9, 5, 7, 1, 8]","(0, 0.25)",CHN002D,CHN,D,Chinese,Wed Sep 26 13:30:51 2018,Mouse
2,1,4,0,18,2,2,1,147,77,70,137,0,500,200,8000,"[(512, 384), (512, 384), (512, 384), (512, 384), (512, 384), (512, 384), (512, 384), (515, 385), (524, 391), (539, 399), (598, 430), (631, 448), (674, 466), (708, 482), (774, 509)]",25.50577380079338,"[2, 6, 4, 3, 9, 5, 7, 1, 8]","(0, 0.25)",CHN002D,CHN,D,Chinese,Wed Sep 26 13:30:51 2018,Mouse
2,1,4,0,19,6,6,1,407,337,70,136,0,500,200,8000,"[(512, 384), (512, 384), (512, 384), (512, 384), (512, 384), (512, 384), (512, 384), (512, 384), (512, 384), (512, 384), (512, 384), (512, 384), (512, 384), (512, 384), (512, 384), (512, 384), (512, 384), (512, 384), (512, 384), (512, 384), (512, 384), (512, 384), (512, 384), (512, 384), (512, 384), (512, 384), (512, 384), (512, 384), (512, 384), (512, 384), (512, 384), (512, 384), (512, 384), (514, 388), (525, 407), (535, 422), (550, 447), (570, 482), (615, 564), (633, 596), (647, 626)]",60.84498279041855,"[2, 6, 4, 3, 9, 5, 7, 1, 8]","(0, 0.25)",CHN002D,CHN,D,Chinese,Wed Sep 26 13:30:51 2018,Mouse
2,1,4,0,20,9,6,0,-448,368,80,135,0,500,200,8000,"[(512, 384), (512, 384), (512, 384), (512, 384), (512, 384), (512, 384), (512, 384), (512, 384), (512, 384), (512, 384), (512, 384), (512, 384), (512, 384), (512, 384), (512, 384), (512, 384), (512, 384), (512, 384), (512, 384), (512, 384), (512, 384), (512, 384), (512, 384), (512, 384), (512, 384), (512, 384), (512, 384), (512, 384), (512, 384), (512, 384), (512, 384), (512, 384), (512, 384), (512, 384), (512, 384), (512, 384), (520, 399), (525, 410), (531, 425), (539, 443), (562, 486), (577, 511), (593, 540), (607, 562), (638, 619)]",61.80111622636297,"[2, 6, 4, 3, 9, 5, 7, 1, 8]","(0, 0.25)",CHN002D,CHN,D,Chinese,Wed Sep 26 13:30:51 2018,Mouse
2,1,4,0,21,3,5,0,-537,477,60,136,0,500,200,8000,"[(512, 384), (512, 384), (512, 384), (512, 384), (512, 384), (512, 384), (512, 384), (512, 384), (512, 384), (512, 384), (512, 384), (512, 384), (512, 384), (512, 384), (512, 384), (512, 384), (512, 384), (512, 384), (512, 384), (512, 384), (512, 384), (512, 384), (512, 384), (512, 384), (512, 384), (512, 384), (512, 384), (512, 384), (512, 384), (512, 384), (512, 384), (512, 384), (512, 384), (512, 384), (512, 384), (512, 384), (512, 384), (512, 384), (512, 384), (512, 384), (512, 384), (512, 384), (512, 384), (512, 384), (512, 384), (512, 384), (512, 384), (512, 382), (505, 369), (489, 337), (442, 268), (416, 234), (388, 202), (353, 174)]",232.8690755517905,"[2, 6, 4, 3, 9, 5, 7, 1, 8]","(0, 0.25)",CHN002D,CHN,D,Chinese,Wed Sep 26 13:30:51 2018,Mouse
2,1,4,0,22,9,9,1,188,118,70,137,0,500,200,8000,"[(512, 384), (512, 384), (512, 384), (512, 384), (512, 384), (512, 384), (512, 384), (512, 384), (512, 384), (512, 384), (512, 384), (510, 384), (503, 384), (491, 384), (472, 384), (406, 389), (358, 393), (310, 396), (238, 399)]",176.86649756724043,"[2, 6, 4, 3, 9, 5, 7, 1, 8]","(0, 0.25)",CHN002D,CHN,D,Chinese,Wed Sep 26 13:30:51 2018,Mouse
2,1,4,0,23,2,2,1,268,188,80,137,0,500,200,8000,"[(512, 384), (512, 384), (512, 384), (512, 384), (512, 384), (512, 384), (512, 384), (512, 384), (512, 384), (512, 384), (512, 384), (512, 384), (512, 384), (512, 384), (512, 384), (512, 384), (512, 384), (512, 384), (517, 388), (540, 404), (556, 414), (581, 429), (597, 440), (652, 473), (682, 488), (717, 507), (744, 520)]",30.379126011368342,"[2, 6, 4, 3, 9, 5, 7, 1, 8]","(0, 0.25)",CHN002D,CHN,D,Chinese,Wed Sep 26 13:30:51 2018,Mouse
2,1,4,0,24,3,3,1,538,468,70,136,0,500,200,8000,"[(512, 384), (512, 384), (512, 384), (512, 384), (512, 384), (512, 384), (512, 384), (512, 384), (512, 384), (512, 384), (512, 384), (512, 384), (512, 384), (512, 384), (512, 384), (512, 384), (512, 384), (512, 384), (512, 384), (512, 384), (512, 384), (512, 384), (512, 384), (512, 384), (512, 384), (512, 384), (512, 384), (512, 384), (512, 384), (512, 384), (512, 384), (512, 384), (512, 384), (512, 384), (512, 384), (512, 384), (512, 384), (512, 384), (512, 384), (512, 384), (512, 384), (512, 384), (512, 384), (512, 384), (512, 384), (512, 384), (511, 385), (496, 399), (484, 410), (468, 425), (449, 444), (376, 515), (333, 556), (285, 598)]",136.68850225482095,"[2, 6, 4, 3, 9, 5, 7, 1, 8]","(0, 0.25)",CHN002D,CHN,D,Chinese,Wed Sep 26 13:30:51 2018,Mouse
2,1,4,0,25,2,6,0,-518,408,110,135,0,500,200,8000,"[(512, 384), (512, 384), (512, 384), (512, 384), (512, 384), (512, 384), (512, 384), (512, 384), (512, 384), (512, 384), (512, 384), (512, 384), (512, 384), (512, 384), (512, 384), (512, 384), (512, 384), (512, 384), (512, 384), (512, 384), (512, 384), (512, 384), (512, 384), (512, 384), (512, 384), (512, 384), (512, 384), (512, 384), (512, 384), (512, 384), (512, 384), (512, 384), (512, 384), (512, 384), (512, 384), (512, 384), (512, 384), (512, 384), (512, 384), (512, 384), (516, 390), (525, 399), (536, 411), (547, 428), (571, 462), (581, 478), (591, 497), (600, 513), (617, 543), (626, 559), (635, 580), (644, 598)]",58.33278357056383,"[2, 6, 4, 3, 9, 5, 7, 1, 8]","(0, 0.25)",CHN002D,CHN,D,Chinese,Wed Sep 26 13:30:51 2018,Mouse
2,1,4,0,26,1,1,1,198,118,80,136,0,500,200,8000,"[(512, 384), (512, 384), (512, 384), (512, 384), (512, 384), (512, 384), (512, 384), (512, 384), (512, 384), (512, 384), (512, 384), (516, 375), (521, 368), (525, 362), (532, 352), (551, 320), (569, 297), (588, 269), (612, 236), (670, 162)]",305.4399035191137,"[2, 6, 4, 3, 9, 5, 7, 1, 8]","(0, 0.25)",CHN002D,CHN,D,Chinese,Wed Sep 26 13:30:51 2018,Mouse
2,1,4,0,27,9,9,1,398,28,370,136,0,500,200,8000,"[(512, 384), (512, 384), (510, 384), (509, 383), (509, 382), (509, 382), (509, 382), (509, 382), (509, 382), (509, 382), (509, 382), (509, 382), (508, 382), (508, 382), (506, 384), (505, 386), (505, 386), (504, 388), (501, 390), (500, 391), (499, 392), (498, 393), (497, 394), (495, 396), (495, 396), (493, 397), (490, 398), (489, 398), (488, 399), (486, 400), (477, 401), (471, 402), (463, 405), (454, 406), (428, 407), (409, 408), (387, 408), (359, 408), (284, 407), (236, 405)]",175.6489220484261,"[2, 6, 4, 3, 9, 5, 7, 1, 8]","(0, 0.25)",CHN002D,CHN,D,Chinese,Wed Sep 26 13:30:51 2018,Mouse
2,1,4,0,28,8,8,1,258,168,90,135,0,500,200,8000,"[(512, 384), (512, 384), (512, 384), (512, 384), (512, 384), (512, 384), (512, 384), (512, 384), (512, 384), (512, 384), (512, 384), (512, 384), (512, 384), (512, 384), (512, 384), (512, 384), (515, 380), (526, 372), (546, 360), (568, 345), (617, 316), (639, 302), (666, 286), (698, 272), (726, 262), (777, 246)]",332.49154071439466,"[2, 6, 4, 3, 9, 5, 7, 1, 8]","(0, 0.25)",CHN002D,CHN,D,Chinese,Wed Sep 26 13:30:51 2018,Mouse
2,1,4,0,29,4,5,0,-848,748,100,134,0,500,200,8000,"[(512, 384), (512, 384), (512, 384), (512, 384), (512, 384), (512, 384), (512, 384), (512, 384), (512, 384), (512, 384), (512, 384), (512, 384), (512, 384), (512, 384), (512, 384), (512, 384), (512, 384), (512, 384), (512, 384), (512, 384), (512, 384), (512, 384), (512, 384), (512, 384), (512, 384), (512, 384), (512, 384), (512, 384), (512, 384), (512, 384), (512, 384), (512, 384), (512, 384), (512, 384), (512, 384), (512, 384), (512, 384), (512, 384), (512, 384), (512, 384), (512, 384), (512, 384), (512, 384), (512, 384), (512, 384), (512, 384), (512, 384), (512, 384), (512, 384), (512, 384), (512, 384), (512, 384), (512, 384), (512, 384), (512, 384), (512, 384), (512, 384), (512, 384), (512, 384), (512, 384), (512, 384), (512, 384), (512, 384), (512, 384), (512, 384), (512, 384), (512, 384), (512, 384), (512, 384), (512, 384), (512, 384), (512, 384), (512, 384), (512, 384), (507, 376), (499, 367), (490, 357), (478, 346), (447, 320), (430, 307), (405, 290), (378, 277), (328, 254), (307, 243), (287, 236)]",213.33603013999652,"[2, 6, 4, 3, 9, 5, 7, 1, 8]","(0, 0.25)",CHN002D,CHN,D,Chinese,Wed Sep 26 13:30:51 2018,Mouse
2,1,4,0,30,5,5,1,608,548,60,135,0,500,200,8000,"[(512, 384), (512, 384), (512, 384), (512, 384), (512, 384), (512, 384), (512, 384), (512, 384), (512, 384), (512, 384), (512, 384), (512, 384), (512, 384), (512, 384), (512, 384), (512, 384), (512, 384), (512, 384), (512, 384), (512, 384), (512, 384), (512, 384), (512, 384), (512, 384), (512, 384), (512, 384), (512, 384), (512, 384), (512, 384), (512, 384), (512, 384), (512, 384), (512, 384), (512, 384), (512, 384), (512, 384), (512, 384), (512, 384), (512, 384), (512, 384), (512, 384), (512, 384), (512, 384), (512, 384), (512, 384), (512, 384), (512, 384), (512, 384), (512, 384), (512, 384), (512, 384), (512, 384), (512, 384), (512, 384), (511, 384), (501, 380), (438, 355), (404, 340), (350, 313), (298, 284), (180, 218)]",206.565051177078,"[2, 6, 4, 3, 9, 5, 7, 1, 8]","(0, 0.25)",CHN002D,CHN,D,Chinese,Wed Sep 26 13:30:51 2018,Mouse
2,1,4,0,31,9,6,0,-438,318,120,135,0,500,200,8000,"[(512, 384), (512, 384), (512, 384), (512, 384), (512, 384), (512, 384), (512, 384), (512, 384), (512, 384), (512, 384), (512, 384), (512, 384), (512, 384), (512, 384), (512, 384), (512, 384), (512, 384), (512, 384), (512, 384), (512, 384), (512, 384), (512, 384), (512, 384), (512, 384), (512, 384), (512, 384), (512, 384), (512, 384), (512, 384), (512, 384), (512, 384), (512, 385), (513, 388), (517, 394), (534, 412), (543, 424), (552, 437), (561, 451), (582, 484), (591, 501), (600, 519), (608, 537), (627, 579), (635, 602)]",60.56743155368384,"[2, 6, 4, 3, 9, 5, 7, 1, 8]","(0, 0.25)",CHN002D,CHN,D,Chinese,Wed Sep 26 13:30:51 2018,Mouse
2,1,4,0,32,4,6,0,-428,208,220,136,0,500,200,8000,"[(512, 384), (512, 384), (512, 384), (512, 384), (512, 384), (512, 384), (512, 384), (512, 384), (512, 384), (512, 384), (512, 384), (512, 384), (512, 384), (512, 384), (512, 384), (512, 384), (512, 384), (512, 384), (512, 384), (512, 384), (513, 385), (525, 401), (533, 410), (542, 418), (547, 424), (554, 433), (559, 438), (565, 444), (571, 452), (583, 471), (589, 482), (596, 493), (603, 505), (615, 525), (620, 534), (623, 542), (626, 548), (632, 561), (635, 568), (637, 576), (637, 583), (639, 596), (640, 602)]",59.58042039720378,"[2, 6, 4, 3, 9, 5, 7, 1, 8]","(0, 0.25)",CHN002D,CHN,D,Chinese,Wed Sep 26 13:30:51 2018,Mouse
2,1,4,0,33,7,7,1,388,298,90,137,0,500,200,8000,"[(512, 384), (512, 384), (512, 384), (512, 384), (512, 384), (512, 384), (512, 384), (512, 384), (512, 384), (512, 384), (512, 384), (512, 384), (512, 384), (512, 384), (512, 384), (512, 384), (512, 384), (512, 384), (512, 384), (512, 384), (512, 384), (512, 384), (512, 384), (512, 384), (512, 384), (512, 384), (512, 384), (512, 384), (512, 384), (512, 375), (510, 366), (507, 354), (505, 345), (499, 320), (495, 300), (489, 273), (475, 202), (465, 158), (456, 117)]",258.15460854041527,"[2, 6, 4, 3, 9, 5, 7, 1, 8]","(0, 0.25)",CHN002D,CHN,D,Chinese,Wed Sep 26 13:30:51 2018,Mouse
2,1,4,0,34,6,9,0,-568,488,80,137,0,500,200,8000,"[(512, 384), (512, 384), (512, 384), (512, 384), (512, 384), (512, 384), (512, 384), (512, 384), (512, 384), (512, 384), (512, 384), (512, 384), (512, 384), (512, 384), (512, 384), (512, 384), (512, 384), (512, 384), (512, 384), (512, 384), (512, 384), (512, 384), (512, 384), (512, 384), (512, 384), (512, 384), (512, 384), (512, 384), (512, 384), (512, 384), (512, 384), (512, 384), (512, 384), (512, 384), (512, 384), (512, 384), (512, 384), (512, 384), (512, 384), (512, 384), (512, 384), (512, 384), (512, 384), (512, 384), (512, 384), (512, 384), (512, 384), (512, 384), (510, 384), (506, 385), (500, 385), (491, 385), (456, 385), (417, 385), (372, 384), (317, 384), (175, 379)]",180.85002338109106,"[2, 6, 4, 3, 9, 5, 7, 1, 8]","(0, 0.25)",CHN002D,CHN,D,Chinese,Wed Sep 26 13:30:51 2018,Mouse
2,1,4,0,35,1,6,0,-818,748,70,138,0,500,200,8000,"[(512, 384), (512, 384), (512, 384), (512, 384), (512, 384), (512, 384), (512, 384), (512, 384), (512, 384), (512, 384), (512, 384), (512, 384), (512, 384), (512, 384), (512, 384), (512, 384), (512, 384), (512, 384), (512, 384), (512, 384), (512, 384), (512, 384), (512, 384), (512, 384), (512, 384), (512, 384), (512, 384), (512, 384), (512, 384), (512, 384), (512, 384), (512, 384), (512, 384), (512, 384), (512, 384), (512, 384), (512, 384), (512, 384), (512, 384), (512, 384), (512, 384), (512, 384), (512, 384), (512, 384), (512, 384), (512, 384), (512, 384), (512, 384), (512, 384), (512, 384), (512, 384), (512, 384), (512, 384), (512, 384), (512, 384), (512, 384), (512, 384), (512, 384), (512, 384), (512, 384), (512, 384), (512, 384), (512, 384), (512, 384), (512, 384), (512, 384), (512, 384), (512, 384), (512, 384), (512, 384), (512, 384), (512, 384), (512, 384), (512, 384), (513, 385), (532, 402), (549, 420), (572, 446), (593, 475), (634, 543), (650, 575), (669, 616)]",55.912839370024,"[2, 6, 4, 3, 9, 5, 7, 1, 8]","(0, 0.25)",CHN002D,CHN,D,Chinese,Wed Sep 26 13:30:51 2018,Mouse
2,1,4,0,36,1,6,0,-308,208,100,139,0,500,200,8000,"[(512, 384), (512, 384), (512, 384), (512, 384), (512, 384), (512, 384), (512, 384), (512, 384), (512, 384), (512, 384), (512, 384), (512, 384), (512, 384), (512, 384), (512, 384), (512, 384), (512, 384), (512, 384), (512, 384), (512, 384), (520, 396), (525, 403), (532, 412), (539, 422), (550, 442), (556, 455), (565, 470), (577, 494), (613, 554), (634, 590), (651, 620)]",59.50263588008317,"[2, 6, 4, 3, 9, 5, 7, 1, 8]","(0, 0.25)",CHN002D,CHN,D,Chinese,Wed Sep 26 13:30:51 2018,Mouse
2,1,4,0,37,7,7,1,548,488,60,140,0,500,200,8000,"[(512, 384), (512, 384), (512, 384), (512, 384), (512, 384), (512, 384), (512, 384), (512, 384), (512, 384), (512, 384), (512, 384), (512, 384), (512, 384), (512, 384), (512, 384), (512, 384), (512, 384), (512, 384), (512, 384), (512, 384), (512, 384), (512, 384), (512, 384), (512, 384), (512, 384), (512, 384), (512, 384), (512, 384), (512, 384), (512, 384), (512, 384), (512, 384), (512, 384), (512, 384), (512, 384), (512, 384), (512, 384), (512, 384), (512, 384), (512, 384), (512, 384), (512, 384), (512, 384), (512, 384), (512, 384), (512, 384), (512, 384), (512, 384), (512, 374), (512, 359), (512, 336), (512, 300), (512, 211), (512, 175), (512, 130)]",270.0,"[2, 6, 4, 3, 9, 5, 7, 1, 8]","(0, 0.25)",CHN002D,CHN,D,Chinese,Wed Sep 26 13:30:51 2018,Mouse
2,1,4,0,38,9,9,1,168,48,120,140,0,500,200,8000,"[(512, 384), (512, 384), (512, 384), (512, 384), (503, 390), (497, 394), (488, 397), (479, 400), (460, 406), (447, 409), (435, 412), (418, 414), (380, 415), (358, 415), (338, 416), (310, 416), (257, 416)]",172.8473312500053,"[2, 6, 4, 3, 9, 5, 7, 1, 8]","(0, 0.25)",CHN002D,CHN,D,Chinese,Wed Sep 26 13:30:51 2018,Mouse
2,1,4,0,39,3,3,1,718,658,60,139,0,500,200,8000,"[(512, 384), (512, 384), (512, 384), (512, 384), (512, 384), (512, 384), (512, 384), (512, 384), (512, 384), (512, 384), (512, 384), (512, 384), (512, 384), (512, 384), (512, 384), (512, 384), (512, 384), (512, 384), (512, 384), (512, 384), (512, 384), (512, 384), (512, 384), (512, 384), (512, 384), (512, 384), (512, 384), (512, 384), (512, 384), (512, 384), (512, 384), (512, 384), (512, 384), (512, 384), (512, 384), (512, 384), (512, 384), (512, 384), (512, 384), (512, 384), (512, 384), (512, 384), (512, 384), (512, 384), (512, 384), (512, 384), (512, 384), (512, 384), (512, 384), (512, 384), (512, 384), (512, 384), (512, 384), (512, 384), (512, 384), (512, 384), (512, 384), (512, 384), (512, 384), (512, 384), (512, 384), (512, 384), (512, 384), (512, 384), (512, 384), (512, 386), (495, 404), (477, 419), (449, 440), (372, 486), (339, 506), (304, 529)]",145.11905387136707,"[2, 6, 4, 3, 9, 5, 7, 1, 8]","(0, 0.25)",CHN002D,CHN,D,Chinese,Wed Sep 26 13:30:51 2018,Mouse
2,1,4,0,40,8,8,1,197,97,100,138,0,500,200,8000,"[(512, 384), (512, 384), (512, 384), (512, 384), (512, 384), (512, 384), (512, 384), (512, 384), (512, 384), (514, 381), (525, 373), (540, 365), (578, 343), (592, 332), (608, 324), (626, 316), (667, 300), (690, 292), (715, 284), (743, 276)]",334.94238458169696,"[2, 6, 4, 3, 9, 5, 7, 1, 8]","(0, 0.25)",CHN002D,CHN,D,Chinese,Wed Sep 26 13:30:51 2018,Mouse
2,1,4,0,41,6,7,0,-738,678,60,137,0,500,200,8000,"[(512, 384), (512, 384), (512, 384), (512, 384), (512, 384), (512, 384), (512, 384), (512, 384), (512, 384), (512, 384), (512, 384), (512, 384), (512, 384), (512, 384), (512, 384), (512, 384), (512, 384), (512, 384), (512, 384), (512, 384), (512, 384), (512, 384), (512, 384), (512, 384), (512, 384), (512, 384), (512, 384), (512, 384), (512, 384), (512, 384), (512, 384), (512, 384), (512, 384), (512, 384), (512, 384), (512, 384), (512, 384), (512, 384), (512, 384), (512, 384), (512, 384), (512, 384), (512, 384), (512, 384), (512, 384), (512, 384), (512, 384), (512, 384), (512, 384), (512, 384), (512, 384), (512, 384), (512, 384), (512, 384), (512, 384), (512, 384), (512, 384), (512, 384), (512, 384), (512, 384), (512, 384), (512, 384), (512, 384), (512, 384), (512, 384), (512, 384), (512, 384), (512, 378), (511, 354), (509, 335), (508, 304), (508, 262), (490, 156), (478, 107)]",263.00230739598555,"[2, 6, 4, 3, 9, 5, 7, 1, 8]","(0, 0.25)",CHN002D,CHN,D,Chinese,Wed Sep 26 13:30:51 2018,Mouse
2,1,4,0,42,7,7,1,338,218,120,138,0,500,200,8000,"[(512, 384), (512, 384), (512, 384), (512, 384), (512, 384), (512, 384), (512, 384), (512, 384), (512, 384), (512, 384), (512, 384), (512, 384), (512, 384), (512, 384), (512, 384), (512, 384), (512, 384), (512, 384), (512, 384), (512, 384), (512, 384), (509, 379), (503, 370), (497, 361), (490, 350), (481, 335), (476, 326), (474, 313), (473, 296), (473, 259), (471, 236), (470, 210), (470, 185), (470, 132)]",260.5376777919744,"[2, 6, 4, 3, 9, 5, 7, 1, 8]","(0, 0.25)",CHN002D,CHN,D,Chinese,Wed Sep 26 13:30:51 2018,Mouse
2,1,4,0,43,2,2,1,1037,957,80,138,0,500,200,8000,"[(512, 384), (512, 384), (512, 384), (512, 384), (512, 384), (512, 384), (512, 384), (512, 384), (512, 384), (512, 384), (512, 384), (512, 384), (512, 384), (512, 384), (512, 384), (512, 384), (512, 384), (512, 384), (512, 384), (512, 384), (512, 384), (512, 384), (512, 384), (512, 384), (512, 384), (512, 384), (512, 384), (512, 384), (512, 384), (512, 384), (512, 384), (512, 384), (512, 384), (512, 384), (512, 384), (512, 384), (512, 384), (512, 384), (512, 384), (512, 384), (512, 384), (512, 384), (512, 384), (512, 384), (512, 384), (512, 384), (512, 384), (512, 384), (512, 384), (512, 384), (512, 384), (512, 384), (512, 384), (512, 384), (512, 384), (512, 384), (512, 384), (512, 384), (512, 384), (512, 384), (512, 384), (512, 384), (512, 384), (512, 384), (512, 384), (512, 384), (512, 384), (512, 384), (512, 384), (512, 384), (512, 384), (512, 384), (512, 384), (512, 384), (512, 384), (512, 384), (512, 384), (512, 384), (512, 384), (512, 384), (512, 384), (512, 384), (512, 384), (512, 384), (512, 384), (512, 384), (512, 384), (512, 384), (512, 384), (512, 384), (512, 384), (512, 384), (512, 384), (512, 384), (512, 384), (514, 385), (519, 390), (527, 395), (550, 415), (572, 429), (602, 446), (640, 465), (722, 512), (762, 534)]",30.96375653207352,"[2, 6, 4, 3, 9, 5, 7, 1, 8]","(0, 0.25)",CHN002D,CHN,D,Chinese,Wed Sep 26 13:30:51 2018,Mouse
2,1,4,0,44,7,7,1,598,548,50,137,0,500,200,8000,"[(512, 384), (512, 384), (512, 384), (512, 384), (512, 384), (512, 384), (512, 384), (512, 384), (512, 384), (512, 384), (512, 384), (512, 384), (512, 384), (512, 384), (512, 384), (512, 384), (512, 384), (512, 384), (512, 384), (512, 384), (512, 384), (512, 384), (512, 384), (512, 384), (512, 384), (512, 384), (512, 384), (512, 384), (512, 384), (512, 384), (512, 384), (512, 384), (512, 384), (512, 384), (512, 384), (512, 384), (512, 384), (512, 384), (512, 384), (512, 384), (512, 384), (512, 384), (512, 384), (512, 384), (512, 384), (512, 384), (512, 384), (512, 384), (512, 384), (512, 384), (512, 384), (512, 384), (512, 384), (512, 384), (512, 373), (506, 345), (500, 305), (491, 217), (485, 163), (479, 109)]",263.15722658736905,"[2, 6, 4, 3, 9, 5, 7, 1, 8]","(0, 0.25)",CHN002D,CHN,D,Chinese,Wed Sep 26 13:30:51 2018,Mouse
2,1,4,0,45,4,9,0,-467,417,50,136,0,500,200,8000,"[(512, 384), (512, 384), (512, 384), (512, 384), (512, 384), (512, 384), (512, 384), (512, 384), (512, 384), (512, 384), (512, 384), (512, 384), (512, 384), (512, 384), (512, 384), (512, 384), (512, 384), (512, 384), (512, 384), (512, 384), (512, 384), (512, 384), (512, 384), (512, 384), (512, 384), (512, 384), (512, 384), (512, 384), (512, 384), (512, 384), (512, 384), (512, 384), (512, 384), (512, 384), (512, 384), (512, 384), (512, 384), (512, 384), (512, 384), (512, 384), (512, 384), (505, 384), (488, 384), (415, 385), (362, 387), (296, 387), (221, 387)]",179.40934278535332,"[2, 6, 4, 3, 9, 5, 7, 1, 8]","(0, 0.25)",CHN002D,CHN,D,Chinese,Wed Sep 26 13:30:51 2018,Mouse
2,1,4,0,46,8,8,1,258,198,60,137,0,500,200,8000,"[(512, 384), (512, 384), (512, 384), (512, 384), (512, 384), (512, 384), (512, 384), (512, 384), (512, 384), (512, 384), (512, 384), (512, 384), (512, 384), (512, 384), (512, 384), (512, 384), (512, 384), (512, 384), (512, 384), (516, 378), (532, 368), (552, 352), (577, 333), (645, 281), (684, 253), (723, 230)]",323.8758705354446,"[2, 6, 4, 3, 9, 5, 7, 1, 8]","(0, 0.25)",CHN002D,CHN,D,Chinese,Wed Sep 26 13:30:51 2018,Mouse
2,1,4,0,47,6,6,1,288,127,161,137,0,500,200,8000,"[(512, 384), (512, 384), (512, 384), (512, 384), (512, 384), (512, 384), (512, 384), (512, 384), (512, 384), (512, 384), (512, 384), (512, 384), (512, 396), (515, 403), (516, 410), (517, 418), (519, 434), (521, 442), (522, 452), (523, 460), (530, 483), (534, 494), (538, 506), (544, 525), (559, 565), (565, 580), (572, 600), (578, 620), (596, 664)]",73.30075576600639,"[2, 6, 4, 3, 9, 5, 7, 1, 8]","(0, 0.25)",CHN002D,CHN,D,Chinese,Wed Sep 26 13:30:51 2018,Mouse
2,1,4,0,48,6,6,1,157,17,140,136,0,500,200,8000,"[(512, 384), (514, 387), (516, 393), (522, 407), (526, 416), (528, 426), (531, 437), (537, 467), (537, 482), (541, 498), (543, 513), (549, 543), (555, 565), (563, 588), (571, 616), (590, 667)]",74.59081473800089,"[2, 6, 4, 3, 9, 5, 7, 1, 8]","(0, 0.25)",CHN002D,CHN,D,Chinese,Wed Sep 26 13:30:51 2018,Mouse
2,1,4,0,49,8,5,0,-718,148,570,135,0,500,200,8000,"[(512, 384), (512, 384), (512, 384), (512, 384), (512, 384), (512, 384), (512, 384), (512, 384), (512, 384), (512, 384), (512, 384), (512, 384), (512, 384), (512, 384), (512, 383), (512, 383), (512, 383), (512, 383), (512, 383), (512, 383), (512, 383), (512, 383), (512, 383), (512, 383), (512, 383), (512, 383), (512, 383), (512, 383), (513, 383), (513, 383), (513, 383), (513, 383), (513, 383), (513, 383), (513, 383), (513, 383), (513, 383), (513, 383), (513, 383), (513, 383), (513, 383), (513, 383), (513, 383), (513, 383), (513, 383), (513, 383), (513, 383), (513, 383), (513, 383), (513, 383), (513, 383), (513, 383), (513, 383), (513, 383), (513, 383), (513, 383), (513, 383), (513, 383), (513, 383), (513, 383), (513, 383), (513, 383), (513, 383), (513, 383), (511, 378), (506, 370), (486, 342), (465, 323), (441, 299), (412, 276), (339, 218), (302, 189)]",222.87890360333856,"[2, 6, 4, 3, 9, 5, 7, 1, 8]","(0, 0.25)",CHN002D,CHN,D,Chinese,Wed Sep 26 13:30:51 2018,Mouse
2,1,4,0,50,3,3,1,777,717,60,136,0,500,200,8000,"[(512, 384), (512, 384), (512, 384), (512, 384), (512, 384), (512, 384), (512, 384), (512, 384), (512, 384), (512, 384), (512, 384), (512, 384), (512, 384), (512, 384), (512, 384), (512, 384), (512, 384), (512, 384), (512, 384), (512, 384), (512, 384), (512, 384), (512, 384), (512, 384), (512, 384), (512, 384), (512, 384), (512, 384), (512, 384), (512, 384), (512, 384), (512, 384), (512, 384), (512, 384), (512, 384), (512, 384), (512, 384), (512, 384), (512, 384), (512, 384), (512, 384), (512, 384), (512, 384), (512, 384), (512, 384), (512, 384), (512, 384), (512, 384), (512, 384), (512, 384), (512, 384), (512, 384), (512, 384), (512, 384), (512, 384), (512, 384), (512, 384), (512, 384), (512, 384), (512, 384), (512, 384), (512, 384), (512, 384), (512, 384), (512, 384), (512, 384), (512, 384), (512, 384), (512, 384), (512, 384), (512, 384), (508, 391), (485, 418), (464, 437), (438, 466), (411, 495), (378, 530), (304, 606)]",133.135214740661,"[2, 6, 4, 3, 9, 5, 7, 1, 8]","(0, 0.25)",CHN002D,CHN,D,Chinese,Wed Sep 26 13:30:51 2018,Mouse
2,1,4,0,51,3,3,1,308,228,80,136,0,500,200,8000,"[(512, 384), (512, 384), (512, 384), (512, 384), (512, 384), (512, 384), (512, 384), (512, 384), (512, 384), (512, 384), (512, 384), (512, 384), (512, 384), (512, 384), (512, 384), (512, 384), (512, 384), (512, 384), (512, 384), (512, 384), (512, 384), (512, 384), (510, 387), (502, 395), (494, 401), (471, 420), (460, 433), (441, 451), (419, 475), (360, 532), (325, 568)]",135.46329809234183,"[2, 6, 4, 3, 9, 5, 7, 1, 8]","(0, 0.25)",CHN002D,CHN,D,Chinese,Wed Sep 26 13:30:51 2018,Mouse
2,1,4,0,52,9,9,1,248,148,100,135,0,500,200,8000,"[(512, 384), (512, 384), (512, 384), (512, 384), (512, 384), (512, 384), (512, 384), (512, 384), (512, 384), (512, 384), (512, 384), (512, 384), (512, 384), (512, 384), (511, 383), (506, 383), (497, 383), (473, 379), (461, 379), (446, 377), (423, 377), (372, 375), (336, 374), (294, 374), (244, 374)]",182.13691085375726,"[2, 6, 4, 3, 9, 5, 7, 1, 8]","(0, 0.25)",CHN002D,CHN,D,Chinese,Wed Sep 26 13:30:51 2018,Mouse
2,1,4,0,53,4,9,0,-558,488,70,134,0,500,200,8000,"[(512, 384), (512, 384), (512, 384), (512, 384), (512, 384), (512, 384), (512, 384), (512, 384), (512, 384), (512, 384), (512, 384), (512, 384), (512, 384), (512, 384), (512, 384), (512, 384), (512, 384), (512, 384), (512, 384), (512, 384), (512, 384), (512, 384), (512, 384), (512, 384), (512, 384), (512, 384), (512, 384), (512, 384), (512, 384), (512, 384), (512, 384), (512, 384), (512, 384), (512, 384), (512, 384), (512, 384), (512, 384), (512, 384), (512, 384), (512, 384), (512, 384), (512, 384), (512, 384), (512, 384), (512, 384), (512, 384), (512, 384), (512, 384), (511, 384), (502, 384), (487, 385), (429, 385), (388, 385), (343, 385), (293, 387), (207, 387)]",179.436453129186,"[2, 6, 4, 3, 9, 5, 7, 1, 8]","(0, 0.25)",CHN002D,CHN,D,Chinese,Wed Sep 26 13:30:51 2018,Mouse
2,1,4,0,54,5,8,0,-528,408,120,135,0,500,200,8000,"[(512, 384), (512, 384), (512, 384), (512, 384), (512, 384), (512, 384), (512, 384), (512, 384), (512, 384), (512, 384), (512, 384), (512, 384), (512, 384), (512, 384), (512, 384), (512, 384), (512, 384), (512, 384), (512, 384), (512, 384), (512, 384), (512, 384), (512, 384), (512, 384), (512, 384), (512, 384), (512, 384), (512, 384), (512, 384), (512, 384), (512, 384), (512, 384), (512, 384), (512, 384), (512, 384), (512, 384), (512, 384), (512, 384), (512, 384), (512, 384), (514, 385), (516, 386), (520, 386), (530, 386), (536, 386), (547, 386), (558, 386), (584, 386), (595, 383), (611, 378), (640, 368), (725, 335), (767, 318)]",345.48894049983096,"[2, 6, 4, 3, 9, 5, 7, 1, 8]","(0, 0.25)",CHN002D,CHN,D,Chinese,Wed Sep 26 13:30:51 2018,Mouse
2,1,4,0,55,8,8,1,407,357,50,136,0,500,200,8000,"[(512, 384), (512, 384), (512, 384), (512, 384), (512, 384), (512, 384), (512, 384), (512, 384), (512, 384), (512, 384), (512, 384), (512, 384), (512, 384), (512, 384), (512, 384), (512, 384), (512, 384), (512, 384), (512, 384), (512, 384), (512, 384), (512, 384), (512, 384), (512, 384), (512, 384), (512, 384), (512, 384), (512, 384), (512, 384), (512, 384), (512, 384), (512, 384), (512, 384), (512, 384), (512, 384), (513, 383), (525, 375), (595, 340), (643, 322), (699, 302), (745, 280)]",335.9463120900851,"[2, 6, 4, 3, 9, 5, 7, 1, 8]","(0, 0.25)",CHN002D,CHN,D,Chinese,Wed Sep 26 13:30:51 2018,Mouse
2,1,4,0,56,2,2,1,558,458,100,136,0,500,200,8000,"[(512, 384), (512, 384), (512, 384), (512, 384), (512, 384), (512, 384), (512, 384), (512, 384), (512, 384), (512, 384), (512, 384), (512, 384), (512, 384), (512, 384), (512, 384), (512, 384), (512, 384), (512, 384), (512, 384), (512, 384), (512, 384), (512, 384), (512, 384), (512, 384), (512, 384), (512, 384), (512, 384), (512, 384), (512, 384), (512, 384), (512, 384), (512, 384), (512, 384), (512, 384), (512, 384), (512, 384), (512, 384), (512, 384), (512, 384), (512, 384), (512, 384), (512, 384), (512, 384), (512, 384), (512, 384), (513, 384), (520, 392), (525, 397), (533, 402), (543, 410), (573, 428), (597, 443), (628, 461), (657, 474), (721, 507), (753, 519)]",29.256065222107075,"[2, 6, 4, 3, 9, 5, 7, 1, 8]","(0, 0.25)",CHN002D,CHN,D,Chinese,Wed Sep 26 13:30:51 2018,Mouse
2,1,4,0,57,1,6,0,-498,398,100,135,0,500,200,8000,"[(512, 384), (512, 384), (512, 384), (512, 384), (512, 384), (512, 384), (512, 384), (512, 384), (512, 384), (512, 384), (512, 384), (512, 384), (512, 384), (512, 384), (512, 384), (512, 384), (512, 384), (512, 384), (512, 384), (512, 384), (512, 384), (512, 384), (512, 384), (512, 384), (512, 384), (512, 384), (512, 384), (512, 384), (512, 384), (512, 384), (512, 384), (512, 384), (512, 384), (512, 384), (512, 384), (512, 384), (512, 384), (512, 384), (512, 384), (513, 385), (519, 394), (532, 414), (539, 426), (548, 439), (555, 455), (577, 500), (593, 532), (612, 570), (624, 599), (646, 658)]",63.93900426024007,"[2, 6, 4, 3, 9, 5, 7, 1, 8]","(0, 0.25)",CHN002D,CHN,D,Chinese,Wed Sep 26 13:30:51 2018,Mouse
2,1,4,0,58,5,9,0,-1738,1668,70,136,0,500,200,8000,"[(512, 384), (512, 384), (512, 384), (512, 384), (512, 384), (512, 384), (512, 384), (512, 384), (512, 384), (512, 384), (512, 384), (512, 384), (512, 384), (512, 384), (512, 384), (512, 384), (512, 384), (512, 384), (512, 384), (512, 384), (512, 384), (512, 384), (512, 384), (512, 384), (512, 384), (512, 384), (512, 384), (512, 384), (512, 384), (512, 384), (512, 384), (512, 384), (512, 384), (512, 384), (512, 384), (512, 384), (512, 384), (512, 384), (512, 384), (512, 384), (512, 384), (512, 384), (512, 384), (512, 384), (512, 384), (512, 384), (512, 384), (512, 384), (512, 384), (512, 384), (512, 384), (512, 384), (512, 384), (512, 384), (512, 384), (512, 384), (512, 384), (512, 384), (512, 384), (512, 384), (512, 384), (512, 384), (512, 384), (512, 384), (512, 384), (512, 384), (512, 384), (512, 384), (512, 384), (512, 384), (512, 384), (512, 384), (512, 384), (512, 384), (512, 384), (512, 384), (512, 384), (512, 384), (512, 384), (512, 384), (512, 384), (512, 384), (512, 384), (512, 384), (512, 384), (512, 384), (512, 384), (512, 384), (512, 384), (512, 384), (512, 384), (512, 384), (512, 384), (512, 384), (512, 384), (512, 384), (512, 384), (512, 384), (512, 384), (512, 384), (512, 384), (512, 384), (512, 384), (512, 384), (512, 384), (512, 384), (512, 384), (512, 384), (512, 384), (512, 384), (512, 384), (512, 384), (512, 384), (512, 384), (512, 384), (512, 384), (512, 384), (512, 384), (512, 384), (512, 384), (512, 384), (512, 384), (512, 384), (512, 384), (512, 384), (512, 384), (512, 384), (512, 384), (512, 384), (512, 384), (512, 384), (512, 384), (512, 384), (512, 384), (512, 384), (512, 384), (512, 384), (512, 384), (512, 384), (512, 384), (512, 384), (512, 384), (512, 384), (512, 384), (512, 384), (512, 384), (512, 384), (512, 384), (512, 384), (512, 384), (512, 384), (512, 384), (512, 384), (512, 384), (512, 384), (512, 384), (512, 384), (512, 384), (512, 384), (512, 384), (512, 384), (512, 384), (512, 384), (512, 384), (512, 384), (512, 384), (499, 385), (486, 387), (467, 387), (444, 388), (372, 388), (324, 388), (266, 388), (205, 387)]",179.44012420983833,"[2, 6, 4, 3, 9, 5, 7, 1, 8]","(0, 0.25)",CHN002D,CHN,D,Chinese,Wed Sep 26 13:30:51 2018,Mouse
2,1,4,0,59,9,9,1,248,158,90,137,0,500,200,8000,"[(512, 384), (512, 384), (512, 384), (512, 384), (512, 384), (512, 384), (512, 384), (512, 384), (512, 384), (512, 384), (512, 384), (512, 384), (512, 384), (512, 384), (512, 384), (503, 387), (495, 389), (484, 390), (474, 391), (447, 391), (429, 391), (403, 391), (376, 391), (302, 387), (259, 383)]",180.2264643523412,"[2, 6, 4, 3, 9, 5, 7, 1, 8]","(0, 0.25)",CHN002D,CHN,D,Chinese,Wed Sep 26 13:30:51 2018,Mouse
2,1,4,0,60,2,4,0,-708,638,70,137,0,500,200,8000,"[(512, 384), (512, 384), (512, 384), (512, 384), (512, 384), (512, 384), (512, 384), (512, 384), (512, 384), (512, 384), (512, 384), (512, 384), (512, 384), (512, 384), (512, 384), (512, 384), (512, 384), (512, 384), (512, 384), (512, 384), (512, 384), (512, 384), (512, 384), (512, 384), (512, 384), (512, 384), (512, 384), (512, 384), (512, 384), (512, 384), (512, 384), (512, 384), (512, 384), (512, 384), (512, 384), (512, 384), (512, 384), (512, 384), (512, 384), (512, 384), (512, 384), (512, 384), (512, 384), (512, 384), (512, 384), (512, 384), (512, 384), (512, 384), (512, 384), (512, 384), (512, 384), (512, 384), (512, 384), (512, 384), (512, 384), (512, 384), (512, 384), (512, 384), (512, 384), (512, 384), (512, 384), (512, 384), (512, 384), (512, 386), (512, 391), (516, 403), (517, 430), (515, 462), (503, 503), (488, 546), (442, 635)]",105.58296037983223,"[2, 6, 4, 3, 9, 5, 7, 1, 8]","(0, 0.25)",CHN002D,CHN,D,Chinese,Wed Sep 26 13:30:51 2018,Mouse
2,1,4,0,61,6,2,0,-308,258,50,138,0,500,200,8000,"[(512, 384), (512, 384), (512, 384), (512, 384), (512, 384), (512, 384), (512, 384), (512, 384), (512, 384), (512, 384), (512, 384), (512, 384), (512, 384), (512, 384), (512, 384), (512, 384), (512, 384), (512, 384), (512, 384), (512, 384), (512, 384), (512, 384), (512, 384), (512, 384), (512, 384), (514, 387), (561, 415), (606, 448), (648, 480), (685, 511), (735, 547)]",36.164626786550514,"[2, 6, 4, 3, 9, 5, 7, 1, 8]","(0, 0.25)",CHN002D,CHN,D,Chinese,Wed Sep 26 13:30:51 2018,Mouse
2,1,4,0,62,9,9,1,777,687,90,139,0,500,200,8000,"[(512, 384), (512, 384), (512, 384), (512, 384), (512, 384), (512, 384), (512, 384), (512, 384), (512, 384), (512, 384), (512, 384), (512, 384), (512, 384), (512, 384), (512, 384), (512, 384), (512, 384), (512, 384), (512, 384), (512, 384), (512, 384), (512, 384), (512, 384), (512, 384), (512, 384), (512, 384), (512, 384), (512, 384), (512, 384), (512, 384), (512, 384), (512, 384), (512, 384), (512, 384), (512, 384), (512, 384), (512, 384), (512, 384), (512, 384), (512, 384), (512, 384), (512, 384), (512, 384), (512, 384), (512, 384), (512, 384), (512, 384), (512, 384), (512, 384), (512, 384), (512, 384), (512, 384), (512, 384), (512, 384), (512, 384), (512, 384), (512, 384), (512, 384), (512, 384), (512, 384), (512, 384), (512, 384), (512, 384), (512, 384), (512, 384), (512, 384), (512, 384), (512, 384), (511, 384), (492, 381), (478, 380), (465, 378), (442, 377), (385, 375), (349, 375), (310, 373), (268, 373), (171, 373)]",181.8476102659946,"[2, 6, 4, 3, 9, 5, 7, 1, 8]","(0, 0.25)",CHN002D,CHN,D,Chinese,Wed Sep 26 13:30:51 2018,Mouse
2,1,4,0,63,2,2,1,758,258,500,139,0,500,200,8000,"[(512, 384), (512, 384), (512, 384), (512, 384), (512, 384), (512, 384), (512, 384), (512, 384), (512, 384), (512, 384), (512, 384), (512, 384), (512, 384), (512, 384), (512, 384), (512, 384), (512, 384), (512, 384), (512, 384), (512, 384), (512, 384), (512, 384), (512, 384), (512, 384), (512, 384), (513, 385), (513, 386), (515, 386), (515, 386), (516, 386), (516, 386), (516, 386), (516, 386), (516, 387), (516, 387), (516, 387), (516, 387), (516, 387), (516, 387), (516, 387), (516, 387), (516, 387), (517, 387), (518, 387), (518, 387), (518, 387), (518, 387), (518, 387), (518, 387), (518, 387), (518, 387), (518, 387), (518, 387), (518, 387), (518, 387), (518, 387), (518, 387), (518, 387), (518, 387), (518, 387), (518, 387), (518, 387), (518, 387), (518, 388), (520, 389), (522, 389), (527, 392), (533, 393), (542, 396), (554, 399), (583, 410), (608, 420), (637, 430), (668, 442), (732, 472), (764, 486)]",22.03622694014545,"[2, 6, 4, 3, 9, 5, 7, 1, 8]","(0, 0.25)",CHN002D,CHN,D,Chinese,Wed Sep 26 13:30:51 2018,Mouse
2,1,4,0,64,2,2,1,178,18,160,138,0,500,200,8000,"[(512, 384), (515, 386), (522, 388), (531, 391), (540, 392), (566, 396), (584, 400), (597, 403), (609, 406), (639, 418), (651, 424), (666, 428), (677, 434), (702, 443), (716, 447), (729, 451), (741, 455), (761, 460)]",16.97328376819331,"[2, 6, 4, 3, 9, 5, 7, 1, 8]","(0, 0.25)",CHN002D,CHN,D,Chinese,Wed Sep 26 13:30:51 2018,Mouse
2,1,4,0,65,4,4,1,647,517,130,137,0,500,200,8000,"[(512, 384), (512, 384), (512, 384), (512, 384), (512, 384), (512, 384), (512, 384), (512, 384), (512, 384), (512, 384), (512, 384), (512, 384), (512, 384), (512, 384), (512, 384), (512, 384), (512, 384), (512, 384), (512, 384), (512, 384), (512, 384), (512, 384), (512, 384), (512, 384), (512, 384), (512, 384), (512, 384), (512, 384), (512, 384), (512, 384), (512, 384), (512, 384), (512, 384), (512, 384), (512, 384), (512, 384), (512, 384), (512, 384), (512, 384), (512, 384), (512, 384), (512, 384), (512, 384), (512, 384), (512, 384), (512, 384), (512, 384), (512, 384), (512, 384), (512, 384), (512, 384), (513, 385), (513, 385), (513, 386), (513, 390), (514, 394), (514, 401), (514, 412), (509, 445), (501, 471), (493, 496), (485, 521), (465, 581), (454, 612), (447, 644)]",104.03624346792648,"[2, 6, 4, 3, 9, 5, 7, 1, 8]","(0, 0.25)",CHN002D,CHN,D,Chinese,Wed Sep 26 13:30:51 2018,Mouse
2,1,4,0,66,6,6,1,269,79,190,136,0,500,200,8000,"[(512, 384), (512, 384), (512, 384), (512, 384), (512, 384), (512, 384), (512, 384), (512, 386), (516, 394), (518, 397), (520, 399), (522, 403), (529, 411), (533, 415), (539, 420), (543, 424), (555, 437), (562, 445), (570, 455), (578, 465), (596, 494), (606, 513), (613, 526), (619, 539), (632, 565), (640, 581), (648, 596)]",57.319445256636605,"[2, 6, 4, 3, 9, 5, 7, 1, 8]","(0, 0.25)",CHN002D,CHN,D,Chinese,Wed Sep 26 13:30:51 2018,Mouse
2,1,4,0,67,4,3,0,-567,447,120,135,0,500,200,8000,"[(512, 384), (512, 384), (512, 384), (512, 384), (512, 384), (512, 384), (512, 384), (512, 384), (512, 384), (512, 384), (512, 384), (512, 384), (512, 384), (512, 384), (512, 384), (512, 384), (512, 384), (512, 384), (512, 384), (512, 384), (512, 384), (512, 384), (512, 384), (512, 384), (512, 384), (512, 384), (512, 384), (512, 384), (512, 384), (512, 384), (512, 384), (512, 384), (512, 384), (512, 384), (512, 384), (512, 384), (512, 384), (512, 384), (512, 384), (512, 384), (512, 384), (512, 384), (512, 384), (512, 384), (508, 388), (495, 395), (479, 403), (469, 409), (458, 419), (440, 437), (434, 444), (425, 452), (406, 466), (394, 475), (377, 488), (353, 508), (283, 563)]",141.98670453666693,"[2, 6, 4, 3, 9, 5, 7, 1, 8]","(0, 0.25)",CHN002D,CHN,D,Chinese,Wed Sep 26 13:30:51 2018,Mouse
2,1,4,0,68,3,3,1,688,618,70,136,0,500,200,8000,"[(512, 384), (512, 384), (512, 384), (512, 384), (512, 384), (512, 384), (512, 384), (512, 384), (512, 384), (512, 384), (512, 384), (512, 384), (512, 384), (512, 384), (512, 384), (512, 384), (512, 384), (512, 384), (512, 384), (512, 384), (512, 384), (512, 384), (512, 384), (512, 384), (512, 384), (512, 384), (512, 384), (512, 384), (512, 384), (512, 384), (512, 384), (512, 384), (512, 384), (512, 384), (512, 384), (512, 384), (512, 384), (512, 384), (512, 384), (512, 384), (512, 384), (512, 384), (512, 384), (512, 384), (512, 384), (512, 384), (512, 384), (512, 384), (512, 384), (512, 384), (512, 384), (512, 384), (512, 384), (512, 384), (512, 384), (512, 384), (512, 384), (512, 384), (512, 384), (512, 384), (512, 384), (512, 385), (498, 397), (486, 408), (468, 423), (442, 445), (373, 505), (334, 532), (298, 561)]",140.40575401497827,"[2, 6, 4, 3, 9, 5, 7, 1, 8]","(0, 0.25)",CHN002D,CHN,D,Chinese,Wed Sep 26 13:30:51 2018,Mouse
2,1,4,0,69,7,7,1,398,338,60,136,0,500,200,8000,"[(512, 384), (512, 384), (512, 384), (512, 384), (512, 384), (512, 384), (512, 384), (512, 384), (512, 384), (512, 384), (512, 384), (512, 384), (512, 384), (512, 384), (512, 384), (512, 384), (512, 384), (512, 384), (512, 384), (512, 384), (512, 384), (512, 384), (512, 384), (512, 384), (512, 384), (512, 384), (512, 384), (512, 384), (512, 384), (512, 384), (512, 384), (512, 384), (512, 384), (509, 374), (505, 356), (499, 326), (482, 253), (473, 217), (464, 176), (451, 136)]",256.181403270629,"[2, 6, 4, 3, 9, 5, 7, 1, 8]","(0, 0.25)",CHN002D,CHN,D,Chinese,Wed Sep 26 13:30:51 2018,Mouse
2,1,4,0,70,4,9,0,-508,128,380,135,0,500,200,8000,"[(512, 384), (512, 384), (512, 384), (512, 384), (512, 384), (512, 384), (512, 384), (512, 384), (512, 384), (512, 384), (512, 384), (512, 384), (508, 384), (505, 384), (501, 384), (494, 384), (492, 384), (490, 384), (486, 384), (484, 385), (484, 385), (483, 385), (483, 385), (483, 385), (483, 385), (483, 385), (483, 385), (483, 385), (483, 385), (483, 385), (483, 385), (483, 385), (483, 385), (483, 385), (483, 385), (483, 385), (483, 385), (483, 385), (483, 385), (483, 385), (483, 385), (483, 385), (483, 385), (477, 384), (466, 384), (448, 384), (422, 383), (352, 383), (314, 383), (275, 383), (229, 379)]",181.01218761398246,"[2, 6, 4, 3, 9, 5, 7, 1, 8]","(0, 0.25)",CHN002D,CHN,D,Chinese,Wed Sep 26 13:30:51 2018,Mouse
2,1,4,0,71,2,6,0,-407,317,90,136,0,500,200,8000,"[(512, 384), (512, 384), (512, 384), (512, 384), (512, 384), (512, 384), (512, 384), (512, 384), (512, 384), (512, 384), (512, 384), (512, 384), (512, 384), (512, 384), (512, 384), (512, 384), (512, 384), (512, 384), (512, 384), (512, 384), (512, 384), (512, 384), (512, 384), (512, 384), (512, 384), (512, 384), (512, 384), (512, 384), (512, 384), (512, 384), (512, 384), (516, 389), (519, 393), (523, 400), (527, 407), (538, 426), (549, 441), (602, 524), (602, 524), (624, 555), (652, 597)]",56.68400188931784,"[2, 6, 4, 3, 9, 5, 7, 1, 8]","(0, 0.25)",CHN002D,CHN,D,Chinese,Wed Sep 26 13:30:51 2018,Mouse
2,1,4,0,72,8,8,1,858,557,301,137,0,500,200,8000,"[(512, 384), (512, 384), (512, 384), (512, 384), (512, 384), (512, 384), (512, 384), (512, 384), (512, 384), (512, 384), (512, 384), (512, 384), (512, 384), (512, 384), (512, 384), (512, 384), (512, 384), (512, 384), (512, 384), (512, 384), (512, 384), (512, 384), (512, 384), (512, 384), (512, 384), (512, 384), (512, 384), (512, 384), (512, 384), (512, 384), (512, 384), (512, 384), (512, 384), (512, 384), (512, 384), (512, 384), (512, 384), (512, 384), (512, 384), (512, 384), (512, 384), (512, 384), (512, 384), (512, 384), (512, 384), (512, 384), (512, 384), (512, 384), (512, 384), (512, 384), (512, 384), (512, 384), (512, 384), (512, 384), (512, 384), (510, 384), (507, 384), (504, 384), (503, 384), (502, 384), (501, 384), (501, 384), (501, 384), (501, 384), (501, 384), (501, 384), (501, 384), (501, 384), (501, 384), (501, 384), (501, 384), (501, 384), (501, 384), (501, 384), (501, 384), (501, 384), (501, 384), (502, 384), (507, 384), (515, 384), (526, 384), (558, 377), (591, 366), (630, 355), (677, 346), (764, 326)]",347.03859814900795,"[2, 6, 4, 3, 9, 5, 7, 1, 8]","(0, 0.25)",CHN002D,CHN,D,Chinese,Wed Sep 26 13:30:51 2018,Mouse
2,1,4,0,73,2,2,1,437,267,170,137,0,500,200,8000,"[(512, 384), (512, 384), (512, 384), (512, 384), (512, 384), (512, 384), (512, 384), (512, 384), (512, 384), (512, 384), (512, 384), (512, 384), (512, 384), (512, 384), (512, 384), (512, 384), (512, 384), (512, 384), (512, 384), (512, 384), (512, 384), (512, 384), (512, 384), (512, 384), (512, 384), (512, 384), (513, 385), (515, 390), (517, 392), (521, 393), (525, 397), (532, 402), (538, 405), (544, 408), (557, 416), (566, 421), (579, 425), (591, 431), (630, 442), (650, 449), (667, 456), (687, 462), (727, 476), (749, 482)]",22.46519765257984,"[2, 6, 4, 3, 9, 5, 7, 1, 8]","(0, 0.25)",CHN002D,CHN,D,Chinese,Wed Sep 26 13:30:51 2018,Mouse
2,1,4,0,74,6,9,0,-356,276,80,136,0,500,200,8000,"[(512, 384), (512, 384), (512, 384), (512, 384), (512, 384), (512, 384), (512, 384), (512, 384), (512, 384), (512, 384), (512, 384), (512, 384), (512, 384), (512, 384), (512, 384), (512, 384), (512, 384), (512, 384), (512, 384), (512, 384), (512, 384), (512, 384), (512, 384), (512, 384), (512, 384), (512, 384), (512, 384), (509, 383), (502, 381), (483, 378), (468, 377), (449, 376), (420, 372), (346, 369), (302, 369), (249, 365)]",184.1320602549526,"[2, 6, 4, 3, 9, 5, 7, 1, 8]","(0, 0.25)",CHN002D,CHN,D,Chinese,Wed Sep 26 13:30:51 2018,Mouse
2,1,4,0,75,7,4,0,-407,47,360,137,0,500,200,8000,"[(512, 384), (512, 384), (512, 384), (512, 384), (509, 382), (508, 382), (506, 381), (506, 381), (503, 380), (501, 379), (500, 379), (499, 378), (499, 378), (498, 378), (498, 377), (497, 377), (497, 376), (496, 376), (496, 375), (496, 375), (496, 375), (496, 374), (496, 374), (496, 374), (496, 374), (496, 374), (496, 374), (496, 373), (496, 373), (496, 374), (496, 374), (496, 376), (494, 380), (493, 384), (492, 393), (491, 404), (486, 452), (479, 484), (470, 520), (450, 568), (402, 658)]",111.8734796112512,"[2, 6, 4, 3, 9, 5, 7, 1, 8]","(0, 0.25)",CHN002D,CHN,D,Chinese,Wed Sep 26 13:30:51 2018,Mouse
2,1,4,0,76,6,6,1,748,548,200,138,0,500,200,8000,"[(512, 384), (512, 384), (512, 384), (512, 384), (512, 384), (512, 384), (512, 384), (512, 384), (512, 384), (512, 384), (512, 384), (512, 384), (512, 384), (512, 384), (512, 384), (512, 384), (512, 384), (512, 384), (512, 384), (512, 384), (512, 384), (512, 384), (512, 384), (512, 384), (512, 384), (512, 384), (512, 384), (512, 384), (512, 384), (512, 384), (512, 384), (512, 384), (512, 384), (512, 384), (512, 384), (512, 384), (512, 384), (512, 384), (512, 384), (512, 384), (512, 384), (512, 384), (512, 384), (512, 384), (512, 384), (512, 384), (512, 384), (512, 384), (512, 384), (512, 384), (512, 384), (512, 384), (512, 384), (512, 384), (519, 391), (524, 393), (528, 398), (530, 402), (537, 412), (542, 417), (546, 424), (551, 430), (558, 445), (562, 451), (565, 459), (568, 467), (577, 485), (584, 492), (589, 498), (596, 507), (608, 528), (615, 542), (622, 554), (631, 571), (647, 596)]",57.51132349257092,"[2, 6, 4, 3, 9, 5, 7, 1, 8]","(0, 0.25)",CHN002D,CHN,D,Chinese,Wed Sep 26 13:30:51 2018,Mouse
2,1,4,0,77,1,2,0,-868,798,70,138,0,500,200,8000,"[(512, 384), (512, 384), (512, 384), (512, 384), (512, 384), (512, 384), (512, 384), (512, 384), (512, 384), (512, 384), (512, 384), (512, 384), (512, 384), (512, 384), (512, 384), (512, 384), (512, 384), (512, 384), (512, 384), (512, 384), (512, 384), (512, 384), (512, 384), (512, 384), (512, 384), (512, 384), (512, 384), (512, 384), (512, 384), (512, 384), (512, 384), (512, 384), (512, 384), (512, 384), (512, 384), (512, 384), (512, 384), (512, 384), (512, 384), (512, 384), (512, 384), (512, 384), (512, 384), (512, 384), (512, 384), (512, 384), (512, 384), (512, 384), (512, 384), (512, 384), (512, 384), (512, 384), (512, 384), (512, 384), (512, 384), (512, 384), (512, 384), (512, 384), (512, 384), (512, 384), (512, 384), (512, 384), (512, 384), (512, 384), (512, 384), (512, 384), (512, 384), (512, 384), (512, 384), (512, 384), (512, 384), (512, 384), (512, 384), (512, 384), (512, 384), (512, 384), (512, 384), (512, 384), (512, 384), (514, 385), (520, 389), (531, 396), (565, 416), (600, 434), (651, 457), (702, 475), (812, 518)]",24.068723301874858,"[2, 6, 4, 3, 9, 5, 7, 1, 8]","(0, 0.25)",CHN002D,CHN,D,Chinese,Wed Sep 26 13:30:51 2018,Mouse
2,1,4,0,78,9,9,1,528,438,90,139,0,500,200,8000,"[(512, 384), (512, 384), (512, 384), (512, 384), (512, 384), (512, 384), (512, 384), (512, 384), (512, 384), (512, 384), (512, 384), (512, 384), (512, 384), (512, 384), (512, 384), (512, 384), (512, 384), (512, 384), (512, 384), (512, 384), (512, 384), (512, 384), (512, 384), (512, 384), (512, 384), (512, 384), (512, 384), (512, 384), (512, 384), (512, 384), (512, 384), (512, 384), (512, 384), (512, 384), (512, 384), (512, 384), (512, 384), (512, 384), (512, 384), (512, 384), (512, 384), (512, 384), (512, 384), (509, 384), (500, 384), (489, 384), (455, 383), (429, 381), (401, 380), (366, 376), (304, 373), (271, 373), (239, 370)]",182.93567344642116,"[2, 6, 4, 3, 9, 5, 7, 1, 8]","(0, 0.25)",CHN002D,CHN,D,Chinese,Wed Sep 26 13:30:51 2018,Mouse
2,1,4,0,79,4,4,1,338,228,110,139,0,500,200,8000,"[(512, 384), (512, 384), (512, 384), (512, 384), (512, 384), (512, 384), (512, 384), (512, 384), (512, 384), (512, 384), (512, 384), (512, 384), (512, 384), (512, 384), (512, 384), (512, 384), (512, 384), (512, 384), (512, 384), (512, 384), (512, 384), (512, 384), (515, 387), (515, 390), (520, 402), (523, 408), (524, 415), (528, 424), (529, 451), (530, 472), (530, 500), (530, 533), (530, 617), (530, 664)]",86.32176127800662,"[2, 6, 4, 3, 9, 5, 7, 1, 8]","(0, 0.25)",CHN002D,CHN,D,Chinese,Wed Sep 26 13:30:51 2018,Mouse
2,1,4,0,80,4,4,1,57,17,40,138,0,500,200,8000,"[(507, 396), (479, 456), (462, 491), (439, 532), (423, 566), (394, 651)]",113.84291534745152,"[2, 6, 4, 3, 9, 5, 7, 1, 8]","(0, 0.25)",CHN002D,CHN,D,Chinese,Wed Sep 26 13:30:51 2018,Mouse
2,1,4,0,81,5,9,0,-177,67,110,137,0,500,200,8000,"[(512, 384), (512, 384), (512, 384), (512, 384), (512, 384), (512, 384), (510, 384), (506, 383), (499, 382), (491, 382), (465, 380), (451, 379), (430, 376), (401, 375), (338, 370), (310, 370), (271, 366), (234, 364)]",184.11490909823726,"[2, 6, 4, 3, 9, 5, 7, 1, 8]","(0, 0.25)",CHN002D,CHN,D,Chinese,Wed Sep 26 13:30:51 2018,Mouse
2,1,4,0,82,4,4,1,308,238,70,138,0,500,200,8000,"[(512, 384), (512, 384), (512, 384), (512, 384), (512, 384), (512, 384), (512, 384), (512, 384), (512, 384), (512, 384), (512, 384), (512, 384), (512, 384), (512, 384), (512, 384), (512, 384), (512, 384), (512, 384), (512, 384), (512, 384), (512, 384), (512, 384), (512, 384), (512, 387), (509, 398), (506, 408), (499, 425), (481, 486), (465, 534), (446, 592), (428, 645)]",107.84020430770352,"[2, 6, 4, 3, 9, 5, 7, 1, 8]","(0, 0.25)",CHN002D,CHN,D,Chinese,Wed Sep 26 13:30:51 2018,Mouse
2,1,4,0,83,1,6,0,-328,218,110,138,0,500,200,8000,"[(512, 384), (512, 384), (512, 384), (512, 384), (512, 384), (512, 384), (512, 384), (512, 384), (512, 384), (512, 384), (512, 384), (512, 384), (512, 384), (512, 384), (512, 384), (512, 384), (512, 384), (512, 384), (512, 384), (512, 384), (512, 384), (512, 385), (515, 392), (533, 410), (542, 417), (548, 423), (556, 432), (578, 464), (595, 485), (611, 505), (629, 528), (662, 578), (672, 604)]",53.97262661489639,"[2, 6, 4, 3, 9, 5, 7, 1, 8]","(0, 0.25)",CHN002D,CHN,D,Chinese,Wed Sep 26 13:30:51 2018,Mouse
2,1,4,0,84,9,9,1,300,220,80,139,0,500,200,8000,"[(512, 384), (512, 384), (512, 384), (512, 384), (512, 384), (512, 384), (512, 384), (512, 384), (512, 384), (512, 384), (512, 384), (512, 384), (512, 384), (512, 384), (512, 384), (512, 384), (512, 384), (512, 384), (512, 384), (512, 384), (512, 384), (505, 384), (499, 384), (489, 384), (475, 384), (436, 384), (402, 384), (369, 384), (330, 384), (260, 385)]",179.77263698900944,"[2, 6, 4, 3, 9, 5, 7, 1, 8]","(0, 0.25)",CHN002D,CHN,D,Chinese,Wed Sep 26 13:30:51 2018,Mouse
2,1,4,0,85,3,6,0,-829,348,481,139,0,500,200,8000,"[(512, 384), (512, 384), (512, 384), (512, 384), (512, 384), (512, 384), (512, 384), (512, 384), (512, 384), (512, 384), (512, 384), (512, 384), (512, 384), (512, 384), (512, 384), (512, 384), (512, 384), (512, 384), (512, 384), (512, 384), (512, 384), (512, 384), (512, 384), (512, 384), (512, 384), (512, 384), (512, 384), (512, 384), (512, 384), (512, 384), (512, 384), (512, 384), (512, 384), (512, 384), (512, 385), (513, 388), (515, 390), (516, 392), (520, 397), (523, 398), (524, 400), (525, 400), (525, 400), (525, 400), (525, 400), (525, 400), (525, 400), (525, 400), (527, 402), (527, 403), (531, 405), (532, 406), (532, 407), (534, 407), (534, 407), (535, 408), (536, 409), (537, 409), (537, 409), (537, 409), (537, 409), (537, 409), (537, 409), (537, 409), (537, 409), (537, 409), (537, 409), (537, 409), (537, 409), (537, 409), (537, 410), (537, 410), (537, 411), (538, 412), (539, 417), (541, 420), (543, 426), (547, 437), (565, 479), (575, 507), (590, 544), (605, 584), (635, 668)]",66.58263158670218,"[2, 6, 4, 3, 9, 5, 7, 1, 8]","(0, 0.25)",CHN002D,CHN,D,Chinese,Wed Sep 26 13:30:51 2018,Mouse
2,1,4,0,86,8,8,1,546,366,180,140,0,500,200,8000,"[(512, 384), (512, 384), (512, 384), (512, 384), (512, 384), (512, 384), (512, 384), (512, 384), (512, 384), (512, 384), (512, 384), (512, 384), (512, 384), (512, 384), (512, 384), (512, 384), (512, 384), (512, 384), (512, 384), (512, 384), (512, 384), (512, 384), (512, 384), (512, 384), (512, 384), (512, 384), (512, 384), (512, 384), (512, 384), (512, 384), (512, 384), (512, 384), (512, 384), (512, 384), (512, 384), (512, 384), (514, 384), (517, 384), (526, 382), (535, 380), (542, 378), (553, 375), (581, 373), (597, 372), (615, 371), (633, 369), (667, 369), (686, 369), (701, 369), (715, 369), (736, 369), (745, 369), (752, 369), (757, 370), (762, 371)]",357.02330053188825,"[2, 6, 4, 3, 9, 5, 7, 1, 8]","(0, 0.25)",CHN002D,CHN,D,Chinese,Wed Sep 26 13:30:51 2018,Mouse
2,1,4,0,87,8,8,1,409,319,90,140,0,500,200,8000,"[(512, 384), (512, 384), (512, 384), (512, 384), (512, 384), (512, 384), (512, 384), (512, 384), (512, 384), (512, 384), (512, 384), (512, 384), (512, 384), (512, 384), (512, 384), (512, 384), (512, 384), (512, 384), (512, 384), (512, 384), (512, 384), (512, 384), (512, 384), (512, 384), (512, 384), (512, 384), (512, 384), (512, 384), (512, 384), (512, 384), (512, 384), (515, 384), (519, 380), (525, 375), (546, 361), (563, 352), (581, 342), (608, 329), (672, 300), (706, 286), (742, 277)]",335.0513319951472,"[2, 6, 4, 3, 9, 5, 7, 1, 8]","(0, 0.25)",CHN002D,CHN,D,Chinese,Wed Sep 26 13:30:51 2018,Mouse
2,1,4,0,88,3,3,1,607,17,590,139,0,500,200,8000,"[(512, 384), (511, 384), (511, 384), (510, 384), (510, 384), (510, 384), (510, 384), (510, 384), (510, 384), (510, 383), (510, 383), (510, 383), (510, 383), (510, 383), (510, 383), (510, 383), (510, 383), (510, 383), (510, 383), (510, 383), (510, 383), (510, 383), (510, 383), (510, 383), (509, 383), (509, 383), (509, 383), (509, 383), (509, 383), (509, 383), (509, 383), (508, 383), (508, 383), (508, 383), (508, 383), (508, 383), (508, 383), (508, 383), (508, 383), (508, 383), (508, 383), (508, 383), (508, 383), (508, 383), (508, 383), (508, 383), (508, 383), (508, 383), (508, 383), (508, 383), (507, 383), (506, 385), (500, 389), (497, 391), (489, 399), (480, 408), (441, 443), (412, 468), (375, 500), (330, 532), (232, 607)]",141.46518234063979,"[2, 6, 4, 3, 9, 5, 7, 1, 8]","(0, 0.25)",CHN002D,CHN,D,Chinese,Wed Sep 26 13:30:51 2018,Mouse
2,1,4,0,89,7,7,1,388,308,80,138,0,500,200,8000,"[(512, 384), (512, 384), (512, 384), (512, 384), (512, 384), (512, 384), (512, 384), (512, 384), (512, 384), (512, 384), (512, 384), (512, 384), (512, 384), (512, 384), (512, 384), (512, 384), (512, 384), (512, 384), (512, 384), (512, 384), (512, 384), (512, 384), (512, 384), (512, 384), (512, 384), (512, 384), (512, 384), (512, 384), (512, 384), (512, 384), (512, 379), (514, 369), (517, 355), (521, 342), (526, 298), (530, 269), (533, 226), (535, 181), (539, 92)]",275.2828755486762,"[2, 6, 4, 3, 9, 5, 7, 1, 8]","(0, 0.25)",CHN002D,CHN,D,Chinese,Wed Sep 26 13:30:51 2018,Mouse
2,1,4,0,90,7,7,1,277,177,100,137,0,500,200,8000,"[(512, 384), (512, 384), (512, 384), (512, 384), (512, 384), (512, 384), (512, 384), (512, 384), (512, 384), (512, 384), (512, 384), (512, 384), (512, 384), (512, 384), (512, 384), (512, 384), (512, 384), (512, 382), (508, 354), (505, 343), (500, 332), (491, 315), (466, 276), (456, 257), (440, 237), (426, 217), (393, 167), (382, 150)]",240.94539590092285,"[2, 6, 4, 3, 9, 5, 7, 1, 8]","(0, 0.25)",CHN002D,CHN,D,Chinese,Wed Sep 26 13:30:51 2018,Mouse
2,1,4,0,91,1,2,0,-227,97,130,136,0,500,200,8000,"[(512, 384), (512, 384), (512, 384), (512, 384), (512, 384), (512, 384), (512, 384), (512, 384), (512, 384), (516, 387), (519, 389), (521, 390), (524, 392), (534, 399), (540, 403), (548, 407), (558, 411), (595, 428), (618, 437), (646, 446), (677, 456), (744, 477), (778, 488)]",21.354377364898106,"[2, 6, 4, 3, 9, 5, 7, 1, 8]","(0, 0.25)",CHN002D,CHN,D,Chinese,Wed Sep 26 13:30:51 2018,Mouse
2,1,4,0,92,2,2,1,728,198,530,137,0,500,200,8000,"[(512, 384), (512, 384), (512, 384), (512, 384), (512, 384), (512, 384), (512, 384), (512, 384), (512, 384), (512, 384), (512, 384), (512, 384), (512, 384), (512, 384), (512, 384), (512, 384), (512, 384), (512, 384), (512, 384), (513, 384), (514, 385), (519, 385), (522, 385), (524, 385), (528, 385), (539, 385), (546, 385), (553, 386), (559, 386), (575, 389), (586, 389), (600, 390), (612, 392), (644, 399), (658, 400), (670, 402), (684, 405), (706, 408), (715, 411), (725, 413), (732, 413), (743, 417), (747, 418), (752, 420), (755, 422), (758, 422), (758, 422), (758, 422), (758, 422), (758, 422), (758, 422), (758, 422), (758, 422), (758, 422), (758, 422), (758, 422), (758, 422), (758, 422), (758, 422), (758, 422), (758, 422), (758, 422), (758, 422), (758, 422), (758, 422), (758, 422), (758, 422), (758, 422), (758, 422), (758, 422), (758, 422), (758, 422), (760, 422)]",8.711437551950366,"[2, 6, 4, 3, 9, 5, 7, 1, 8]","(0, 0.25)",CHN002D,CHN,D,Chinese,Wed Sep 26 13:30:51 2018,Mouse
2,1,4,0,93,4,6,0,-447,297,150,137,0,500,200,8000,"[(512, 384), (512, 384), (512, 384), (512, 384), (512, 384), (512, 384), (512, 384), (512, 384), (512, 384), (512, 384), (512, 384), (512, 384), (512, 384), (512, 384), (512, 384), (512, 384), (512, 384), (512, 384), (512, 384), (512, 384), (512, 384), (512, 384), (512, 384), (512, 384), (512, 384), (512, 384), (512, 384), (512, 384), (512, 384), (512, 386), (515, 395), (524, 411), (529, 419), (534, 428), (539, 438), (548, 458), (555, 470), (561, 480), (569, 493), (587, 518), (600, 531), (614, 547), (625, 561), (642, 587), (650, 597)]",57.0613094570445,"[2, 6, 4, 3, 9, 5, 7, 1, 8]","(0, 0.25)",CHN002D,CHN,D,Chinese,Wed Sep 26 13:30:51 2018,Mouse
2,1,4,0,94,6,3,0,-1138,308,830,138,0,500,200,8000,"[(512, 384), (512, 384), (512, 384), (512, 384), (512, 384), (512, 384), (512, 384), (512, 384), (512, 384), (512, 384), (512, 384), (512, 384), (512, 384), (512, 384), (512, 384), (512, 384), (512, 384), (512, 384), (512, 384), (512, 384), (512, 384), (512, 384), (512, 384), (512, 384), (512, 384), (512, 384), (512, 384), (512, 384), (512, 384), (512, 384), (511, 385), (507, 388), (502, 391), (487, 398), (481, 402), (473, 407), (462, 413), (441, 423), (431, 429), (422, 433), (414, 438), (399, 444), (394, 447), (391, 448), (389, 448), (387, 450), (386, 450), (386, 450), (386, 450), (386, 450), (386, 450), (386, 450), (386, 450), (386, 450), (386, 450), (386, 450), (386, 450), (386, 450), (386, 450), (386, 450), (386, 450), (386, 450), (386, 450), (386, 450), (386, 450), (386, 450), (386, 450), (386, 450), (386, 450), (386, 450), (386, 450), (386, 450), (386, 450), (386, 450), (386, 450), (386, 450), (386, 450), (386, 450), (386, 450), (386, 450), (386, 450), (386, 450), (386, 450), (386, 450), (384, 450), (372, 449), (363, 448), (352, 447), (344, 446), (333, 446), (330, 446), (328, 446), (325, 446), (324, 446), (323, 446), (322, 446), (322, 446), (322, 446), (322, 446), (322, 446), (322, 446), (322, 446), (322, 446), (322, 446), (322, 446), (322, 446), (322, 446), (322, 446), (322, 446), (320, 455), (318, 466), (316, 479), (311, 490), (295, 519)]",148.11343822985668,"[2, 6, 4, 3, 9, 5, 7, 1, 8]","(0, 0.25)",CHN002D,CHN,D,Chinese,Wed Sep 26 13:30:51 2018,Mouse
2,1,4,0,95,1,3,0,-488,378,110,139,0,500,200,8000,"[(512, 384), (512, 384), (512, 384), (512, 384), (512, 384), (512, 384), (512, 384), (512, 384), (512, 384), (512, 384), (512, 384), (512, 384), (512, 384), (512, 384), (512, 384), (512, 384), (512, 384), (512, 384), (512, 384), (512, 384), (512, 384), (512, 384), (512, 384), (512, 384), (512, 384), (512, 384), (512, 384), (512, 384), (512, 384), (512, 384), (512, 384), (512, 384), (512, 384), (512, 384), (512, 384), (512, 384), (512, 384), (511, 385), (508, 388), (505, 390), (500, 394), (493, 400), (470, 417), (456, 426), (437, 437), (417, 453), (360, 500), (319, 540), (281, 576)]",140.26769712804423,"[2, 6, 4, 3, 9, 5, 7, 1, 8]","(0, 0.25)",CHN002D,CHN,D,Chinese,Wed Sep 26 13:30:51 2018,Mouse
2,1,4,0,96,7,6,0,-668,418,250,140,0,500,200,8000,"[(512, 384), (512, 384), (512, 384), (512, 384), (512, 384), (512, 384), (512, 384), (512, 384), (512, 384), (512, 384), (512, 384), (512, 384), (512, 384), (512, 384), (512, 384), (512, 384), (512, 384), (512, 384), (512, 384), (512, 384), (512, 384), (512, 384), (512, 384), (512, 384), (512, 384), (512, 384), (512, 384), (512, 384), (512, 384), (512, 384), (512, 384), (512, 384), (512, 384), (512, 384), (512, 384), (512, 384), (512, 384), (512, 384), (512, 384), (512, 384), (512, 384), (512, 385), (512, 387), (512, 390), (512, 394), (512, 396), (512, 397), (512, 398), (512, 398), (512, 398), (512, 398), (512, 398), (512, 398), (512, 399), (512, 400), (514, 405), (518, 414), (520, 422), (521, 432), (524, 442), (535, 470), (542, 490), (554, 516), (565, 540), (592, 593), (601, 610), (609, 625)]",68.07572627128161,"[2, 6, 4, 3, 9, 5, 7, 1, 8]","(0, 0.25)",CHN002D,CHN,D,Chinese,Wed Sep 26 13:30:51 2018,Mouse
2,1,4,0,97,5,2,0,-690,570,120,141,0,500,200,8000,"[(512, 384), (512, 384), (512, 384), (512, 384), (512, 384), (512, 384), (512, 384), (512, 384), (512, 384), (512, 384), (512, 384), (512, 384), (512, 384), (512, 384), (512, 384), (512, 384), (512, 384), (512, 384), (512, 384), (512, 384), (512, 384), (512, 384), (512, 384), (512, 384), (512, 384), (512, 384), (512, 384), (512, 384), (512, 384), (512, 384), (512, 384), (512, 384), (512, 384), (512, 384), (512, 384), (512, 384), (512, 384), (512, 384), (512, 384), (512, 384), (512, 384), (512, 384), (512, 384), (512, 384), (512, 384), (512, 384), (512, 384), (512, 384), (512, 384), (512, 384), (512, 384), (512, 384), (512, 384), (512, 384), (512, 384), (512, 384), (522, 391), (528, 397), (535, 400), (542, 405), (558, 414), (566, 416), (577, 418), (590, 422), (624, 432), (647, 439), (675, 448), (706, 460), (773, 479)]",20.0007305691796,"[2, 6, 4, 3, 9, 5, 7, 1, 8]","(0, 0.25)",CHN002D,CHN,D,Chinese,Wed Sep 26 13:30:51 2018,Mouse
2,1,4,0,98,5,5,1,428,158,270,142,0,500,200,8000,"[(512, 384), (512, 384), (512, 384), (512, 384), (512, 384), (512, 384), (512, 384), (512, 384), (512, 384), (512, 384), (512, 384), (512, 384), (512, 384), (512, 384), (512, 384), (511, 384), (511, 384), (511, 384), (506, 378), (500, 374), (494, 370), (489, 367), (480, 361), (477, 358), (472, 356), (467, 352), (457, 348), (451, 345), (447, 344), (445, 341), (442, 340), (440, 338), (437, 338), (433, 335), (428, 331), (421, 326), (415, 320), (407, 315), (388, 299), (374, 288), (351, 268), (325, 247), (252, 189)]",216.86989764584402,"[2, 6, 4, 3, 9, 5, 7, 1, 8]","(0, 0.25)",CHN002D,CHN,D,Chinese,Wed Sep 26 13:30:51 2018,Mouse
2,1,4,0,99,2,2,1,227,27,200,142,0,500,200,8000,"[(512, 384), (512, 384), (514, 385), (515, 386), (517, 387), (519, 389), (522, 391), (523, 392), (524, 392), (526, 394), (530, 397), (534, 400), (540, 406), (548, 410), (568, 424), (583, 433), (599, 441), (616, 452), (648, 471), (664, 479), (680, 489), (699, 497), (746, 519)]",29.981639368849336,"[2, 6, 4, 3, 9, 5, 7, 1, 8]","(0, 0.25)",CHN002D,CHN,D,Chinese,Wed Sep 26 13:30:51 2018,Mouse
2,1,4,0,100,3,3,1,217,147,70,141,0,500,200,8000,"[(512, 384), (512, 384), (512, 384), (512, 384), (512, 384), (512, 384), (512, 384), (512, 384), (512, 384), (512, 384), (512, 384), (512, 384), (512, 384), (512, 384), (511, 388), (502, 397), (490, 407), (470, 422), (413, 463), (367, 491), (320, 524), (259, 561)]",145.02318165290555,"[2, 6, 4, 3, 9, 5, 7, 1, 8]","(0, 0.25)",CHN002D,CHN,D,Chinese,Wed Sep 26 13:30:51 2018,Mouse
2,1,4,0,101,4,2,0,-398,338,60,140,0,500,200,8000,"[(512, 384), (512, 384), (512, 384), (512, 384), (512, 384), (512, 384), (512, 384), (512, 384), (512, 384), (512, 384), (512, 384), (512, 384), (512, 384), (512, 384), (512, 384), (512, 384), (512, 384), (512, 384), (512, 384), (512, 384), (512, 384), (512, 384), (512, 384), (512, 384), (512, 384), (512, 384), (512, 384), (512, 384), (512, 384), (512, 384), (512, 384), (512, 384), (512, 384), (514, 385), (517, 387), (541, 399), (575, 415), (619, 439), (670, 464), (778, 511)]",25.521844232995686,"[2, 6, 4, 3, 9, 5, 7, 1, 8]","(0, 0.25)",CHN002D,CHN,D,Chinese,Wed Sep 26 13:30:51 2018,Mouse
2,1,4,0,102,7,7,1,368,308,60,141,0,500,200,8000,"[(512, 384), (512, 384), (512, 384), (512, 384), (512, 384), (512, 384), (512, 384), (512, 384), (512, 384), (512, 384), (512, 384), (512, 384), (512, 384), (512, 384), (512, 384), (512, 384), (512, 384), (512, 384), (512, 384), (512, 384), (512, 384), (512, 384), (512, 384), (512, 384), (512, 384), (512, 384), (512, 384), (512, 384), (512, 384), (512, 384), (512, 383), (507, 367), (497, 338), (486, 307), (453, 217), (435, 167), (419, 117)]",250.79602649449993,"[2, 6, 4, 3, 9, 5, 7, 1, 8]","(0, 0.25)",CHN002D,CHN,D,Chinese,Wed Sep 26 13:30:51 2018,Mouse
2,1,4,0,103,3,3,1,568,518,50,141,0,500,200,8000,"[(512, 384), (512, 384), (512, 384), (512, 384), (512, 384), (512, 384), (512, 384), (512, 384), (512, 384), (512, 384), (512, 384), (512, 384), (512, 384), (512, 384), (512, 384), (512, 384), (512, 384), (512, 384), (512, 384), (512, 384), (512, 384), (512, 384), (512, 384), (512, 384), (512, 384), (512, 384), (512, 384), (512, 384), (512, 384), (512, 384), (512, 384), (512, 384), (512, 384), (512, 384), (512, 384), (512, 384), (512, 384), (512, 384), (512, 384), (512, 384), (512, 384), (512, 384), (512, 384), (512, 384), (512, 384), (512, 384), (512, 384), (512, 384), (512, 384), (512, 384), (512, 384), (506, 390), (457, 438), (425, 464), (385, 503), (340, 539), (239, 613)]",140.00913957320734,"[2, 6, 4, 3, 9, 5, 7, 1, 8]","(0, 0.25)",CHN002D,CHN,D,Chinese,Wed Sep 26 13:30:51 2018,Mouse
2,1,4,0,104,3,2,0,-1069,979,90,140,0,500,200,8000,"[(512, 384), (512, 384), (512, 384), (512, 384), (512, 384), (512, 384), (512, 384), (512, 384), (512, 384), (512, 384), (512, 384), (512, 384), (512, 384), (512, 384), (512, 384), (512, 384), (512, 384), (512, 384), (512, 384), (512, 384), (512, 384), (512, 384), (512, 384), (512, 384), (512, 384), (512, 384), (512, 384), (512, 384), (512, 384), (512, 384), (512, 384), (512, 384), (512, 384), (512, 384), (512, 384), (512, 384), (512, 384), (512, 384), (512, 384), (512, 384), (512, 384), (512, 384), (512, 384), (512, 384), (512, 384), (512, 384), (512, 384), (512, 384), (512, 384), (512, 384), (512, 384), (512, 384), (512, 384), (512, 384), (512, 384), (512, 384), (512, 384), (512, 384), (512, 384), (512, 384), (512, 384), (512, 384), (512, 384), (512, 384), (512, 384), (512, 384), (512, 384), (512, 384), (512, 384), (512, 384), (512, 384), (512, 384), (512, 384), (512, 384), (512, 384), (512, 384), (512, 384), (512, 384), (512, 384), (512, 384), (512, 384), (512, 384), (512, 384), (512, 384), (512, 384), (512, 384), (512, 384), (512, 384), (512, 384), (512, 384), (512, 384), (512, 384), (512, 384), (512, 384), (512, 384), (512, 384), (512, 384), (513, 386), (532, 398), (549, 408), (569, 417), (593, 428), (638, 451), (665, 465), (684, 477), (706, 487), (757, 513)]",27.768178242602954,"[2, 6, 4, 3, 9, 5, 7, 1, 8]","(0, 0.25)",CHN002D,CHN,D,Chinese,Wed Sep 26 13:30:51 2018,Mouse
2,1,4,0,105,8,1,0,-267,217,50,141,0,500,200,8000,"[(512, 384), (512, 384), (512, 384), (512, 384), (512, 384), (512, 384), (512, 384), (512, 384), (512, 384), (512, 384), (512, 384), (512, 384), (512, 384), (512, 384), (512, 384), (512, 384), (512, 384), (512, 384), (512, 384), (512, 384), (512, 384), (514, 380), (541, 333), (563, 300), (587, 266), (614, 229), (661, 178)]",305.87825225980436,"[2, 6, 4, 3, 9, 5, 7, 1, 8]","(0, 0.25)",CHN002D,CHN,D,Chinese,Wed Sep 26 13:30:51 2018,Mouse
2,1,4,0,106,9,9,1,388,118,270,142,0,500,200,8000,"[(512, 384), (512, 384), (512, 384), (512, 384), (512, 384), (512, 384), (512, 384), (512, 384), (512, 384), (512, 384), (512, 384), (511, 385), (509, 390), (505, 393), (494, 400), (489, 405), (482, 409), (477, 412), (463, 422), (454, 425), (446, 431), (438, 434), (422, 440), (415, 444), (408, 446), (400, 451), (385, 454), (379, 456), (369, 457), (361, 457), (346, 457), (339, 456), (333, 455), (326, 454), (309, 451), (299, 450), (287, 447), (277, 445), (247, 437)]",168.6900675259798,"[2, 6, 4, 3, 9, 5, 7, 1, 8]","(0, 0.25)",CHN002D,CHN,D,Chinese,Wed Sep 26 13:30:51 2018,Mouse
2,1,4,0,107,7,7,1,418,348,70,142,0,500,200,8000,"[(512, 384), (512, 384), (512, 384), (512, 384), (512, 384), (512, 384), (512, 384), (512, 384), (512, 384), (512, 384), (512, 384), (512, 384), (512, 384), (512, 384), (512, 384), (512, 384), (512, 384), (512, 384), (512, 384), (512, 384), (512, 384), (512, 384), (512, 384), (512, 384), (512, 384), (512, 384), (512, 384), (512, 384), (512, 384), (512, 384), (512, 384), (512, 384), (512, 384), (512, 384), (521, 358), (532, 329), (542, 303), (549, 276), (553, 223), (551, 186), (549, 147), (543, 93)]",276.080740932817,"[2, 6, 4, 3, 9, 5, 7, 1, 8]","(0, 0.25)",CHN002D,CHN,D,Chinese,Wed Sep 26 13:30:51 2018,Mouse
2,1,4,0,108,1,6,0,-78,18,60,141,0,500,200,8000,"[(517, 390), (523, 400), (530, 413), (553, 449), (570, 477), (588, 507), (612, 543), (663, 623)]",57.71533698889477,"[2, 6, 4, 3, 9, 5, 7, 1, 8]","(0, 0.25)",CHN002D,CHN,D,Chinese,Wed Sep 26 13:30:51 2018,Mouse
2,1,4,0,109,6,4,0,-1138,518,620,142,0,500,200,8000,"[(512, 384), (512, 384), (512, 384), (512, 384), (512, 384), (512, 384), (512, 384), (512, 384), (512, 384), (512, 384), (512, 384), (512, 384), (512, 384), (512, 384), (512, 384), (512, 384), (512, 384), (512, 384), (512, 384), (512, 384), (512, 384), (512, 384), (512, 384), (512, 384), (512, 384), (512, 384), (512, 384), (512, 384), (512, 384), (512, 384), (512, 384), (512, 384), (512, 384), (512, 384), (512, 384), (512, 384), (512, 384), (512, 384), (512, 384), (512, 384), (512, 384), (512, 384), (512, 384), (512, 384), (512, 384), (512, 384), (512, 384), (512, 384), (512, 384), (512, 384), (512, 384), (512, 393), (512, 405), (512, 416), (512, 436), (512, 448), (511, 461), (511, 472), (510, 491), (508, 499), (508, 506), (508, 512), (508, 524), (508, 529), (508, 532), (508, 535), (508, 541), (508, 544), (508, 545), (508, 546), (508, 547), (508, 547), (508, 547), (509, 547), (509, 547), (509, 547), (509, 547), (509, 548), (509, 548), (509, 548), (509, 548), (509, 548), (509, 548), (509, 548), (509, 548), (509, 548), (509, 548), (509, 548), (509, 548), (509, 548), (509, 548), (509, 548), (509, 548), (509, 548), (509, 548), (509, 548), (509, 548), (509, 548), (509, 548), (509, 548), (509, 548), (509, 548), (509, 548), (509, 548), (509, 548), (509, 548), (509, 548), (509, 548), (509, 551), (508, 556), (499, 576), (490, 593), (479, 617), (467, 646)]",99.7457869552949,"[2, 6, 4, 3, 9, 5, 7, 1, 8]","(0, 0.25)",CHN002D,CHN,D,Chinese,Wed Sep 26 13:30:51 2018,Mouse
2,1,4,0,110,5,5,1,388,208,180,143,0,500,200,8000,"[(512, 384), (512, 384), (512, 384), (512, 384), (512, 384), (512, 384), (512, 384), (512, 384), (512, 384), (512, 384), (512, 384), (512, 384), (512, 384), (512, 384), (512, 384), (512, 384), (512, 384), (512, 384), (512, 384), (512, 384), (510, 384), (508, 382), (503, 376), (493, 363), (488, 358), (482, 351), (476, 342), (463, 328), (455, 318), (448, 310), (440, 301), (426, 284), (417, 277), (406, 267), (395, 258), (369, 241), (348, 229), (334, 222), (318, 210)]",221.88915934650922,"[2, 6, 4, 3, 9, 5, 7, 1, 8]","(0, 0.25)",CHN002D,CHN,D,Chinese,Wed Sep 26 13:30:51 2018,Mouse
2,1,4,0,111,6,2,0,-77,17,60,143,0,500,200,8000,"[(528, 394), (545, 407), (562, 420), (603, 451), (628, 469), (651, 487), (677, 508), (728, 545)]",36.699754776959445,"[2, 6, 4, 3, 9, 5, 7, 1, 8]","(0, 0.25)",CHN002D,CHN,D,Chinese,Wed Sep 26 13:30:51 2018,Mouse
2,1,4,0,112,1,1,1,368,108,260,144,0,500,200,8000,"[(512, 384), (512, 384), (512, 384), (512, 384), (512, 384), (512, 384), (512, 384), (512, 384), (512, 384), (512, 384), (512, 382), (514, 378), (515, 374), (516, 369), (519, 365), (520, 363), (522, 362), (523, 359), (526, 356), (529, 354), (530, 353), (532, 352), (533, 351), (533, 351), (534, 351), (534, 350), (536, 349), (537, 348), (538, 347), (541, 345), (546, 340), (550, 335), (556, 326), (568, 310), (606, 254), (632, 213), (656, 179)]",305.0857018997602,"[2, 6, 4, 3, 9, 5, 7, 1, 8]","(0, 0.25)",CHN002D,CHN,D,Chinese,Wed Sep 26 13:30:51 2018,Mouse
2,1,4,0,113,5,5,1,308,168,140,144,0,500,200,8000,"[(512, 384), (512, 384), (512, 384), (512, 384), (512, 384), (512, 384), (512, 384), (512, 384), (512, 384), (512, 384), (512, 384), (512, 384), (512, 384), (512, 384), (512, 384), (512, 384), (507, 381), (501, 374), (494, 369), (485, 363), (465, 351), (455, 346), (444, 341), (431, 334), (410, 324), (397, 318), (385, 311), (370, 302), (337, 282), (315, 267), (290, 251)]",210.9257871675104,"[2, 6, 4, 3, 9, 5, 7, 1, 8]","(0, 0.25)",CHN002D,CHN,D,Chinese,Wed Sep 26 13:30:51 2018,Mouse
2,1,4,0,114,1,8,0,-358,258,100,143,0,500,200,8000,"[(512, 384), (512, 384), (512, 384), (512, 384), (512, 384), (512, 384), (512, 384), (512, 384), (512, 384), (512, 384), (512, 384), (512, 384), (512, 384), (512, 384), (512, 384), (512, 384), (512, 384), (512, 384), (512, 384), (512, 384), (512, 384), (512, 384), (512, 384), (512, 384), (512, 384), (515, 384), (517, 384), (522, 381), (540, 372), (552, 367), (567, 359), (589, 347), (647, 310), (680, 288), (717, 259), (757, 225)]",327.01725184256446,"[2, 6, 4, 3, 9, 5, 7, 1, 8]","(0, 0.25)",CHN002D,CHN,D,Chinese,Wed Sep 26 13:30:51 2018,Mouse
2,1,4,0,115,3,3,1,508,158,350,144,0,500,200,8000,"[(512, 384), (512, 384), (512, 384), (512, 384), (512, 384), (512, 384), (512, 384), (512, 384), (512, 384), (512, 384), (512, 384), (512, 384), (512, 384), (512, 384), (512, 384), (512, 385), (512, 386), (511, 387), (511, 387), (510, 389), (510, 390), (509, 390), (509, 390), (509, 390), (509, 390), (509, 390), (509, 390), (509, 391), (509, 391), (509, 391), (509, 391), (509, 391), (509, 391), (509, 391), (509, 391), (509, 391), (508, 393), (507, 396), (503, 400), (494, 415), (488, 425), (478, 435), (471, 446), (451, 464), (439, 475), (429, 484), (415, 495), (382, 529), (364, 546), (347, 564), (332, 580)]",132.56335175318986,"[2, 6, 4, 3, 9, 5, 7, 1, 8]","(0, 0.25)",CHN002D,CHN,D,Chinese,Wed Sep 26 13:30:51 2018,Mouse
2,1,4,0,116,5,5,1,348,228,120,144,0,500,200,8000,"[(512, 384), (512, 384), (512, 384), (512, 384), (512, 384), (512, 384), (512, 384), (512, 384), (512, 384), (512, 384), (512, 384), (512, 384), (512, 384), (512, 384), (512, 384), (512, 384), (512, 384), (512, 384), (512, 384), (512, 384), (512, 384), (512, 384), (507, 379), (489, 368), (482, 363), (472, 358), (460, 352), (435, 339), (418, 333), (399, 324), (384, 316), (342, 297), (321, 286), (296, 273), (276, 264)]",206.95217893122896,"[2, 6, 4, 3, 9, 5, 7, 1, 8]","(0, 0.25)",CHN002D,CHN,D,Chinese,Wed Sep 26 13:30:51 2018,Mouse
2,1,4,0,117,7,7,1,397,77,320,143,0,500,200,8000,"[(512, 384), (512, 384), (512, 384), (512, 384), (512, 384), (512, 384), (512, 384), (509, 371), (509, 364), (509, 360), (509, 354), (509, 336), (509, 329), (509, 322), (509, 316), (508, 303), (507, 296), (506, 291), (505, 286), (503, 277), (503, 274), (503, 271), (503, 268), (503, 262), (502, 257), (502, 254), (502, 250), (501, 245), (500, 240), (499, 236), (497, 230), (496, 219), (495, 210), (495, 203), (494, 196), (494, 176), (493, 165), (493, 154), (492, 143), (486, 114)]",264.4995885297981,"[2, 6, 4, 3, 9, 5, 7, 1, 8]","(0, 0.25)",CHN002D,CHN,D,Chinese,Wed Sep 26 13:30:51 2018,Mouse
2,1,4,0,118,5,5,1,448,88,360,142,0,500,200,8000,"[(512, 384), (512, 384), (512, 384), (512, 384), (512, 384), (512, 384), (512, 384), (512, 384), (511, 384), (510, 384), (509, 384), (508, 383), (507, 383), (506, 382), (504, 382), (503, 382), (502, 381), (500, 380), (499, 380), (499, 380), (498, 380), (498, 380), (496, 379), (496, 379), (495, 379), (493, 378), (490, 375), (489, 372), (485, 368), (482, 362), (475, 352), (470, 346), (467, 340), (462, 334), (453, 317), (447, 310), (440, 301), (431, 291), (410, 270), (400, 261), (386, 249), (371, 237), (349, 220), (335, 211), (324, 203)]",223.91321854700178,"[2, 6, 4, 3, 9, 5, 7, 1, 8]","(0, 0.25)",CHN002D,CHN,D,Chinese,Wed Sep 26 13:30:51 2018,Mouse
2,1,4,0,119,2,2,1,328,18,310,141,0,500,200,8000,"[(513, 384), (514, 384), (515, 384), (516, 384), (519, 384), (521, 384), (523, 384), (525, 384), (530, 384), (533, 384), (535, 384), (538, 385), (546, 387), (550, 388), (556, 389), (560, 389), (573, 391), (579, 391), (586, 392), (594, 392), (608, 395), (618, 397), (629, 398), (640, 400), (659, 403), (670, 405), (680, 405), (691, 405), (717, 403), (730, 403), (743, 403), (758, 403), (781, 408)]",5.098391821152299,"[2, 6, 4, 3, 9, 5, 7, 1, 8]","(0, 0.25)",CHN002D,CHN,D,Chinese,Wed Sep 26 13:30:51 2018,Mouse
2,1,4,0,120,2,2,1,148,18,130,140,0,500,200,8000,"[(525, 391), (537, 397), (568, 414), (579, 421), (590, 427), (602, 434), (626, 444), (637, 448), (650, 453), (662, 458), (685, 468), (698, 475), (714, 483), (726, 487), (745, 497)]",25.87238983392829,"[2, 6, 4, 3, 9, 5, 7, 1, 8]","(0, 0.25)",CHN002D,CHN,D,Chinese,Wed Sep 26 13:30:51 2018,Mouse
2,1,4,0,121,5,5,1,498,358,140,139,0,500,200,8000,"[(512, 384), (512, 384), (512, 384), (512, 384), (512, 384), (512, 384), (512, 384), (512, 384), (512, 384), (512, 384), (512, 384), (512, 384), (512, 384), (512, 384), (512, 384), (512, 384), (512, 384), (512, 384), (512, 384), (512, 384), (512, 384), (512, 384), (512, 384), (512, 384), (512, 384), (512, 384), (512, 384), (512, 384), (512, 384), (512, 384), (512, 384), (512, 384), (512, 384), (512, 384), (512, 384), (512, 382), (507, 375), (501, 370), (491, 359), (487, 353), (480, 344), (473, 337), (449, 310), (437, 298), (419, 285), (402, 272), (363, 247), (341, 233), (324, 221), (307, 210)]",220.32394733398684,"[2, 6, 4, 3, 9, 5, 7, 1, 8]","(0, 0.25)",CHN002D,CHN,D,Chinese,Wed Sep 26 13:30:51 2018,Mouse
2,1,4,0,122,9,9,1,1238,1178,60,138,0,500,200,8000,"[(512, 384), (512, 384), (512, 384), (512, 384), (512, 384), (512, 384), (512, 384), (512, 384), (512, 384), (512, 384), (512, 384), (512, 384), (512, 384), (512, 384), (512, 384), (512, 384), (512, 384), (512, 384), (512, 384), (512, 384), (512, 384), (512, 384), (512, 384), (512, 384), (512, 384), (512, 384), (512, 384), (512, 384), (512, 384), (512, 384), (512, 384), (512, 384), (512, 384), (512, 384), (512, 384), (512, 384), (512, 384), (512, 384), (512, 384), (512, 384), (512, 384), (512, 384), (512, 384), (512, 384), (512, 384), (512, 384), (512, 384), (512, 384), (512, 384), (512, 384), (512, 384), (512, 384), (512, 384), (512, 384), (512, 384), (512, 384), (512, 384), (512, 384), (512, 384), (512, 384), (512, 384), (512, 384), (512, 384), (512, 384), (512, 384), (512, 384), (512, 384), (512, 384), (512, 384), (512, 384), (512, 384), (512, 384), (512, 384), (512, 384), (512, 384), (512, 384), (512, 384), (512, 384), (512, 384), (512, 384), (512, 384), (512, 384), (512, 384), (512, 384), (512, 384), (512, 384), (512, 384), (512, 384), (512, 384), (512, 384), (512, 384), (512, 384), (512, 384), (512, 384), (512, 384), (512, 384), (512, 384), (512, 384), (512, 384), (512, 384), (512, 384), (512, 384), (512, 384), (512, 384), (512, 384), (512, 384), (512, 384), (512, 384), (512, 384), (512, 384), (512, 384), (512, 384), (512, 384), (512, 384), (512, 384), (512, 384), (512, 384), (505, 387), (489, 393), (429, 413), (388, 423), (344, 434), (298, 442), (194, 464)]",165.87899952361244,"[2, 6, 4, 3, 9, 5, 7, 1, 8]","(0, 0.25)",CHN002D,CHN,D,Chinese,Wed Sep 26 13:30:51 2018,Mouse
2,1,4,0,123,4,4,1,277,197,80,137,0,500,200,8000,"[(512, 384), (512, 384), (512, 384), (512, 384), (512, 384), (512, 384), (512, 384), (512, 384), (512, 384), (512, 384), (512, 384), (512, 384), (512, 384), (512, 384), (512, 384), (512, 384), (512, 384), (512, 384), (512, 384), (512, 393), (516, 407), (518, 422), (523, 477), (523, 505), (524, 542), (524, 569), (524, 631), (524, 653)]",87.44574788682162,"[2, 6, 4, 3, 9, 5, 7, 1, 8]","(0, 0.25)",CHN002D,CHN,D,Chinese,Wed Sep 26 13:30:51 2018,Mouse
2,1,4,0,124,9,9,1,837,777,60,136,0,500,200,8000,"[(512, 384), (512, 384), (512, 384), (512, 384), (512, 384), (512, 384), (512, 384), (512, 384), (512, 384), (512, 384), (512, 384), (512, 384), (512, 384), (512, 384), (512, 384), (512, 384), (512, 384), (512, 384), (512, 384), (512, 384), (512, 384), (512, 384), (512, 384), (512, 384), (512, 384), (512, 384), (512, 384), (512, 384), (512, 384), (512, 384), (512, 384), (512, 384), (512, 384), (512, 384), (512, 384), (512, 384), (512, 384), (512, 384), (512, 384), (512, 384), (512, 384), (512, 384), (512, 384), (512, 384), (512, 384), (512, 384), (512, 384), (512, 384), (512, 384), (512, 384), (512, 384), (512, 384), (512, 384), (512, 384), (512, 384), (512, 384), (512, 384), (512, 384), (512, 384), (512, 384), (512, 384), (512, 384), (512, 384), (512, 384), (512, 384), (512, 384), (512, 384), (512, 384), (512, 384), (512, 384), (512, 384), (512, 384), (512, 384), (512, 384), (512, 384), (512, 384), (512, 384), (495, 385), (473, 385), (447, 387), (413, 387), (336, 387), (283, 387), (236, 387)]",179.3772443127937,"[2, 6, 4, 3, 9, 5, 7, 1, 8]","(0, 0.25)",CHN002D,CHN,D,Chinese,Wed Sep 26 13:30:51 2018,Mouse
2,1,4,0,125,5,8,0,-278,188,90,135,0,500,200,8000,"[(512, 384), (512, 384), (512, 384), (512, 384), (512, 384), (512, 384), (512, 384), (512, 384), (512, 384), (512, 384), (512, 384), (512, 384), (512, 384), (512, 384), (512, 384), (512, 384), (512, 384), (512, 384), (516, 384), (527, 385), (557, 386), (572, 387), (592, 387), (612, 387), (669, 385), (706, 383), (742, 383), (781, 383)]",359.7870055182886,"[2, 6, 4, 3, 9, 5, 7, 1, 8]","(0, 0.25)",CHN002D,CHN,D,Chinese,Wed Sep 26 13:30:51 2018,Mouse
2,1,4,0,126,1,7,0,-1117,37,1080,136,0,500,200,8000,"[(512, 384), (512, 384), (512, 384), (512, 383), (512, 383), (512, 383), (512, 383), (512, 382), (512, 382), (512, 382), (512, 382), (512, 382), (512, 382), (512, 382), (512, 382), (512, 382), (512, 382), (512, 382), (512, 382), (512, 382), (512, 382), (512, 382), (512, 382), (512, 382), (512, 382), (512, 382), (512, 383), (513, 386), (514, 388), (515, 390), (516, 392), (520, 398), (522, 402), (525, 405), (527, 409), (530, 414), (531, 417), (533, 419), (534, 420), (534, 421), (534, 421), (534, 421), (534, 421), (534, 421), (534, 421), (534, 421), (534, 421), (534, 421), (534, 421), (534, 421), (534, 421), (534, 421), (534, 421), (534, 421), (534, 421), (534, 421), (534, 421), (534, 421), (534, 421), (534, 421), (534, 421), (534, 421), (534, 421), (534, 421), (533, 421), (530, 421), (528, 421), (526, 421), (525, 421), (523, 421), (522, 421), (517, 421), (516, 421), (515, 421), (514, 420), (511, 419), (509, 419), (508, 418), (505, 416), (504, 416), (502, 416), (502, 416), (502, 415), (500, 415), (500, 415), (500, 415), (500, 415), (499, 415), (498, 415), (498, 414), (496, 414), (494, 413), (493, 413), (492, 413), (492, 413), (491, 412), (489, 411), (489, 411), (488, 411), (487, 410), (486, 408), (484, 406), (482, 403), (478, 388), (478, 374), (478, 351), (478, 323), (478, 259), (478, 228), (478, 189), (479, 150), (481, 52)]",264.66555996296825,"[2, 6, 4, 3, 9, 5, 7, 1, 8]","(0, 0.25)",CHN002D,CHN,D,Chinese,Wed Sep 26 13:30:51 2018,Mouse
2,1,4,0,127,3,5,0,-498,368,130,137,0,500,200,8000,"[(512, 384), (512, 384), (512, 384), (512, 384), (512, 384), (512, 384), (512, 384), (512, 384), (512, 384), (512, 384), (512, 384), (512, 384), (512, 384), (512, 384), (512, 384), (512, 384), (512, 384), (512, 384), (512, 384), (512, 384), (512, 384), (512, 384), (512, 384), (512, 384), (512, 384), (512, 384), (512, 384), (512, 384), (512, 384), (512, 384), (512, 384), (512, 384), (512, 384), (512, 384), (512, 384), (512, 384), (510, 382), (507, 374), (496, 357), (490, 349), (483, 340), (477, 330), (465, 306), (457, 288), (444, 263), (428, 243), (404, 209), (393, 196), (384, 186), (373, 176)]",236.24641168018536,"[2, 6, 4, 3, 9, 5, 7, 1, 8]","(0, 0.25)",CHN002D,CHN,D,Chinese,Wed Sep 26 13:30:51 2018,Mouse
2,1,4,0,128,4,4,1,158,98,60,138,0,500,200,8000,"[(512, 384), (512, 384), (512, 384), (512, 384), (512, 384), (512, 384), (512, 384), (512, 384), (512, 384), (512, 390), (513, 405), (509, 451), (504, 494), (492, 541), (472, 594), (430, 709)]",104.16061906021964,"[2, 6, 4, 3, 9, 5, 7, 1, 8]","(0, 0.25)",CHN002D,CHN,D,Chinese,Wed Sep 26 13:30:51 2018,Mouse
2,1,4,0,129,8,8,1,448,368,80,138,0,500,200,8000,"[(512, 384), (512, 384), (512, 384), (512, 384), (512, 384), (512, 384), (512, 384), (512, 384), (512, 384), (512, 384), (512, 384), (512, 384), (512, 384), (512, 384), (512, 384), (512, 384), (512, 384), (512, 384), (512, 384), (512, 384), (512, 384), (512, 384), (512, 384), (512, 384), (512, 384), (512, 384), (512, 384), (512, 384), (512, 384), (512, 384), (512, 384), (512, 384), (512, 384), (512, 384), (512, 384), (512, 384), (515, 382), (523, 381), (542, 377), (554, 375), (570, 371), (592, 365), (666, 347), (710, 339), (761, 329)]",347.5443046878047,"[2, 6, 4, 3, 9, 5, 7, 1, 8]","(0, 0.25)",CHN002D,CHN,D,Chinese,Wed Sep 26 13:30:51 2018,Mouse
2,1,4,0,130,6,2,0,-278,128,150,137,0,500,200,8000,"[(512, 384), (512, 384), (512, 384), (512, 384), (512, 384), (512, 384), (512, 384), (512, 384), (512, 384), (512, 384), (512, 384), (512, 384), (514, 385), (518, 388), (521, 389), (532, 395), (543, 401), (556, 406), (566, 412), (588, 422), (598, 428), (609, 432), (620, 438), (645, 450), (663, 456), (684, 467), (704, 474), (752, 490)]",23.829449477964832,"[2, 6, 4, 3, 9, 5, 7, 1, 8]","(0, 0.25)",CHN002D,CHN,D,Chinese,Wed Sep 26 13:30:51 2018,Mouse
2,1,4,0,131,8,2,0,-197,77,120,138,0,500,200,8000,"[(512, 384), (512, 384), (512, 384), (512, 384), (512, 384), (512, 384), (512, 384), (518, 387), (525, 390), (535, 393), (543, 394), (566, 396), (577, 398), (591, 401), (605, 403), (644, 410), (665, 413), (687, 417), (714, 422), (768, 431)]",10.403292728438272,"[2, 6, 4, 3, 9, 5, 7, 1, 8]","(0, 0.25)",CHN002D,CHN,D,Chinese,Wed Sep 26 13:30:51 2018,Mouse
2,1,4,0,132,6,6,1,738,438,300,139,0,500,200,8000,"[(512, 384), (512, 384), (512, 384), (512, 384), (512, 384), (512, 384), (512, 384), (512, 384), (512, 384), (512, 384), (512, 384), (512, 384), (512, 384), (512, 384), (512, 384), (512, 384), (512, 384), (512, 384), (512, 384), (512, 384), (512, 384), (512, 384), (512, 384), (512, 384), (512, 384), (512, 384), (512, 384), (512, 384), (512, 384), (512, 384), (512, 384), (512, 384), (512, 384), (512, 384), (512, 384), (512, 384), (512, 384), (512, 384), (512, 384), (512, 384), (512, 384), (512, 384), (512, 384), (513, 384), (519, 387), (526, 390), (531, 393), (531, 393), (532, 393), (534, 394), (534, 394), (534, 394), (534, 394), (534, 394), (534, 394), (534, 394), (534, 394), (534, 394), (534, 394), (534, 394), (534, 394), (534, 394), (534, 394), (534, 394), (534, 394), (535, 395), (547, 410), (558, 426), (572, 443), (588, 464), (616, 505), (633, 536), (651, 566), (671, 599)]",53.51578240435007,"[2, 6, 4, 3, 9, 5, 7, 1, 8]","(0, 0.25)",CHN002D,CHN,D,Chinese,Wed Sep 26 13:30:51 2018,Mouse
2,1,4,0,133,5,5,1,198,78,120,139,0,500,200,8000,"[(512, 384), (512, 384), (512, 384), (512, 384), (512, 384), (512, 384), (512, 384), (511, 384), (510, 384), (510, 384), (509, 384), (501, 377), (494, 369), (483, 360), (466, 346), (414, 307), (383, 285), (352, 259), (316, 239), (250, 194)]",215.94927832281627,"[2, 6, 4, 3, 9, 5, 7, 1, 8]","(0, 0.25)",CHN002D,CHN,D,Chinese,Wed Sep 26 13:30:51 2018,Mouse
2,1,4,0,134,9,9,1,117,67,50,138,0,500,200,8000,"[(512, 384), (512, 384), (512, 384), (512, 384), (512, 384), (512, 384), (507, 386), (489, 391), (458, 399), (421, 405), (303, 432), (229, 445)]",167.83612862657915,"[2, 6, 4, 3, 9, 5, 7, 1, 8]","(0, 0.25)",CHN002D,CHN,D,Chinese,Wed Sep 26 13:30:51 2018,Mouse
