NativeLangNumber,LanuageNumber,SessionNumber,Block,TrialNum,ConditionNumber,Response,Accuracy,RT,MovementOnsetTime,TimeInMotion,SignalContrast,SignalContrastNumber,StimDisplayTime,MaskTime,MaxResponseTime,MousePositionXY,MouseAngle,WheelOrder,NoiseMuSigma,ParticipantID,LanuageTested,SessionTested,NativeLanuage,Date,ResponseDevice
2,1,4,0,1,7,7,1,1510,1090,420,153,0,500,200,8000,"[(512, 384), (512, 384), (512, 384), (512, 384), (512, 384), (512, 384), (512, 384), (512, 384), (512, 384), (512, 384), (512, 384), (512, 384), (512, 384), (512, 384), (512, 384), (512, 384), (512, 384), (512, 384), (512, 384), (512, 384), (512, 384), (512, 384), (512, 384), (512, 384), (512, 384), (512, 384), (512, 384), (512, 384), (512, 384), (512, 384), (512, 384), (512, 384), (512, 384), (512, 384), (512, 384), (512, 384), (512, 384), (512, 384), (512, 384), (512, 384), (512, 384), (512, 384), (512, 384), (512, 384), (512, 384), (512, 384), (512, 384), (512, 384), (512, 384), (512, 384), (512, 384), (512, 384), (512, 384), (512, 384), (512, 384), (512, 384), (512, 384), (512, 384), (512, 384), (512, 384), (512, 384), (512, 384), (512, 384), (512, 384), (512, 384), (512, 384), (512, 384), (512, 384), (512, 384), (512, 384), (512, 384), (512, 384), (512, 384), (512, 384), (512, 384), (512, 384), (512, 384), (512, 384), (512, 384), (512, 384), (512, 384), (512, 384), (512, 384), (512, 384), (512, 384), (512, 384), (512, 384), (512, 384), (512, 384), (512, 384), (512, 384), (512, 384), (512, 384), (512, 384), (512, 384), (512, 384), (512, 384), (512, 384), (512, 384), (512, 384), (512, 384), (512, 384), (512, 384), (512, 384), (512, 384), (512, 384), (512, 384), (512, 384), (512, 385), (512, 385), (512, 385), (512, 385), (513, 386), (513, 386), (513, 386), (514, 387), (514, 387), (514, 387), (514, 387), (516, 389), (518, 392), (519, 394), (522, 398), (524, 404), (526, 405), (526, 406), (527, 410), (531, 416), (531, 418), (531, 420), (531, 421), (533, 426), (533, 429), (534, 432), (534, 433), (534, 436), (534, 437), (535, 439), (537, 440), (545, 449), (553, 453), (560, 459), (565, 464), (574, 478), (576, 486), (580, 495), (584, 506), (607, 543), (626, 569), (645, 594), (663, 620)]",57.38764675315024,"[9, 7, 6, 5, 2, 3, 1, 8, 4]","(0, 0.25)",CHN007D,CHN,D,Chinese,Tue Oct 23 16:51:48 2018,Mouse
2,1,4,0,2,1,1,1,312,12,300,153,0,500,200,8000,"[(512, 384), (511, 375), (509, 370), (506, 363), (505, 356), (500, 346), (500, 343), (497, 338), (495, 334), (491, 323), (489, 319), (487, 315), (487, 314), (485, 305), (484, 302), (483, 299), (483, 295), (483, 289), (483, 287), (483, 285), (483, 282), (483, 276), (483, 274), (483, 270), (483, 266), (481, 254), (478, 247), (477, 236), (474, 220), (462, 178), (453, 148), (438, 108)]",254.9910863233413,"[9, 7, 6, 5, 2, 3, 1, 8, 4]","(0, 0.25)",CHN007D,CHN,D,Chinese,Tue Oct 23 16:51:48 2018,Mouse
2,1,4,0,3,9,9,1,894,14,880,152,0,500,200,8000,"[(512, 384), (512, 385), (512, 385), (512, 385), (512, 385), (512, 385), (512, 385), (512, 385), (512, 385), (512, 385), (512, 385), (512, 385), (511, 385), (511, 385), (511, 385), (511, 385), (509, 385), (508, 386), (508, 386), (508, 386), (506, 387), (505, 388), (505, 388), (505, 388), (504, 388), (503, 388), (503, 388), (503, 388), (503, 388), (503, 388), (503, 388), (503, 388), (503, 388), (503, 388), (503, 388), (503, 388), (503, 388), (503, 388), (503, 388), (503, 388), (503, 388), (503, 388), (503, 388), (503, 388), (503, 388), (503, 390), (503, 391), (503, 391), (503, 391), (503, 392), (503, 392), (503, 392), (503, 392), (503, 392), (503, 392), (503, 393), (503, 393), (503, 393), (503, 393), (503, 393), (503, 393), (503, 393), (503, 393), (503, 393), (503, 393), (503, 393), (503, 393), (503, 393), (503, 393), (503, 393), (503, 393), (503, 393), (503, 393), (503, 393), (503, 393), (503, 393), (503, 393), (503, 393), (503, 393), (503, 394), (503, 394), (506, 395), (510, 398), (512, 398), (519, 399), (551, 405), (589, 411), (640, 417), (692, 431), (806, 445)]",11.721586771859792,"[9, 7, 6, 5, 2, 3, 1, 8, 4]","(0, 0.25)",CHN007D,CHN,D,Chinese,Tue Oct 23 16:51:48 2018,Mouse
2,1,4,0,4,5,5,1,594,14,580,151,0,500,200,8000,"[(507, 380), (503, 374), (503, 372), (503, 372), (503, 372), (503, 372), (503, 372), (503, 372), (503, 372), (503, 372), (503, 372), (503, 372), (503, 372), (503, 372), (503, 372), (503, 372), (503, 372), (503, 372), (503, 372), (503, 372), (503, 372), (503, 372), (503, 372), (503, 372), (503, 372), (503, 372), (503, 372), (503, 372), (503, 372), (502, 372), (499, 372), (496, 372), (496, 372), (496, 372), (496, 372), (496, 372), (496, 372), (496, 372), (496, 372), (496, 372), (496, 372), (496, 372), (495, 375), (490, 386), (489, 390), (485, 395), (479, 404), (469, 415), (464, 422), (457, 431), (453, 439), (441, 461), (433, 472), (424, 482), (414, 492), (393, 511), (384, 519), (371, 533), (360, 546), (337, 575)]",132.4968602204151,"[9, 7, 6, 5, 2, 3, 1, 8, 4]","(0, 0.25)",CHN007D,CHN,D,Chinese,Tue Oct 23 16:51:48 2018,Mouse
2,1,4,0,5,9,9,1,762,12,750,150,0,500,200,8000,"[(510, 380), (507, 375), (507, 373), (504, 370), (504, 369), (504, 369), (504, 369), (504, 369), (504, 368), (504, 368), (504, 368), (504, 368), (504, 368), (504, 368), (504, 368), (504, 368), (505, 367), (505, 367), (505, 366), (505, 366), (505, 363), (505, 361), (504, 359), (503, 358), (502, 354), (502, 352), (500, 349), (500, 347), (499, 341), (499, 341), (498, 340), (498, 338), (498, 338), (498, 337), (498, 336), (498, 336), (498, 335), (498, 335), (498, 335), (498, 335), (498, 335), (498, 335), (498, 335), (498, 335), (498, 335), (498, 335), (498, 335), (498, 335), (497, 335), (497, 335), (497, 335), (497, 335), (497, 335), (497, 337), (497, 338), (497, 340), (497, 344), (497, 344), (497, 344), (497, 345), (497, 345), (497, 346), (497, 346), (497, 348), (500, 350), (503, 353), (506, 355), (507, 356), (514, 361), (519, 365), (526, 370), (534, 375), (568, 396), (598, 412), (641, 433), (685, 459), (771, 498)]",23.756907583718537,"[9, 7, 6, 5, 2, 3, 1, 8, 4]","(0, 0.25)",CHN007D,CHN,D,Chinese,Tue Oct 23 16:51:48 2018,Mouse
2,1,4,0,6,8,8,1,1003,232,771,149,0,500,200,8000,"[(512, 384), (512, 384), (512, 384), (512, 384), (512, 384), (512, 384), (512, 384), (512, 384), (512, 384), (512, 384), (512, 384), (512, 384), (512, 384), (512, 384), (512, 384), (512, 384), (512, 384), (512, 384), (512, 384), (512, 384), (512, 384), (512, 384), (512, 384), (512, 385), (512, 387), (512, 389), (512, 389), (512, 389), (512, 390), (512, 390), (512, 390), (512, 390), (512, 390), (512, 390), (512, 390), (512, 390), (512, 392), (512, 392), (512, 392), (512, 392), (511, 392), (511, 392), (511, 392), (511, 392), (511, 392), (511, 392), (511, 392), (511, 392), (511, 393), (511, 395), (511, 399), (510, 400), (508, 406), (506, 408), (505, 409), (503, 411), (502, 412), (502, 412), (502, 413), (502, 413), (502, 413), (502, 413), (502, 413), (502, 413), (502, 413), (501, 413), (500, 413), (500, 413), (499, 413), (499, 413), (499, 412), (499, 412), (499, 411), (499, 411), (499, 411), (499, 410), (499, 408), (499, 407), (499, 405), (499, 404), (501, 396), (502, 390), (503, 383), (505, 377), (506, 366), (507, 359), (507, 353), (508, 349), (508, 344), (508, 341), (508, 338), (508, 337), (509, 331), (512, 326), (515, 320), (521, 309), (542, 274), (557, 254), (575, 226), (594, 198), (626, 144)]",295.4077181089485,"[9, 7, 6, 5, 2, 3, 1, 8, 4]","(0, 0.25)",CHN007D,CHN,D,Chinese,Tue Oct 23 16:51:48 2018,Mouse
2,1,4,0,7,6,6,1,844,14,830,148,0,500,200,8000,"[(512, 384), (512, 385), (512, 387), (512, 390), (512, 391), (512, 393), (512, 393), (512, 394), (512, 394), (512, 394), (512, 394), (512, 395), (512, 395), (512, 395), (513, 395), (514, 396), (514, 396), (514, 396), (514, 397), (514, 397), (515, 398), (515, 398), (515, 398), (515, 398), (515, 398), (515, 398), (516, 398), (516, 398), (516, 398), (516, 398), (518, 400), (518, 400), (518, 400), (518, 401), (518, 401), (518, 402), (518, 402), (518, 402), (518, 402), (518, 402), (518, 402), (518, 402), (518, 402), (518, 402), (518, 402), (518, 402), (518, 402), (518, 402), (518, 402), (518, 402), (518, 402), (518, 401), (518, 401), (518, 401), (518, 401), (518, 401), (518, 401), (518, 401), (518, 401), (518, 401), (518, 401), (518, 401), (518, 401), (518, 401), (518, 402), (517, 403), (514, 406), (507, 410), (502, 413), (498, 416), (494, 418), (484, 426), (481, 429), (477, 433), (473, 440), (467, 457), (464, 470), (461, 481), (461, 496), (460, 525), (460, 539), (460, 554), (460, 569), (460, 610), (464, 647)]",100.34318422116633,"[9, 7, 6, 5, 2, 3, 1, 8, 4]","(0, 0.25)",CHN007D,CHN,D,Chinese,Tue Oct 23 16:51:48 2018,Mouse
2,1,4,0,8,8,8,1,712,512,200,147,0,500,200,8000,"[(512, 384), (512, 384), (512, 384), (512, 384), (512, 384), (512, 384), (512, 384), (512, 384), (512, 384), (512, 384), (512, 384), (512, 384), (512, 384), (512, 384), (512, 384), (512, 384), (512, 384), (512, 384), (512, 384), (512, 384), (512, 384), (512, 384), (512, 384), (512, 384), (512, 384), (512, 384), (512, 384), (512, 384), (512, 384), (512, 384), (512, 384), (512, 384), (512, 384), (512, 384), (512, 384), (512, 384), (512, 384), (512, 384), (512, 384), (512, 384), (512, 384), (512, 384), (512, 384), (512, 384), (512, 384), (512, 384), (512, 384), (512, 384), (512, 384), (512, 384), (512, 384), (514, 382), (514, 382), (515, 380), (515, 379), (517, 377), (519, 375), (522, 372), (527, 367), (539, 354), (544, 345), (552, 334), (557, 325), (568, 299), (576, 283), (585, 262), (594, 239), (605, 198), (610, 181), (613, 170), (616, 161), (620, 149)]",294.6823038482728,"[9, 7, 6, 5, 2, 3, 1, 8, 4]","(0, 0.25)",CHN007D,CHN,D,Chinese,Tue Oct 23 16:51:48 2018,Mouse
2,1,4,0,9,2,2,1,2121,131,1990,146,0,500,200,8000,"[(512, 384), (512, 384), (512, 384), (512, 384), (512, 384), (512, 384), (512, 384), (512, 384), (512, 384), (512, 384), (512, 384), (512, 384), (512, 384), (513, 385), (514, 386), (514, 387), (514, 387), (514, 387), (514, 387), (514, 387), (514, 387), (514, 387), (515, 387), (515, 387), (515, 387), (515, 387), (515, 388), (515, 388), (514, 390), (514, 390), (513, 390), (513, 391), (513, 391), (513, 391), (512, 391), (512, 391), (512, 391), (512, 391), (510, 391), (510, 391), (509, 393), (509, 393), (509, 393), (508, 393), (506, 393), (505, 393), (503, 393), (501, 394), (497, 394), (495, 394), (492, 394), (490, 394), (487, 394), (484, 394), (483, 394), (483, 394), (483, 394), (483, 394), (483, 394), (482, 394), (482, 394), (482, 394), (482, 394), (482, 394), (482, 394), (482, 394), (482, 394), (482, 394), (482, 394), (482, 394), (482, 394), (482, 394), (482, 394), (482, 394), (482, 394), (482, 394), (482, 394), (482, 394), (482, 394), (482, 394), (482, 394), (482, 394), (482, 394), (482, 394), (482, 394), (482, 394), (482, 394), (482, 394), (482, 395), (482, 396), (482, 396), (481, 397), (479, 397), (478, 398), (476, 398), (473, 398), (470, 398), (469, 398), (467, 398), (465, 398), (463, 398), (463, 398), (463, 398), (463, 398), (463, 398), (463, 398), (463, 398), (463, 398), (463, 398), (463, 398), (463, 398), (463, 398), (463, 398), (463, 398), (463, 398), (463, 398), (463, 398), (463, 398), (463, 398), (463, 398), (463, 398), (463, 398), (463, 398), (463, 398), (463, 398), (463, 398), (463, 398), (463, 398), (463, 398), (463, 398), (463, 398), (463, 398), (463, 398), (463, 398), (463, 398), (463, 398), (463, 398), (463, 398), (463, 398), (463, 398), (463, 398), (463, 398), (463, 398), (463, 398), (463, 398), (463, 398), (463, 398), (463, 398), (463, 398), (463, 398), (463, 398), (463, 398), (462, 397), (461, 397), (461, 397), (460, 397), (458, 397), (458, 397), (458, 397), (457, 397), (457, 397), (457, 397), (457, 397), (457, 397), (457, 397), (457, 397), (457, 397), (457, 397), (457, 397), (457, 397), (457, 397), (457, 397), (457, 397), (457, 397), (457, 397), (457, 397), (457, 397), (457, 397), (457, 397), (457, 397), (455, 399), (455, 399), (454, 400), (454, 400), (454, 400), (453, 400), (453, 400), (453, 400), (453, 400), (453, 400), (451, 400), (450, 400), (449, 400), (448, 400), (448, 400), (448, 400), (447, 400), (447, 400), (445, 400), (445, 400), (442, 400), (441, 400), (439, 400), (439, 400), (435, 400), (432, 400), (429, 400), (424, 400), (398, 400), (376, 400), (348, 400), (303, 400), (190, 385)]",179.82206336858962,"[9, 7, 6, 5, 2, 3, 1, 8, 4]","(0, 0.25)",CHN007D,CHN,D,Chinese,Tue Oct 23 16:51:48 2018,Mouse
2,1,4,0,10,4,4,1,1324,594,730,145,0,500,200,8000,"[(512, 384), (512, 384), (512, 384), (512, 384), (512, 384), (512, 384), (512, 384), (512, 384), (512, 384), (512, 384), (512, 384), (512, 384), (512, 384), (512, 384), (512, 384), (512, 384), (512, 384), (512, 384), (512, 384), (512, 384), (512, 384), (512, 384), (512, 384), (512, 384), (512, 384), (512, 384), (512, 384), (512, 384), (512, 384), (512, 384), (512, 384), (512, 384), (512, 384), (512, 384), (512, 384), (512, 384), (512, 384), (512, 384), (512, 384), (512, 384), (512, 384), (512, 384), (512, 384), (512, 384), (512, 384), (512, 384), (512, 384), (512, 384), (512, 384), (512, 384), (512, 384), (512, 384), (512, 384), (512, 384), (512, 384), (512, 384), (512, 384), (512, 384), (512, 384), (522, 384), (530, 383), (539, 382), (552, 378), (580, 372), (593, 368), (600, 366), (609, 361), (618, 358), (619, 357), (619, 356), (621, 356), (625, 354), (629, 354), (635, 354), (636, 354), (640, 354), (642, 353), (642, 353), (643, 353), (649, 353), (652, 353), (653, 353), (655, 353), (657, 353), (659, 353), (660, 353), (662, 353), (668, 353), (673, 352), (676, 350), (679, 349), (686, 345), (690, 343), (691, 342), (692, 341), (694, 338), (695, 337), (697, 335), (697, 334), (700, 330), (702, 329), (704, 327), (706, 327), (710, 325), (710, 324), (711, 324), (713, 323), (713, 323), (714, 323), (714, 323), (714, 323), (716, 322), (716, 322), (717, 322), (717, 322), (719, 321), (720, 321), (720, 321), (720, 320), (720, 320), (720, 320), (720, 320), (720, 320), (720, 320), (722, 320), (722, 319), (724, 318), (726, 316), (730, 313), (734, 312), (738, 309), (746, 305), (750, 303)]",341.20470511369075,"[9, 7, 6, 5, 2, 3, 1, 8, 4]","(0, 0.25)",CHN007D,CHN,D,Chinese,Tue Oct 23 16:51:48 2018,Mouse
2,1,4,0,11,7,7,1,819,29,790,144,0,500,200,8000,"[(512, 384), (512, 384), (505, 379), (502, 374), (498, 369), (492, 363), (481, 354), (476, 351), (473, 349), (469, 349), (461, 349), (458, 349), (457, 349), (456, 349), (454, 350), (452, 351), (452, 351), (451, 351), (449, 353), (447, 354), (445, 355), (443, 356), (437, 358), (433, 360), (428, 363), (425, 363), (419, 372), (418, 379), (418, 387), (419, 394), (426, 409), (431, 418), (437, 427), (442, 435), (446, 445), (447, 447), (447, 447), (447, 447), (447, 448), (447, 449), (449, 449), (449, 449), (450, 450), (450, 451), (450, 452), (450, 454), (450, 457), (450, 458), (450, 460), (450, 461), (452, 466), (452, 469), (453, 472), (453, 474), (455, 479), (457, 481), (461, 484), (464, 487), (474, 496), (479, 500), (484, 505), (488, 509), (498, 516), (502, 519), (506, 520), (509, 523), (521, 527), (527, 528), (531, 529), (535, 531), (539, 533), (541, 534), (541, 534), (543, 535), (548, 540), (553, 545), (559, 553), (566, 561), (593, 586), (608, 598), (623, 608), (645, 624)]",61.00624095363969,"[9, 7, 6, 5, 2, 3, 1, 8, 4]","(0, 0.25)",CHN007D,CHN,D,Chinese,Tue Oct 23 16:51:48 2018,Mouse
2,1,4,0,12,3,3,1,465,135,330,143,0,500,200,8000,"[(512, 384), (512, 384), (512, 384), (512, 384), (512, 384), (512, 384), (512, 384), (512, 384), (512, 384), (512, 384), (512, 384), (512, 384), (512, 384), (512, 383), (512, 382), (512, 382), (511, 381), (510, 381), (510, 381), (508, 381), (504, 380), (503, 380), (499, 378), (498, 378), (492, 374), (491, 373), (487, 371), (482, 368), (471, 364), (463, 362), (455, 357), (445, 353), (429, 345), (423, 340), (415, 335), (411, 331), (401, 322), (398, 319), (393, 313), (389, 308), (383, 299), (378, 292), (372, 286), (366, 277), (349, 254), (336, 236), (322, 219)]",220.97173633351485,"[9, 7, 6, 5, 2, 3, 1, 8, 4]","(0, 0.25)",CHN007D,CHN,D,Chinese,Tue Oct 23 16:51:48 2018,Mouse
2,1,4,0,13,6,6,1,1202,12,1190,142,0,500,200,8000,"[(512, 384), (513, 384), (513, 384), (513, 384), (513, 384), (513, 384), (513, 384), (513, 384), (513, 384), (515, 384), (515, 384), (516, 384), (520, 384), (524, 384), (532, 384), (536, 384), (541, 384), (545, 384), (553, 384), (558, 386), (561, 387), (564, 387), (566, 387), (566, 387), (567, 388), (567, 388), (567, 388), (567, 388), (567, 388), (567, 388), (567, 388), (567, 388), (567, 388), (567, 388), (567, 388), (567, 388), (567, 388), (567, 388), (567, 388), (567, 388), (567, 388), (567, 388), (567, 388), (567, 388), (567, 388), (567, 388), (567, 388), (567, 388), (567, 388), (567, 388), (567, 388), (567, 388), (567, 388), (567, 388), (567, 388), (567, 388), (567, 388), (567, 388), (568, 389), (568, 389), (568, 390), (568, 390), (565, 391), (565, 391), (563, 393), (563, 393), (562, 393), (562, 393), (562, 393), (562, 393), (562, 393), (562, 393), (562, 393), (562, 393), (562, 393), (562, 394), (561, 394), (561, 395), (559, 397), (557, 400), (556, 403), (555, 406), (551, 413), (548, 418), (545, 423), (541, 428), (537, 431), (536, 434), (535, 434), (535, 435), (535, 438), (535, 440), (535, 441), (535, 443), (535, 446), (535, 448), (534, 452), (533, 452), (532, 457), (532, 459), (532, 461), (530, 463), (529, 467), (527, 471), (526, 473), (523, 479), (515, 487), (510, 495), (506, 501), (502, 507), (497, 517), (495, 523), (493, 530), (491, 537), (485, 557), (481, 568), (479, 579), (474, 590), (464, 613), (461, 622), (456, 630)]",102.82439810223515,"[9, 7, 6, 5, 2, 3, 1, 8, 4]","(0, 0.25)",CHN007D,CHN,D,Chinese,Tue Oct 23 16:51:48 2018,Mouse
2,1,4,0,14,1,1,1,591,21,570,141,0,500,200,8000,"[(512, 384), (512, 384), (510, 384), (510, 384), (509, 384), (507, 384), (500, 384), (499, 384), (498, 384), (498, 384), (498, 384), (498, 384), (498, 384), (498, 384), (498, 384), (498, 384), (498, 384), (498, 384), (498, 384), (498, 384), (498, 384), (498, 384), (498, 384), (498, 384), (498, 384), (498, 384), (498, 384), (498, 384), (498, 384), (498, 384), (498, 384), (498, 384), (498, 384), (498, 384), (498, 384), (498, 384), (498, 384), (498, 384), (498, 384), (496, 383), (495, 380), (496, 378), (496, 365), (496, 359), (496, 354), (496, 347), (496, 337), (496, 336), (496, 333), (496, 331), (496, 327), (496, 325), (496, 322), (496, 319), (494, 304), (490, 290), (486, 270), (480, 243), (455, 162), (444, 123)]",255.39700022058824,"[9, 7, 6, 5, 2, 3, 1, 8, 4]","(0, 0.25)",CHN007D,CHN,D,Chinese,Tue Oct 23 16:51:48 2018,Mouse
2,1,4,0,15,7,7,1,982,232,750,140,0,500,200,8000,"[(512, 384), (512, 384), (512, 384), (512, 384), (512, 384), (512, 384), (512, 384), (512, 384), (512, 384), (512, 384), (512, 384), (512, 384), (512, 384), (512, 384), (512, 384), (512, 384), (512, 384), (512, 384), (512, 384), (512, 384), (512, 384), (512, 384), (512, 384), (513, 382), (513, 382), (513, 382), (513, 382), (513, 382), (513, 382), (513, 382), (513, 382), (513, 382), (513, 382), (513, 382), (513, 382), (513, 382), (513, 382), (513, 382), (513, 382), (513, 382), (513, 382), (513, 382), (513, 382), (513, 382), (513, 383), (513, 383), (513, 383), (513, 383), (513, 383), (513, 383), (513, 383), (513, 383), (514, 382), (514, 382), (515, 381), (517, 379), (518, 378), (518, 378), (518, 378), (518, 378), (518, 378), (518, 378), (518, 378), (518, 378), (518, 378), (518, 378), (518, 378), (518, 378), (518, 378), (518, 378), (518, 378), (518, 378), (519, 378), (519, 379), (519, 379), (519, 379), (519, 379), (519, 379), (519, 379), (519, 379), (519, 379), (519, 379), (519, 379), (519, 379), (519, 379), (519, 379), (519, 380), (520, 382), (520, 384), (523, 387), (523, 391), (529, 408), (535, 423), (550, 447), (566, 480), (594, 543), (604, 572), (613, 602), (622, 641)]",66.82832154614492,"[9, 7, 6, 5, 2, 3, 1, 8, 4]","(0, 0.25)",CHN007D,CHN,D,Chinese,Tue Oct 23 16:51:48 2018,Mouse
2,1,4,0,16,2,2,1,484,194,290,139,0,500,200,8000,"[(512, 384), (512, 384), (512, 384), (512, 384), (512, 384), (512, 384), (512, 384), (512, 384), (512, 384), (512, 384), (512, 384), (512, 384), (512, 384), (512, 384), (512, 384), (512, 384), (512, 384), (512, 384), (512, 384), (511, 384), (511, 384), (511, 384), (511, 384), (511, 384), (510, 384), (510, 384), (509, 384), (508, 384), (505, 384), (503, 384), (500, 384), (497, 384), (490, 383), (488, 383), (485, 382), (485, 382), (483, 382), (483, 382), (481, 381), (479, 381), (472, 381), (464, 381), (454, 381), (441, 381), (407, 381), (385, 381), (355, 376), (328, 369), (261, 359)]",185.6879912532625,"[9, 7, 6, 5, 2, 3, 1, 8, 4]","(0, 0.25)",CHN007D,CHN,D,Chinese,Tue Oct 23 16:51:48 2018,Mouse
2,1,4,0,17,3,3,1,1035,765,270,138,0,500,200,8000,"[(512, 384), (512, 384), (512, 384), (512, 384), (512, 384), (512, 384), (512, 384), (512, 384), (512, 384), (512, 384), (512, 384), (512, 384), (512, 384), (512, 384), (512, 384), (512, 384), (512, 384), (512, 384), (512, 384), (512, 384), (512, 384), (512, 384), (512, 384), (512, 384), (512, 384), (512, 384), (512, 384), (512, 384), (512, 384), (512, 384), (512, 384), (512, 384), (512, 384), (512, 384), (512, 384), (512, 384), (512, 384), (512, 384), (512, 384), (512, 384), (512, 384), (512, 384), (512, 384), (512, 384), (512, 384), (512, 384), (512, 384), (512, 384), (512, 384), (512, 384), (512, 384), (512, 384), (512, 384), (512, 384), (512, 384), (512, 384), (512, 384), (512, 384), (512, 384), (512, 384), (512, 384), (512, 384), (512, 384), (512, 384), (512, 384), (512, 384), (512, 384), (512, 384), (512, 384), (512, 384), (512, 384), (512, 384), (512, 384), (512, 384), (512, 384), (512, 384), (511, 383), (511, 382), (509, 380), (506, 376), (504, 374), (502, 373), (500, 370), (498, 368), (498, 366), (497, 364), (495, 363), (495, 362), (495, 361), (495, 361), (494, 360), (494, 360), (494, 359), (494, 359), (493, 358), (492, 356), (492, 353), (490, 351), (487, 346), (470, 325), (450, 308), (424, 289), (393, 267), (309, 220)]",218.9341127030035,"[9, 7, 6, 5, 2, 3, 1, 8, 4]","(0, 0.25)",CHN007D,CHN,D,Chinese,Tue Oct 23 16:51:48 2018,Mouse
2,1,4,0,18,9,9,1,894,384,510,137,0,500,200,8000,"[(512, 384), (512, 384), (512, 384), (512, 384), (512, 384), (512, 384), (512, 384), (512, 384), (512, 384), (512, 384), (512, 384), (512, 384), (512, 384), (512, 384), (512, 384), (512, 384), (512, 384), (512, 384), (512, 384), (512, 384), (512, 384), (512, 384), (512, 384), (512, 384), (512, 384), (512, 384), (512, 384), (512, 384), (512, 384), (512, 384), (512, 384), (512, 384), (512, 384), (512, 384), (512, 384), (512, 384), (512, 384), (512, 384), (512, 386), (512, 386), (512, 387), (512, 387), (512, 389), (512, 390), (512, 392), (512, 393), (512, 396), (510, 400), (510, 402), (509, 404), (509, 408), (509, 411), (509, 412), (509, 414), (509, 415), (509, 417), (509, 417), (509, 418), (509, 419), (509, 420), (509, 420), (509, 420), (509, 420), (509, 420), (509, 420), (509, 420), (509, 420), (509, 420), (509, 420), (509, 420), (509, 420), (509, 420), (509, 420), (509, 420), (509, 420), (510, 421), (512, 421), (514, 421), (518, 421), (523, 423), (529, 423), (534, 424), (539, 425), (558, 431), (572, 435), (594, 441), (621, 448), (697, 470), (735, 481), (777, 492)]",22.173213349259576,"[9, 7, 6, 5, 2, 3, 1, 8, 4]","(0, 0.25)",CHN007D,CHN,D,Chinese,Tue Oct 23 16:51:48 2018,Mouse
2,1,4,0,19,2,2,1,402,32,370,136,0,500,200,8000,"[(512, 384), (512, 384), (512, 384), (511, 385), (510, 385), (510, 385), (506, 385), (503, 385), (501, 385), (499, 385), (496, 384), (495, 383), (495, 383), (495, 383), (495, 383), (495, 383), (495, 383), (495, 383), (495, 383), (495, 383), (495, 383), (495, 383), (495, 383), (494, 383), (494, 383), (494, 383), (492, 383), (491, 383), (488, 382), (486, 382), (474, 381), (470, 380), (460, 380), (452, 380), (429, 377), (414, 377), (397, 377), (372, 377), (300, 377), (264, 377), (217, 377)]",181.3593057860686,"[9, 7, 6, 5, 2, 3, 1, 8, 4]","(0, 0.25)",CHN007D,CHN,D,Chinese,Tue Oct 23 16:51:48 2018,Mouse
2,1,4,0,20,8,8,1,1180,240,940,135,0,500,200,8000,"[(512, 384), (512, 384), (512, 384), (512, 384), (512, 384), (512, 384), (512, 384), (512, 384), (512, 384), (512, 384), (512, 384), (512, 384), (512, 384), (512, 384), (512, 384), (512, 384), (512, 384), (512, 384), (512, 384), (512, 384), (512, 384), (512, 384), (512, 384), (512, 385), (512, 385), (512, 385), (512, 385), (512, 385), (512, 385), (512, 385), (511, 385), (511, 385), (511, 385), (510, 387), (509, 387), (509, 388), (509, 388), (509, 390), (508, 390), (508, 390), (508, 390), (508, 392), (508, 394), (507, 396), (506, 396), (505, 401), (505, 401), (504, 403), (504, 403), (503, 404), (503, 404), (503, 404), (503, 404), (503, 404), (503, 404), (503, 404), (503, 404), (503, 404), (503, 404), (503, 404), (503, 404), (503, 404), (503, 404), (503, 404), (503, 404), (503, 404), (503, 404), (503, 404), (503, 404), (503, 404), (503, 404), (503, 404), (503, 404), (503, 404), (503, 404), (503, 404), (503, 404), (503, 404), (503, 404), (503, 404), (503, 404), (503, 403), (503, 402), (503, 401), (504, 401), (504, 398), (504, 398), (506, 397), (506, 397), (507, 395), (507, 395), (507, 395), (507, 395), (507, 394), (507, 394), (508, 392), (510, 390), (515, 380), (519, 375), (523, 367), (527, 360), (537, 343), (543, 334), (547, 323), (553, 310), (567, 276), (576, 255), (581, 241), (587, 228), (597, 207), (598, 201), (602, 193), (604, 187), (609, 176), (611, 172), (613, 166), (616, 159), (618, 150)]",294.37012005387385,"[9, 7, 6, 5, 2, 3, 1, 8, 4]","(0, 0.25)",CHN007D,CHN,D,Chinese,Tue Oct 23 16:51:48 2018,Mouse
2,1,4,0,21,7,7,1,912,692,220,134,0,500,200,8000,"[(512, 384), (512, 384), (512, 384), (512, 384), (512, 384), (512, 384), (512, 384), (512, 384), (512, 384), (512, 384), (512, 384), (512, 384), (512, 384), (512, 384), (512, 384), (512, 384), (512, 384), (512, 384), (512, 384), (512, 384), (512, 384), (512, 384), (512, 384), (512, 384), (512, 384), (512, 384), (512, 384), (512, 384), (512, 384), (512, 384), (512, 384), (512, 384), (512, 384), (512, 384), (512, 384), (512, 384), (512, 384), (512, 384), (512, 384), (512, 384), (512, 384), (512, 384), (512, 384), (512, 384), (512, 384), (512, 384), (512, 384), (512, 384), (512, 384), (512, 384), (512, 384), (512, 384), (512, 384), (512, 384), (512, 384), (512, 384), (512, 384), (512, 384), (512, 384), (512, 384), (512, 384), (512, 384), (512, 384), (512, 384), (512, 384), (512, 384), (512, 384), (512, 384), (512, 384), (513, 385), (513, 386), (513, 386), (514, 389), (515, 391), (516, 393), (517, 395), (520, 401), (522, 403), (524, 407), (525, 412), (531, 426), (534, 432), (539, 441), (542, 451), (551, 478), (558, 500), (561, 521), (566, 545), (572, 583), (579, 600), (586, 614), (592, 626)]",71.70722403543496,"[9, 7, 6, 5, 2, 3, 1, 8, 4]","(0, 0.25)",CHN007D,CHN,D,Chinese,Tue Oct 23 16:51:48 2018,Mouse
2,1,4,0,22,1,8,0,-432,152,280,133,0,500,200,8000,"[(512, 384), (512, 384), (512, 384), (512, 384), (512, 384), (512, 384), (512, 384), (512, 384), (512, 384), (512, 384), (512, 384), (512, 384), (512, 384), (512, 384), (512, 384), (512, 382), (512, 379), (512, 372), (512, 365), (512, 358), (512, 351), (517, 336), (519, 327), (522, 319), (524, 311), (527, 302), (528, 299), (529, 296), (529, 295), (530, 291), (531, 290), (531, 290), (531, 290), (532, 288), (532, 287), (534, 287), (534, 285), (545, 278), (553, 270), (561, 261), (571, 249), (601, 207), (615, 187), (630, 162)]",297.9920530445927,"[9, 7, 6, 5, 2, 3, 1, 8, 4]","(0, 0.25)",CHN007D,CHN,D,Chinese,Tue Oct 23 16:51:48 2018,Mouse
2,1,4,0,23,3,9,0,-352,302,50,134,0,500,200,8000,"[(512, 384), (512, 384), (512, 384), (512, 384), (512, 384), (512, 384), (512, 384), (512, 384), (512, 384), (512, 384), (512, 384), (512, 384), (512, 384), (512, 384), (512, 384), (512, 384), (512, 384), (512, 384), (512, 384), (512, 384), (512, 384), (512, 384), (512, 384), (512, 384), (512, 384), (512, 384), (512, 384), (512, 384), (512, 384), (512, 384), (515, 391), (525, 396), (547, 409), (581, 426), (721, 478), (799, 507)]",23.19859051364819,"[9, 7, 6, 5, 2, 3, 1, 8, 4]","(0, 0.25)",CHN007D,CHN,D,Chinese,Tue Oct 23 16:51:48 2018,Mouse
2,1,4,0,24,2,9,0,-592,542,50,135,0,500,200,8000,"[(512, 384), (512, 384), (512, 384), (512, 384), (512, 384), (512, 384), (512, 384), (512, 384), (512, 384), (512, 384), (512, 384), (512, 384), (512, 384), (512, 384), (512, 384), (512, 384), (512, 384), (512, 384), (512, 384), (512, 384), (512, 384), (512, 384), (512, 384), (512, 384), (512, 384), (512, 384), (512, 384), (512, 384), (512, 384), (512, 384), (512, 384), (512, 384), (512, 384), (512, 384), (512, 384), (512, 384), (512, 384), (512, 384), (512, 384), (512, 384), (512, 384), (512, 384), (512, 384), (512, 384), (512, 384), (512, 384), (512, 384), (512, 384), (512, 384), (512, 384), (512, 384), (512, 384), (512, 384), (512, 384), (511, 381), (542, 394), (587, 412), (635, 428), (682, 440), (773, 463)]",16.840118715339358,"[9, 7, 6, 5, 2, 3, 1, 8, 4]","(0, 0.25)",CHN007D,CHN,D,Chinese,Tue Oct 23 16:51:48 2018,Mouse
2,1,4,0,25,3,6,0,-527,37,490,136,0,500,200,8000,"[(512, 384), (512, 384), (512, 384), (512, 385), (512, 385), (512, 385), (512, 385), (512, 385), (512, 385), (513, 385), (513, 385), (513, 385), (514, 385), (514, 385), (514, 385), (514, 385), (515, 386), (515, 386), (515, 386), (515, 386), (515, 386), (515, 386), (515, 386), (515, 386), (515, 386), (515, 386), (515, 386), (515, 386), (515, 386), (515, 386), (515, 390), (515, 393), (514, 395), (514, 399), (513, 408), (512, 414), (512, 418), (510, 425), (509, 436), (508, 441), (507, 448), (507, 453), (503, 464), (500, 471), (499, 478), (497, 485), (491, 503), (489, 512), (487, 523), (486, 536), (476, 576), (468, 602), (453, 639)]",103.02743224051227,"[9, 7, 6, 5, 2, 3, 1, 8, 4]","(0, 0.25)",CHN007D,CHN,D,Chinese,Tue Oct 23 16:51:48 2018,Mouse
2,1,4,0,26,5,5,1,552,52,500,137,0,500,200,8000,"[(512, 384), (512, 384), (512, 384), (512, 384), (512, 384), (512, 385), (514, 385), (516, 384), (518, 384), (522, 381), (525, 379), (529, 375), (532, 373), (540, 368), (541, 367), (544, 363), (544, 362), (547, 358), (548, 357), (548, 356), (548, 356), (549, 354), (549, 354), (549, 354), (549, 354), (549, 354), (549, 354), (549, 354), (548, 354), (546, 355), (544, 356), (541, 357), (540, 358), (534, 362), (531, 364), (528, 368), (526, 371), (518, 385), (515, 389), (507, 398), (504, 404), (494, 417), (488, 425), (483, 430), (478, 435), (463, 449), (458, 454), (452, 458), (444, 462), (428, 471), (418, 475), (405, 482), (391, 493), (362, 519), (347, 534), (323, 556)]",137.69614738547256,"[9, 7, 6, 5, 2, 3, 1, 8, 4]","(0, 0.25)",CHN007D,CHN,D,Chinese,Tue Oct 23 16:51:48 2018,Mouse
2,1,4,0,27,7,7,1,574,164,410,137,0,500,200,8000,"[(512, 384), (512, 384), (512, 384), (512, 384), (512, 384), (512, 384), (512, 384), (512, 384), (512, 384), (512, 384), (512, 384), (512, 384), (512, 384), (512, 384), (512, 384), (512, 384), (511, 384), (510, 387), (509, 389), (509, 390), (508, 392), (506, 396), (505, 397), (504, 399), (502, 402), (501, 405), (499, 407), (499, 407), (499, 407), (499, 407), (499, 407), (499, 407), (499, 407), (498, 411), (498, 413), (496, 416), (496, 419), (496, 427), (495, 431), (495, 433), (495, 435), (494, 438), (494, 439), (494, 440), (494, 441), (494, 443), (494, 446), (496, 450), (499, 454), (506, 462), (511, 468), (515, 472), (520, 478), (535, 500), (547, 516), (563, 538), (582, 566), (621, 615)]",64.73918083589484,"[9, 7, 6, 5, 2, 3, 1, 8, 4]","(0, 0.25)",CHN007D,CHN,D,Chinese,Tue Oct 23 16:51:48 2018,Mouse
2,1,4,0,28,7,7,1,292,112,180,136,0,500,200,8000,"[(512, 384), (512, 384), (512, 384), (512, 384), (512, 384), (512, 384), (512, 384), (512, 384), (512, 384), (512, 384), (512, 384), (512, 386), (512, 390), (512, 392), (513, 393), (514, 397), (515, 401), (517, 403), (518, 406), (521, 410), (526, 420), (530, 430), (533, 438), (539, 450), (557, 479), (566, 498), (577, 514), (587, 533), (616, 580), (642, 609)]",59.981632572390915,"[9, 7, 6, 5, 2, 3, 1, 8, 4]","(0, 0.25)",CHN007D,CHN,D,Chinese,Tue Oct 23 16:51:48 2018,Mouse
2,1,4,0,29,1,7,0,-294,204,90,135,0,500,200,8000,"[(512, 384), (512, 384), (512, 384), (512, 384), (512, 384), (512, 384), (512, 384), (512, 384), (512, 384), (512, 384), (512, 384), (512, 384), (512, 384), (512, 384), (512, 384), (512, 384), (512, 384), (512, 384), (512, 384), (512, 384), (513, 384), (514, 388), (521, 405), (529, 420), (535, 438), (545, 461), (570, 517), (589, 557), (610, 595), (634, 636)]",64.16712340048582,"[9, 7, 6, 5, 2, 3, 1, 8, 4]","(0, 0.25)",CHN007D,CHN,D,Chinese,Tue Oct 23 16:51:48 2018,Mouse
2,1,4,0,30,7,7,1,293,73,220,136,0,500,200,8000,"[(512, 384), (512, 384), (512, 384), (512, 384), (512, 384), (512, 384), (512, 384), (512, 387), (512, 392), (512, 401), (512, 405), (514, 410), (515, 413), (516, 416), (516, 417), (518, 419), (518, 420), (519, 423), (521, 427), (524, 435), (527, 442), (537, 462), (541, 472), (547, 482), (556, 495), (576, 526), (585, 542), (593, 561), (608, 583), (643, 640)]",62.90032254012768,"[9, 7, 6, 5, 2, 3, 1, 8, 4]","(0, 0.25)",CHN007D,CHN,D,Chinese,Tue Oct 23 16:51:48 2018,Mouse
2,1,4,0,31,9,9,1,722,612,110,136,0,500,200,8000,"[(512, 384), (512, 384), (512, 384), (512, 384), (512, 384), (512, 384), (512, 384), (512, 384), (512, 384), (512, 384), (512, 384), (512, 384), (512, 384), (512, 384), (512, 384), (512, 384), (512, 384), (512, 384), (512, 384), (512, 384), (512, 384), (512, 384), (512, 384), (512, 384), (512, 384), (512, 384), (512, 384), (512, 384), (512, 384), (512, 384), (512, 384), (512, 384), (512, 384), (512, 384), (512, 384), (512, 384), (512, 384), (512, 384), (512, 384), (512, 384), (512, 384), (512, 384), (512, 384), (512, 384), (512, 384), (512, 384), (512, 384), (512, 384), (512, 384), (512, 384), (512, 384), (512, 384), (512, 384), (512, 384), (512, 384), (512, 384), (512, 384), (512, 384), (512, 384), (512, 384), (512, 384), (514, 384), (519, 384), (532, 384), (561, 394), (581, 399), (606, 407), (625, 411), (673, 427), (699, 438), (721, 449), (744, 458), (788, 479)]",18.99361152474886,"[9, 7, 6, 5, 2, 3, 1, 8, 4]","(0, 0.25)",CHN007D,CHN,D,Chinese,Tue Oct 23 16:51:48 2018,Mouse
2,1,4,0,32,5,8,0,-2104,2014,90,135,0,500,200,8000,"[(512, 384), (512, 384), (512, 384), (512, 384), (512, 384), (512, 384), (512, 384), (512, 384), (512, 384), (512, 384), (512, 384), (512, 384), (512, 384), (512, 384), (512, 384), (512, 384), (512, 384), (512, 384), (512, 384), (512, 384), (512, 384), (512, 384), (512, 384), (512, 384), (512, 384), (512, 384), (512, 384), (512, 384), (512, 384), (512, 384), (512, 384), (512, 384), (512, 384), (512, 384), (512, 384), (512, 384), (512, 384), (512, 384), (512, 384), (512, 384), (512, 384), (512, 384), (512, 384), (512, 384), (512, 384), (512, 384), (512, 384), (512, 384), (512, 384), (512, 384), (512, 384), (512, 384), (512, 384), (512, 384), (512, 384), (512, 384), (512, 384), (512, 384), (512, 384), (512, 384), (512, 384), (512, 384), (512, 384), (512, 384), (512, 384), (512, 384), (512, 384), (512, 384), (512, 384), (512, 384), (512, 384), (512, 384), (512, 384), (512, 384), (512, 384), (512, 384), (512, 384), (512, 384), (512, 384), (512, 384), (512, 384), (512, 384), (512, 384), (512, 384), (512, 384), (512, 384), (512, 384), (512, 384), (512, 384), (512, 384), (512, 384), (512, 384), (512, 384), (512, 384), (512, 384), (512, 384), (512, 384), (512, 384), (512, 384), (512, 384), (512, 384), (512, 384), (512, 384), (512, 384), (512, 384), (512, 384), (512, 384), (512, 384), (512, 384), (512, 384), (512, 384), (512, 384), (512, 384), (512, 384), (512, 384), (512, 384), (512, 384), (512, 384), (512, 384), (512, 384), (512, 384), (512, 384), (512, 384), (512, 384), (512, 384), (512, 384), (512, 384), (512, 384), (512, 384), (512, 384), (512, 384), (512, 384), (512, 384), (512, 384), (512, 384), (512, 384), (512, 384), (512, 384), (512, 384), (512, 384), (512, 384), (512, 384), (512, 384), (512, 384), (512, 384), (512, 384), (512, 384), (512, 384), (512, 384), (512, 384), (512, 384), (512, 384), (512, 384), (512, 384), (512, 384), (512, 384), (512, 384), (512, 384), (512, 384), (512, 384), (512, 384), (512, 384), (512, 384), (512, 384), (512, 384), (512, 384), (512, 384), (512, 384), (512, 384), (512, 384), (512, 384), (512, 384), (512, 384), (512, 384), (512, 384), (512, 384), (512, 384), (512, 384), (512, 384), (512, 384), (512, 384), (512, 384), (512, 384), (512, 384), (512, 384), (512, 384), (512, 384), (512, 384), (512, 384), (512, 384), (512, 384), (512, 384), (512, 384), (512, 384), (512, 384), (512, 384), (512, 384), (512, 384), (512, 384), (512, 384), (512, 384), (511, 383), (511, 379), (517, 366), (525, 355), (537, 339), (549, 317), (578, 261), (595, 221), (606, 185), (619, 145)]",294.1180025347544,"[9, 7, 6, 5, 2, 3, 1, 8, 4]","(0, 0.25)",CHN007D,CHN,D,Chinese,Tue Oct 23 16:51:48 2018,Mouse
2,1,4,0,33,4,7,0,-461,61,400,136,0,500,200,8000,"[(512, 384), (512, 384), (512, 384), (512, 384), (512, 384), (512, 384), (510, 384), (510, 384), (510, 384), (510, 384), (510, 384), (510, 384), (510, 384), (510, 384), (510, 384), (510, 384), (510, 384), (509, 385), (509, 385), (509, 385), (509, 385), (508, 385), (507, 385), (507, 387), (506, 387), (506, 388), (506, 388), (506, 388), (506, 388), (505, 388), (505, 388), (504, 390), (504, 390), (504, 396), (504, 398), (504, 400), (504, 405), (504, 419), (504, 428), (507, 441), (510, 455), (515, 484), (516, 503), (523, 523), (533, 549), (569, 624), (592, 665)]",74.10847881710922,"[9, 7, 6, 5, 2, 3, 1, 8, 4]","(0, 0.25)",CHN007D,CHN,D,Chinese,Tue Oct 23 16:51:48 2018,Mouse
2,1,4,0,34,5,5,1,962,22,940,137,0,500,200,8000,"[(512, 384), (512, 384), (511, 384), (511, 384), (511, 384), (511, 384), (511, 384), (511, 384), (511, 384), (511, 384), (511, 384), (511, 384), (511, 384), (511, 384), (511, 384), (511, 384), (511, 384), (511, 384), (511, 384), (511, 384), (511, 384), (511, 384), (511, 384), (511, 384), (511, 384), (511, 384), (511, 384), (511, 384), (511, 384), (511, 384), (511, 384), (511, 384), (511, 384), (511, 384), (511, 384), (511, 384), (511, 384), (511, 384), (511, 384), (511, 384), (511, 384), (511, 384), (511, 384), (511, 384), (511, 384), (511, 384), (511, 384), (511, 384), (511, 384), (511, 384), (511, 384), (511, 384), (511, 384), (511, 384), (511, 384), (511, 384), (511, 384), (511, 384), (511, 384), (511, 384), (511, 384), (511, 384), (511, 384), (511, 384), (511, 384), (511, 384), (511, 384), (511, 384), (511, 384), (511, 384), (511, 384), (511, 384), (511, 384), (511, 384), (511, 384), (511, 384), (511, 384), (511, 384), (511, 384), (511, 384), (511, 384), (511, 384), (511, 384), (509, 384), (508, 384), (507, 385), (504, 386), (499, 389), (495, 392), (489, 398), (481, 406), (461, 433), (439, 454), (419, 472), (393, 490), (330, 530), (283, 544)]",145.058386632583,"[9, 7, 6, 5, 2, 3, 1, 8, 4]","(0, 0.25)",CHN007D,CHN,D,Chinese,Tue Oct 23 16:51:48 2018,Mouse
2,1,4,0,35,1,7,0,-323,153,170,137,0,500,200,8000,"[(512, 384), (512, 384), (512, 384), (512, 384), (512, 384), (512, 384), (512, 384), (512, 384), (512, 384), (512, 384), (512, 384), (512, 384), (512, 384), (512, 384), (512, 384), (514, 385), (514, 388), (516, 389), (517, 392), (523, 402), (528, 408), (532, 413), (536, 419), (547, 432), (552, 439), (561, 446), (572, 460), (606, 489), (624, 505), (639, 519), (656, 532), (681, 558), (691, 572)]",46.40479205003496,"[9, 7, 6, 5, 2, 3, 1, 8, 4]","(0, 0.25)",CHN007D,CHN,D,Chinese,Tue Oct 23 16:51:48 2018,Mouse
2,1,4,0,36,5,5,1,1272,282,990,138,0,500,200,8000,"[(512, 384), (512, 384), (512, 384), (512, 384), (512, 384), (512, 384), (512, 384), (512, 384), (512, 384), (512, 384), (512, 384), (512, 384), (512, 384), (512, 384), (512, 384), (512, 384), (512, 384), (512, 384), (512, 384), (512, 384), (512, 384), (512, 384), (512, 384), (512, 384), (512, 384), (512, 384), (512, 384), (512, 384), (512, 381), (512, 381), (512, 381), (512, 379), (512, 379), (512, 379), (512, 378), (512, 378), (512, 378), (512, 378), (512, 378), (512, 378), (512, 378), (512, 378), (512, 378), (512, 378), (512, 378), (512, 378), (514, 378), (515, 378), (516, 380), (517, 383), (517, 385), (517, 387), (517, 388), (517, 389), (517, 391), (517, 394), (517, 394), (517, 394), (517, 394), (517, 394), (517, 394), (517, 394), (517, 394), (517, 394), (517, 394), (517, 394), (517, 394), (517, 394), (517, 394), (517, 394), (517, 394), (517, 394), (517, 394), (517, 394), (517, 394), (517, 394), (517, 394), (517, 394), (517, 394), (517, 394), (517, 394), (517, 394), (517, 394), (517, 395), (517, 395), (517, 395), (517, 395), (517, 395), (516, 396), (516, 398), (514, 400), (510, 406), (506, 408), (503, 411), (500, 413), (496, 416), (496, 417), (495, 418), (493, 419), (491, 419), (488, 420), (486, 422), (480, 422), (466, 418), (462, 415), (458, 411), (455, 408), (452, 405), (451, 404), (451, 404), (450, 402), (450, 402), (450, 402), (450, 402), (450, 402), (449, 402), (449, 402), (449, 402), (449, 402), (444, 404), (441, 406), (436, 411), (426, 417), (405, 431), (387, 447), (369, 464), (348, 490), (304, 544)]",142.43140797117252,"[9, 7, 6, 5, 2, 3, 1, 8, 4]","(0, 0.25)",CHN007D,CHN,D,Chinese,Tue Oct 23 16:51:48 2018,Mouse
2,1,4,0,37,6,6,1,395,275,120,138,0,500,200,8000,"[(512, 384), (512, 384), (512, 384), (512, 384), (512, 384), (512, 384), (512, 384), (512, 384), (512, 384), (512, 384), (512, 384), (512, 384), (512, 384), (512, 384), (512, 384), (512, 384), (512, 384), (512, 384), (512, 384), (512, 384), (512, 384), (512, 384), (512, 384), (512, 384), (512, 384), (512, 384), (512, 384), (513, 384), (515, 385), (515, 389), (515, 393), (515, 403), (514, 412), (512, 420), (509, 430), (503, 461), (502, 493), (500, 535), (494, 572), (489, 641)]",95.11401383139514,"[9, 7, 6, 5, 2, 3, 1, 8, 4]","(0, 0.25)",CHN007D,CHN,D,Chinese,Tue Oct 23 16:51:48 2018,Mouse
2,1,4,0,38,8,8,1,1561,681,880,137,0,500,200,8000,"[(512, 384), (512, 384), (512, 384), (512, 384), (512, 384), (512, 384), (512, 384), (512, 384), (512, 384), (512, 384), (512, 384), (512, 384), (512, 384), (512, 384), (512, 384), (512, 384), (512, 384), (512, 384), (512, 384), (512, 384), (512, 384), (512, 384), (512, 384), (512, 384), (512, 384), (512, 384), (512, 384), (512, 384), (512, 384), (512, 384), (512, 384), (512, 384), (512, 384), (512, 384), (512, 384), (512, 384), (512, 384), (512, 384), (512, 384), (512, 384), (512, 384), (512, 384), (512, 384), (512, 384), (512, 384), (512, 384), (512, 384), (512, 384), (512, 384), (512, 384), (512, 384), (512, 384), (512, 384), (512, 384), (512, 384), (512, 384), (512, 384), (512, 384), (512, 384), (512, 384), (512, 384), (512, 384), (512, 384), (512, 384), (512, 384), (512, 384), (512, 384), (512, 384), (514, 384), (514, 384), (514, 384), (514, 384), (514, 384), (514, 384), (514, 384), (514, 384), (514, 384), (515, 384), (515, 384), (515, 384), (515, 384), (515, 384), (515, 384), (515, 384), (515, 384), (515, 384), (515, 384), (515, 384), (515, 384), (515, 385), (515, 386), (515, 386), (515, 387), (515, 387), (515, 387), (515, 387), (515, 389), (515, 390), (515, 390), (515, 391), (515, 392), (515, 392), (514, 393), (514, 393), (514, 393), (514, 393), (514, 393), (514, 393), (514, 393), (514, 393), (514, 393), (513, 393), (511, 393), (511, 393), (511, 393), (511, 393), (510, 393), (510, 393), (510, 393), (509, 393), (508, 393), (508, 393), (508, 392), (508, 391), (508, 390), (507, 388), (506, 386), (506, 386), (506, 383), (505, 382), (505, 380), (505, 380), (505, 378), (505, 377), (505, 377), (505, 377), (505, 374), (505, 373), (505, 371), (505, 368), (505, 364), (505, 363), (505, 361), (505, 358), (506, 354), (507, 352), (507, 350), (509, 346), (516, 337), (521, 329), (529, 320), (538, 309), (564, 273), (575, 257), (591, 234), (605, 212), (636, 158)]",298.7523684272144,"[9, 7, 6, 5, 2, 3, 1, 8, 4]","(0, 0.25)",CHN007D,CHN,D,Chinese,Tue Oct 23 16:51:48 2018,Mouse
2,1,4,0,39,6,9,0,-1332,212,1120,136,0,500,200,8000,"[(512, 384), (512, 384), (512, 384), (512, 384), (512, 384), (512, 384), (512, 384), (512, 384), (512, 384), (512, 384), (512, 384), (512, 384), (512, 384), (512, 384), (512, 384), (512, 384), (512, 384), (512, 384), (512, 384), (512, 384), (512, 384), (512, 385), (512, 386), (512, 386), (512, 387), (512, 387), (512, 388), (512, 388), (512, 388), (512, 388), (512, 388), (512, 389), (512, 389), (512, 389), (512, 389), (512, 389), (512, 390), (512, 390), (512, 390), (512, 390), (512, 390), (512, 391), (512, 392), (512, 393), (511, 394), (510, 395), (510, 395), (510, 397), (510, 397), (510, 397), (510, 397), (510, 397), (510, 397), (510, 397), (510, 397), (510, 397), (510, 397), (510, 397), (510, 397), (510, 397), (510, 397), (510, 397), (510, 397), (510, 397), (510, 397), (510, 397), (510, 397), (510, 397), (510, 397), (510, 397), (510, 397), (510, 397), (510, 397), (510, 397), (510, 397), (510, 399), (510, 402), (510, 403), (511, 408), (514, 410), (521, 418), (526, 421), (531, 423), (536, 427), (544, 432), (550, 434), (552, 435), (553, 436), (558, 438), (559, 439), (559, 440), (559, 440), (559, 440), (560, 440), (560, 440), (560, 440), (560, 440), (560, 440), (560, 440), (560, 440), (560, 440), (560, 440), (560, 440), (560, 440), (560, 440), (560, 440), (560, 440), (560, 440), (560, 440), (560, 440), (560, 440), (560, 440), (560, 440), (560, 440), (560, 440), (560, 440), (560, 440), (560, 440), (560, 440), (560, 440), (560, 440), (560, 440), (560, 440), (560, 440), (560, 440), (560, 440), (560, 440), (560, 440), (571, 440), (582, 442), (598, 445), (626, 447), (720, 471), (778, 485)]",20.7917320001102,"[9, 7, 6, 5, 2, 3, 1, 8, 4]","(0, 0.25)",CHN007D,CHN,D,Chinese,Tue Oct 23 16:51:48 2018,Mouse
2,1,4,0,40,6,7,0,-692,142,550,137,0,500,200,8000,"[(512, 384), (512, 384), (512, 384), (512, 384), (512, 384), (512, 384), (512, 384), (512, 384), (512, 384), (512, 384), (512, 384), (512, 384), (512, 384), (512, 384), (512, 385), (512, 385), (512, 385), (512, 385), (512, 385), (512, 385), (512, 385), (512, 385), (512, 385), (512, 385), (512, 385), (512, 385), (512, 385), (512, 385), (512, 385), (512, 385), (512, 385), (512, 385), (512, 385), (512, 385), (512, 385), (512, 385), (512, 385), (512, 385), (512, 385), (512, 385), (512, 385), (512, 385), (512, 385), (512, 385), (512, 385), (512, 385), (512, 385), (512, 385), (512, 385), (512, 385), (512, 385), (512, 385), (512, 385), (511, 386), (510, 388), (510, 391), (510, 394), (510, 396), (510, 402), (517, 414), (520, 417), (524, 425), (530, 434), (542, 451), (551, 462), (560, 475), (569, 487), (612, 537), (637, 563), (666, 591)]",53.35217790684944,"[9, 7, 6, 5, 2, 3, 1, 8, 4]","(0, 0.25)",CHN007D,CHN,D,Chinese,Tue Oct 23 16:51:48 2018,Mouse
2,1,4,0,41,5,5,1,733,403,330,138,0,500,200,8000,"[(512, 384), (512, 384), (512, 384), (512, 384), (512, 384), (512, 384), (512, 384), (512, 384), (512, 384), (512, 384), (512, 384), (512, 384), (512, 384), (512, 384), (512, 384), (512, 384), (512, 384), (512, 384), (512, 384), (512, 384), (512, 384), (512, 384), (512, 384), (512, 384), (512, 384), (512, 384), (512, 384), (512, 384), (512, 384), (512, 384), (512, 384), (512, 384), (512, 384), (512, 384), (512, 384), (512, 384), (512, 384), (512, 384), (512, 384), (512, 384), (513, 383), (513, 383), (513, 383), (513, 383), (513, 383), (513, 383), (513, 383), (513, 383), (513, 383), (513, 383), (513, 384), (513, 384), (513, 385), (513, 385), (512, 387), (511, 387), (510, 387), (509, 387), (506, 389), (503, 390), (499, 392), (497, 393), (487, 396), (481, 400), (472, 404), (463, 407), (443, 418), (430, 428), (418, 436), (402, 449), (366, 488), (349, 506), (331, 523), (313, 540)]",141.9064070820618,"[9, 7, 6, 5, 2, 3, 1, 8, 4]","(0, 0.25)",CHN007D,CHN,D,Chinese,Tue Oct 23 16:51:48 2018,Mouse
2,1,4,0,42,8,6,0,-1228,292,936,138,0,500,200,8000,"[(512, 384), (512, 384), (512, 384), (512, 384), (512, 384), (512, 384), (512, 384), (512, 384), (512, 384), (512, 384), (512, 384), (512, 384), (512, 384), (512, 384), (512, 384), (512, 384), (512, 384), (512, 384), (512, 384), (512, 384), (512, 384), (512, 384), (512, 384), (512, 384), (512, 384), (512, 384), (512, 384), (512, 384), (512, 384), (511, 382), (510, 382), (508, 380), (508, 380), (505, 379), (504, 378), (502, 377), (500, 377), (497, 375), (497, 375), (495, 375), (495, 375), (494, 375), (494, 375), (494, 375), (494, 375), (494, 375), (494, 375), (492, 375), (491, 374), (490, 373), (490, 373), (489, 372), (489, 372), (488, 371), (488, 371), (488, 371), (488, 371), (487, 371), (487, 371), (487, 371), (487, 371), (487, 371), (487, 371), (487, 371), (487, 371), (487, 371), (487, 371), (487, 371), (487, 371), (487, 371), (487, 371), (487, 371), (487, 371), (482, 371), (481, 371), (478, 374), (475, 376), (472, 380), (470, 383), (469, 384), (468, 385), (465, 389), (465, 389), (465, 389), (465, 389), (465, 389), (465, 389), (465, 389), (465, 389), (465, 389), (465, 389), (465, 389), (465, 389), (465, 389), (465, 389), (465, 389), (465, 389), (465, 389), (465, 389), (465, 389), (465, 389), (465, 389), (465, 389), (465, 389), (465, 389), (465, 389), (465, 389), (465, 389), (467, 394), (472, 398), (477, 406), (485, 416), (489, 429), (495, 458), (499, 482), (501, 505), (501, 533), (501, 575), (501, 597), (499, 618), (499, 633), (499, 661)]",92.68700000212405,"[9, 7, 6, 5, 2, 3, 1, 8, 4]","(0, 0.25)",CHN007D,CHN,D,Chinese,Tue Oct 23 16:51:48 2018,Mouse
2,1,4,0,43,9,9,1,678,318,360,139,0,500,200,8000,"[(512, 384), (512, 384), (512, 384), (512, 384), (512, 384), (512, 384), (512, 384), (512, 384), (512, 384), (512, 384), (512, 384), (512, 384), (512, 384), (512, 384), (512, 384), (512, 384), (512, 384), (512, 384), (512, 384), (512, 384), (512, 384), (512, 384), (512, 384), (512, 384), (512, 384), (512, 384), (512, 384), (512, 384), (512, 384), (512, 384), (512, 384), (513, 384), (514, 384), (517, 384), (518, 384), (519, 385), (520, 385), (523, 386), (524, 387), (524, 387), (525, 388), (525, 388), (525, 388), (526, 389), (527, 389), (529, 391), (530, 393), (532, 394), (533, 396), (536, 397), (537, 399), (538, 399), (539, 400), (545, 404), (548, 406), (552, 408), (559, 412), (571, 418), (576, 421), (580, 423), (585, 425), (595, 428), (601, 430), (611, 432), (624, 438), (673, 455), (717, 464), (750, 471)]",20.079694056017086,"[9, 7, 6, 5, 2, 3, 1, 8, 4]","(0, 0.25)",CHN007D,CHN,D,Chinese,Tue Oct 23 16:51:48 2018,Mouse
2,1,4,0,44,6,6,1,1062,542,520,139,0,500,200,8000,"[(512, 384), (512, 384), (512, 384), (512, 384), (512, 384), (512, 384), (512, 384), (512, 384), (512, 384), (512, 384), (512, 384), (512, 384), (512, 384), (512, 384), (512, 384), (512, 384), (512, 384), (512, 384), (512, 384), (512, 384), (512, 384), (512, 384), (512, 384), (512, 384), (512, 384), (512, 384), (512, 384), (512, 384), (512, 384), (512, 384), (512, 384), (512, 384), (512, 384), (512, 384), (512, 384), (512, 384), (512, 384), (512, 384), (512, 384), (512, 384), (512, 384), (512, 384), (512, 384), (512, 384), (512, 384), (512, 384), (512, 384), (512, 384), (512, 384), (512, 384), (512, 384), (512, 384), (512, 384), (512, 384), (513, 381), (513, 381), (514, 379), (515, 376), (516, 373), (516, 371), (516, 370), (516, 369), (518, 367), (518, 367), (518, 367), (518, 367), (518, 367), (518, 367), (518, 367), (518, 367), (518, 367), (518, 367), (518, 368), (518, 370), (516, 374), (515, 378), (513, 381), (509, 386), (502, 395), (498, 402), (493, 409), (489, 417), (478, 430), (475, 435), (471, 441), (468, 447), (464, 464), (463, 477), (458, 493), (456, 516), (447, 572), (442, 587), (440, 595), (440, 595), (440, 595), (440, 595), (440, 595), (441, 597), (441, 598), (441, 598), (441, 598), (441, 600), (439, 608), (438, 611), (436, 616), (433, 618), (432, 626)]",108.29277596456505,"[9, 7, 6, 5, 2, 3, 1, 8, 4]","(0, 0.25)",CHN007D,CHN,D,Chinese,Tue Oct 23 16:51:48 2018,Mouse
2,1,4,0,45,5,5,1,561,321,240,138,0,500,200,8000,"[(512, 384), (512, 384), (512, 384), (512, 384), (512, 384), (512, 384), (512, 384), (512, 384), (512, 384), (512, 384), (512, 384), (512, 384), (512, 384), (512, 384), (512, 384), (512, 384), (512, 384), (512, 384), (512, 384), (512, 384), (512, 384), (512, 384), (512, 384), (512, 384), (512, 384), (512, 384), (512, 384), (512, 384), (512, 384), (512, 384), (512, 384), (512, 384), (506, 387), (503, 388), (501, 388), (498, 389), (495, 391), (493, 394), (492, 394), (491, 395), (488, 396), (486, 397), (485, 398), (484, 398), (481, 399), (479, 401), (476, 403), (471, 407), (461, 421), (450, 433), (442, 443), (429, 457), (396, 484), (374, 499), (346, 518), (319, 533), (245, 577)]",144.13884911969268,"[9, 7, 6, 5, 2, 3, 1, 8, 4]","(0, 0.25)",CHN007D,CHN,D,Chinese,Tue Oct 23 16:51:48 2018,Mouse
2,1,4,0,46,7,7,1,462,121,341,137,0,500,200,8000,"[(512, 384), (512, 384), (512, 384), (512, 384), (512, 384), (512, 384), (512, 384), (512, 384), (512, 384), (512, 384), (512, 384), (512, 384), (511, 386), (511, 386), (511, 387), (511, 387), (511, 392), (511, 396), (513, 400), (513, 402), (514, 406), (514, 408), (516, 409), (516, 412), (520, 417), (521, 420), (522, 422), (525, 426), (528, 430), (528, 432), (529, 434), (530, 436), (532, 439), (533, 441), (534, 443), (535, 446), (538, 452), (543, 457), (546, 461), (549, 465), (553, 472), (557, 481), (560, 491), (561, 504), (575, 553), (592, 595), (613, 633)]",67.92141889790871,"[9, 7, 6, 5, 2, 3, 1, 8, 4]","(0, 0.25)",CHN007D,CHN,D,Chinese,Tue Oct 23 16:51:48 2018,Mouse
2,1,4,0,47,2,8,0,-1842,262,1580,136,0,500,200,8000,"[(512, 384), (512, 384), (512, 384), (512, 384), (512, 384), (512, 384), (512, 384), (512, 384), (512, 384), (512, 384), (512, 384), (512, 384), (512, 384), (512, 384), (512, 384), (512, 384), (512, 384), (512, 384), (512, 384), (512, 384), (512, 384), (512, 384), (512, 384), (512, 384), (512, 384), (512, 384), (512, 383), (512, 383), (512, 383), (512, 383), (511, 383), (510, 383), (510, 383), (510, 383), (510, 383), (510, 383), (510, 383), (510, 383), (510, 383), (510, 383), (510, 383), (510, 383), (509, 383), (509, 383), (509, 383), (509, 383), (509, 383), (509, 383), (509, 383), (509, 383), (509, 383), (509, 383), (509, 383), (509, 383), (509, 383), (509, 384), (509, 384), (509, 384), (508, 384), (508, 384), (508, 384), (508, 384), (508, 384), (508, 384), (508, 384), (508, 384), (508, 384), (508, 384), (508, 384), (508, 384), (508, 384), (508, 384), (508, 384), (508, 384), (508, 384), (508, 384), (508, 384), (508, 384), (508, 384), (508, 384), (508, 384), (508, 384), (508, 384), (508, 384), (508, 384), (508, 384), (508, 384), (508, 384), (508, 384), (508, 384), (508, 384), (508, 384), (508, 384), (508, 384), (508, 384), (508, 384), (508, 384), (508, 384), (508, 384), (508, 384), (508, 384), (508, 384), (508, 384), (508, 384), (508, 384), (508, 384), (508, 384), (508, 384), (508, 384), (508, 384), (508, 384), (508, 384), (508, 384), (508, 384), (508, 384), (508, 384), (508, 384), (507, 384), (507, 384), (507, 384), (507, 384), (507, 384), (507, 384), (507, 384), (507, 384), (507, 384), (507, 384), (507, 384), (507, 384), (507, 384), (507, 384), (507, 384), (507, 384), (507, 384), (507, 384), (507, 384), (507, 384), (507, 384), (507, 384), (507, 384), (507, 384), (507, 384), (507, 384), (507, 383), (507, 383), (508, 383), (509, 382), (509, 382), (510, 381), (510, 381), (511, 380), (511, 380), (511, 380), (511, 380), (511, 380), (512, 380), (512, 380), (512, 380), (512, 380), (512, 380), (513, 380), (513, 380), (513, 380), (513, 380), (514, 379), (514, 379), (514, 379), (515, 377), (517, 375), (518, 374), (521, 371), (522, 367), (525, 363), (530, 355), (543, 323), (552, 303), (563, 276), (572, 256), (588, 220), (594, 205), (601, 191), (609, 181), (618, 166), (622, 160), (626, 154)]",296.3654151225536,"[9, 7, 6, 5, 2, 3, 1, 8, 4]","(0, 0.25)",CHN007D,CHN,D,Chinese,Tue Oct 23 16:51:48 2018,Mouse
2,1,4,0,48,8,8,1,1283,194,1089,137,0,500,200,8000,"[(512, 384), (512, 384), (512, 384), (512, 384), (512, 384), (512, 384), (512, 384), (512, 384), (512, 384), (512, 384), (512, 384), (512, 384), (512, 384), (512, 384), (512, 384), (512, 384), (512, 384), (512, 384), (512, 384), (511, 384), (510, 385), (509, 387), (509, 387), (509, 389), (509, 390), (509, 392), (509, 395), (509, 397), (508, 403), (508, 405), (508, 408), (507, 410), (507, 414), (507, 415), (507, 417), (507, 418), (507, 421), (507, 424), (507, 426), (507, 429), (507, 432), (507, 432), (507, 433), (507, 433), (507, 434), (507, 435), (507, 435), (507, 435), (507, 436), (507, 436), (507, 436), (507, 437), (507, 437), (507, 438), (507, 438), (507, 438), (506, 439), (506, 439), (506, 439), (506, 439), (506, 439), (506, 439), (506, 440), (506, 440), (505, 440), (505, 441), (505, 441), (505, 441), (505, 441), (505, 441), (505, 441), (505, 441), (505, 441), (505, 441), (505, 441), (505, 441), (505, 441), (505, 441), (505, 441), (505, 441), (505, 441), (505, 441), (505, 441), (505, 441), (505, 441), (505, 441), (505, 441), (505, 441), (505, 441), (505, 441), (505, 441), (505, 441), (505, 441), (505, 441), (505, 441), (505, 439), (505, 437), (505, 434), (505, 432), (505, 430), (505, 425), (509, 409), (512, 402), (514, 395), (517, 386), (521, 372), (522, 366), (523, 362), (527, 354), (533, 340), (538, 331), (543, 321), (548, 312), (554, 301), (559, 294), (561, 291), (565, 284), (571, 272), (575, 266), (580, 256), (584, 246), (593, 224), (597, 212), (603, 203), (606, 195), (612, 180), (614, 173), (619, 164), (622, 157)]",295.85396985676437,"[9, 7, 6, 5, 2, 3, 1, 8, 4]","(0, 0.25)",CHN007D,CHN,D,Chinese,Tue Oct 23 16:51:48 2018,Mouse
2,1,4,0,49,8,6,0,-912,122,790,137,0,500,200,8000,"[(512, 384), (512, 384), (512, 384), (512, 384), (512, 384), (512, 384), (512, 384), (512, 384), (512, 384), (512, 384), (512, 384), (512, 384), (512, 385), (512, 388), (512, 388), (511, 389), (510, 391), (509, 392), (508, 393), (508, 393), (508, 393), (508, 394), (508, 394), (508, 394), (508, 394), (508, 396), (507, 398), (507, 398), (507, 398), (506, 398), (506, 398), (506, 399), (505, 399), (504, 401), (503, 401), (503, 402), (502, 403), (500, 404), (500, 404), (500, 404), (500, 404), (500, 404), (500, 404), (500, 404), (500, 404), (500, 404), (500, 404), (500, 404), (498, 406), (498, 406), (497, 408), (496, 408), (496, 408), (495, 411), (495, 411), (495, 413), (494, 413), (493, 415), (493, 416), (493, 416), (492, 419), (492, 421), (491, 424), (490, 425), (489, 427), (487, 430), (487, 432), (486, 432), (486, 433), (486, 434), (486, 435), (486, 435), (486, 435), (485, 436), (485, 436), (485, 438), (484, 441), (483, 445), (482, 448), (481, 452), (479, 456), (477, 469), (476, 475), (474, 485), (473, 496), (472, 519), (472, 531), (472, 543), (472, 558), (472, 599), (472, 624), (472, 647)]",98.64791295128693,"[9, 7, 6, 5, 2, 3, 1, 8, 4]","(0, 0.25)",CHN007D,CHN,D,Chinese,Tue Oct 23 16:51:48 2018,Mouse
2,1,4,0,50,9,5,0,-1194,274,920,138,0,500,200,8000,"[(512, 384), (512, 384), (512, 384), (512, 384), (512, 384), (512, 384), (512, 384), (512, 384), (512, 384), (512, 384), (512, 384), (512, 384), (512, 384), (512, 384), (512, 384), (512, 384), (512, 384), (512, 384), (512, 384), (512, 384), (512, 384), (512, 384), (512, 384), (512, 384), (512, 384), (512, 384), (512, 384), (511, 384), (508, 384), (504, 384), (501, 384), (500, 384), (497, 384), (492, 387), (488, 390), (480, 395), (474, 401), (456, 415), (446, 424), (435, 433), (424, 443), (403, 462), (395, 474), (388, 484), (383, 493), (375, 508), (374, 512), (373, 514), (373, 517), (372, 518), (372, 518), (372, 518), (372, 518), (372, 518), (372, 518), (372, 518), (372, 518), (372, 518), (372, 518), (372, 518), (372, 518), (372, 518), (372, 518), (372, 519), (369, 520), (363, 524), (358, 526), (353, 529), (350, 529), (342, 533), (340, 533), (339, 533), (339, 533), (339, 533), (339, 533), (339, 533), (339, 533), (339, 533), (339, 533), (339, 533), (339, 533), (339, 533), (339, 533), (339, 533), (339, 533), (339, 533), (339, 533), (339, 533), (339, 533), (339, 533), (339, 533), (339, 533), (339, 533), (339, 533), (339, 533), (339, 533), (339, 533), (339, 533), (339, 533), (339, 533), (339, 533), (339, 533), (339, 533), (339, 533), (339, 533), (339, 533), (339, 532), (339, 531), (339, 531), (339, 531), (339, 531), (339, 531), (339, 531), (339, 531), (339, 531), (339, 531), (339, 531), (335, 534), (327, 539), (319, 543)]",140.51713597898808,"[9, 7, 6, 5, 2, 3, 1, 8, 4]","(0, 0.25)",CHN007D,CHN,D,Chinese,Tue Oct 23 16:51:48 2018,Mouse
2,1,4,0,51,2,2,1,941,461,480,139,0,500,200,8000,"[(512, 384), (512, 384), (512, 384), (512, 384), (512, 384), (512, 384), (512, 384), (512, 384), (512, 384), (512, 384), (512, 384), (512, 384), (512, 384), (512, 384), (512, 384), (512, 384), (512, 384), (512, 384), (512, 384), (512, 384), (512, 384), (512, 384), (512, 384), (512, 384), (512, 384), (512, 384), (512, 384), (512, 384), (512, 384), (512, 384), (512, 384), (512, 384), (512, 384), (512, 384), (512, 384), (512, 384), (512, 384), (512, 384), (512, 384), (512, 384), (512, 384), (512, 384), (512, 384), (512, 384), (512, 384), (512, 384), (511, 382), (509, 381), (508, 381), (507, 380), (504, 379), (503, 379), (501, 379), (501, 379), (501, 379), (501, 379), (501, 379), (501, 379), (501, 379), (501, 379), (501, 379), (501, 379), (501, 379), (501, 379), (501, 379), (501, 379), (501, 379), (500, 379), (500, 379), (500, 379), (498, 379), (497, 379), (496, 379), (494, 379), (492, 380), (490, 380), (488, 382), (487, 382), (480, 384), (476, 384), (474, 385), (470, 385), (461, 386), (456, 386), (450, 386), (446, 386), (437, 386), (432, 386), (426, 386), (421, 386), (399, 386), (382, 386), (357, 386), (318, 386), (243, 386)]",179.57401692335685,"[9, 7, 6, 5, 2, 3, 1, 8, 4]","(0, 0.25)",CHN007D,CHN,D,Chinese,Tue Oct 23 16:51:48 2018,Mouse
2,1,4,0,52,5,5,1,713,363,350,139,0,500,200,8000,"[(512, 384), (512, 384), (512, 384), (512, 384), (512, 384), (512, 384), (512, 384), (512, 384), (512, 384), (512, 384), (512, 384), (512, 384), (512, 384), (512, 384), (512, 384), (512, 384), (512, 384), (512, 384), (512, 384), (512, 384), (512, 384), (512, 384), (512, 384), (512, 384), (512, 384), (512, 384), (512, 384), (512, 384), (512, 384), (512, 384), (512, 384), (512, 384), (512, 384), (512, 384), (512, 384), (512, 384), (512, 385), (512, 387), (512, 390), (512, 391), (512, 394), (512, 394), (512, 394), (512, 395), (512, 396), (512, 396), (512, 396), (512, 396), (512, 396), (512, 396), (512, 396), (512, 396), (512, 397), (512, 397), (512, 397), (512, 397), (511, 397), (511, 397), (511, 397), (509, 398), (507, 399), (505, 402), (502, 405), (498, 409), (488, 422), (482, 429), (476, 435), (466, 446), (425, 477), (387, 496), (346, 520), (309, 538)]",142.81529354676687,"[9, 7, 6, 5, 2, 3, 1, 8, 4]","(0, 0.25)",CHN007D,CHN,D,Chinese,Tue Oct 23 16:51:48 2018,Mouse
2,1,4,0,53,6,6,1,500,290,210,138,0,500,200,8000,"[(512, 384), (512, 384), (512, 384), (512, 384), (512, 384), (512, 384), (512, 384), (512, 384), (512, 384), (512, 384), (512, 384), (512, 384), (512, 384), (512, 384), (512, 384), (512, 384), (512, 384), (512, 384), (512, 384), (512, 384), (512, 384), (512, 384), (512, 384), (512, 384), (512, 384), (512, 384), (512, 384), (512, 384), (513, 384), (514, 387), (514, 388), (516, 390), (516, 391), (516, 391), (516, 392), (516, 396), (516, 399), (516, 402), (516, 405), (516, 419), (516, 428), (513, 437), (506, 448), (498, 462), (481, 488), (470, 505), (457, 527), (430, 580), (418, 602), (404, 624)]",114.22774531795417,"[9, 7, 6, 5, 2, 3, 1, 8, 4]","(0, 0.25)",CHN007D,CHN,D,Chinese,Tue Oct 23 16:51:48 2018,Mouse
2,1,4,0,54,4,7,0,-651,211,440,137,0,500,200,8000,"[(512, 384), (512, 384), (512, 384), (512, 384), (512, 384), (512, 384), (512, 384), (512, 384), (512, 384), (512, 384), (512, 384), (512, 384), (512, 384), (512, 384), (512, 384), (512, 384), (512, 384), (512, 384), (512, 384), (512, 384), (512, 384), (513, 384), (515, 384), (517, 386), (519, 387), (519, 388), (519, 391), (520, 392), (520, 393), (521, 394), (521, 395), (522, 399), (522, 402), (524, 407), (525, 413), (530, 426), (533, 432), (535, 438), (538, 443), (544, 454), (544, 456), (547, 459), (549, 462), (550, 464), (550, 464), (550, 464), (550, 464), (551, 465), (551, 465), (551, 466), (552, 467), (553, 470), (555, 473), (555, 476), (560, 483), (566, 495), (570, 502), (574, 509), (579, 518), (588, 541), (594, 554), (598, 564), (603, 573), (618, 593), (625, 603), (632, 611)]",62.13753101752375,"[9, 7, 6, 5, 2, 3, 1, 8, 4]","(0, 0.25)",CHN007D,CHN,D,Chinese,Tue Oct 23 16:51:48 2018,Mouse
2,1,4,0,55,4,4,1,562,462,100,138,0,500,200,8000,"[(512, 384), (512, 384), (512, 384), (512, 384), (512, 384), (512, 384), (512, 384), (512, 384), (512, 384), (512, 384), (512, 384), (512, 384), (512, 384), (512, 384), (512, 384), (512, 384), (512, 384), (512, 384), (512, 384), (512, 384), (512, 384), (512, 384), (512, 384), (512, 384), (512, 384), (512, 384), (512, 384), (512, 384), (512, 384), (512, 384), (512, 384), (512, 384), (512, 384), (512, 384), (512, 384), (512, 384), (512, 384), (512, 384), (512, 384), (512, 384), (512, 384), (512, 384), (512, 384), (512, 384), (512, 384), (512, 384), (516, 382), (518, 381), (522, 380), (532, 377), (558, 369), (578, 361), (602, 352), (628, 339), (702, 309), (740, 292), (777, 275)]",337.641617331017,"[9, 7, 6, 5, 2, 3, 1, 8, 4]","(0, 0.25)",CHN007D,CHN,D,Chinese,Tue Oct 23 16:51:48 2018,Mouse
2,1,4,0,56,4,4,1,412,302,110,138,0,500,200,8000,"[(512, 384), (512, 384), (512, 384), (512, 384), (512, 384), (512, 384), (512, 384), (512, 384), (512, 384), (512, 384), (512, 384), (512, 384), (512, 384), (512, 384), (512, 384), (512, 384), (512, 384), (512, 384), (512, 384), (512, 384), (512, 384), (512, 384), (512, 384), (512, 384), (512, 384), (512, 384), (512, 384), (512, 384), (512, 384), (512, 384), (513, 384), (515, 382), (525, 381), (538, 378), (571, 368), (595, 356), (616, 348), (639, 336), (689, 307), (712, 296), (731, 286), (741, 279)]",335.3678206026379,"[9, 7, 6, 5, 2, 3, 1, 8, 4]","(0, 0.25)",CHN007D,CHN,D,Chinese,Tue Oct 23 16:51:48 2018,Mouse
2,1,4,0,57,2,5,0,-724,384,340,137,0,500,200,8000,"[(512, 384), (512, 384), (512, 384), (512, 384), (512, 384), (512, 384), (512, 384), (512, 384), (512, 384), (512, 384), (512, 384), (512, 384), (512, 384), (512, 384), (512, 384), (512, 384), (512, 384), (512, 384), (512, 384), (512, 384), (512, 384), (512, 384), (512, 384), (512, 384), (512, 384), (512, 384), (512, 384), (512, 384), (512, 384), (512, 384), (512, 384), (512, 384), (512, 384), (512, 384), (512, 384), (512, 384), (512, 384), (512, 384), (513, 384), (515, 384), (517, 385), (517, 386), (518, 387), (518, 387), (519, 387), (519, 388), (520, 389), (520, 389), (522, 390), (522, 390), (522, 391), (522, 391), (523, 391), (523, 392), (523, 392), (523, 392), (523, 392), (523, 392), (523, 393), (523, 395), (513, 401), (505, 404), (495, 410), (486, 415), (468, 425), (456, 432), (443, 440), (428, 451), (391, 477), (373, 496), (355, 511), (340, 523), (309, 545)]",141.581944655178,"[9, 7, 6, 5, 2, 3, 1, 8, 4]","(0, 0.25)",CHN007D,CHN,D,Chinese,Tue Oct 23 16:51:48 2018,Mouse
2,1,4,0,58,9,9,1,253,13,240,138,0,500,200,8000,"[(516, 386), (519, 386), (524, 387), (530, 388), (533, 389), (536, 390), (542, 392), (548, 393), (551, 394), (556, 395), (559, 395), (564, 397), (575, 399), (580, 401), (590, 404), (597, 405), (616, 410), (623, 412), (633, 416), (650, 422), (660, 426), (671, 428), (684, 432), (700, 437), (741, 449), (761, 455)]",15.915000264775333,"[9, 7, 6, 5, 2, 3, 1, 8, 4]","(0, 0.25)",CHN007D,CHN,D,Chinese,Tue Oct 23 16:51:48 2018,Mouse
2,1,4,0,59,8,7,0,-540,340,200,138,0,500,200,8000,"[(512, 384), (512, 384), (512, 384), (512, 384), (512, 384), (512, 384), (512, 384), (512, 384), (512, 384), (512, 384), (512, 384), (512, 384), (512, 384), (512, 384), (512, 384), (512, 384), (512, 384), (512, 384), (512, 384), (512, 384), (512, 384), (512, 384), (512, 384), (512, 384), (512, 384), (512, 384), (512, 384), (512, 384), (512, 384), (512, 384), (512, 384), (512, 384), (512, 384), (512, 388), (512, 391), (512, 392), (512, 394), (512, 397), (512, 398), (512, 400), (512, 401), (512, 405), (514, 409), (517, 414), (521, 420), (537, 442), (545, 454), (554, 469), (557, 480), (576, 520), (584, 533), (595, 552), (607, 576), (637, 633)]",63.34298135854586,"[9, 7, 6, 5, 2, 3, 1, 8, 4]","(0, 0.25)",CHN007D,CHN,D,Chinese,Tue Oct 23 16:51:48 2018,Mouse
2,1,4,0,60,1,7,0,-281,141,140,139,0,500,200,8000,"[(512, 384), (512, 384), (512, 384), (512, 384), (512, 384), (512, 384), (512, 384), (512, 384), (512, 384), (512, 384), (512, 384), (512, 384), (512, 384), (512, 384), (512, 388), (512, 392), (513, 399), (515, 405), (520, 414), (523, 423), (536, 447), (542, 463), (550, 479), (560, 498), (579, 530), (588, 547), (598, 565), (608, 582), (628, 617)]",63.533395082594254,"[9, 7, 6, 5, 2, 3, 1, 8, 4]","(0, 0.25)",CHN007D,CHN,D,Chinese,Tue Oct 23 16:51:48 2018,Mouse
2,1,4,0,61,4,9,0,-371,301,70,140,0,500,200,8000,"[(512, 384), (512, 384), (512, 384), (512, 384), (512, 384), (512, 384), (512, 384), (512, 384), (512, 384), (512, 384), (512, 384), (512, 384), (512, 384), (512, 384), (512, 384), (512, 384), (512, 384), (512, 384), (512, 384), (512, 384), (512, 384), (512, 384), (512, 384), (512, 384), (512, 384), (512, 384), (512, 384), (512, 384), (512, 384), (512, 384), (515, 387), (534, 396), (557, 406), (611, 424), (653, 441), (693, 458), (732, 471), (814, 502)]",21.342003001237305,"[9, 7, 6, 5, 2, 3, 1, 8, 4]","(0, 0.25)",CHN007D,CHN,D,Chinese,Tue Oct 23 16:51:48 2018,Mouse
2,1,4,0,62,1,6,0,-466,336,130,141,0,500,200,8000,"[(512, 384), (512, 384), (512, 384), (512, 384), (512, 384), (512, 384), (512, 384), (512, 384), (512, 384), (512, 384), (512, 384), (512, 384), (512, 384), (512, 384), (512, 384), (512, 384), (512, 384), (512, 384), (512, 384), (512, 384), (512, 384), (512, 384), (512, 384), (512, 384), (512, 384), (512, 384), (512, 384), (512, 384), (512, 384), (512, 384), (512, 384), (512, 384), (512, 384), (512, 387), (512, 389), (512, 394), (510, 397), (509, 400), (506, 407), (502, 425), (501, 439), (501, 458), (498, 487), (480, 556), (467, 592), (457, 623), (450, 653)]",102.97905996918908,"[9, 7, 6, 5, 2, 3, 1, 8, 4]","(0, 0.25)",CHN007D,CHN,D,Chinese,Tue Oct 23 16:51:48 2018,Mouse
2,1,4,0,63,4,4,1,412,92,320,142,0,500,200,8000,"[(512, 384), (512, 384), (512, 384), (512, 384), (512, 384), (512, 384), (512, 384), (512, 384), (512, 384), (512, 381), (512, 375), (512, 371), (512, 367), (513, 360), (514, 358), (515, 358), (516, 355), (516, 355), (516, 355), (517, 355), (517, 355), (517, 355), (518, 355), (518, 355), (519, 355), (519, 355), (520, 354), (522, 353), (522, 353), (525, 352), (530, 351), (530, 351), (534, 350), (548, 348), (560, 347), (580, 343), (598, 342), (650, 329), (675, 321), (709, 310), (738, 298), (787, 279)]",339.10223450116115,"[9, 7, 6, 5, 2, 3, 1, 8, 4]","(0, 0.25)",CHN007D,CHN,D,Chinese,Tue Oct 23 16:51:48 2018,Mouse
2,1,4,0,64,3,5,0,-694,584,110,142,0,500,200,8000,"[(512, 384), (512, 384), (512, 384), (512, 384), (512, 384), (512, 384), (512, 384), (512, 384), (512, 384), (512, 384), (512, 384), (512, 384), (512, 384), (512, 384), (512, 384), (512, 384), (512, 384), (512, 384), (512, 384), (512, 384), (512, 384), (512, 384), (512, 384), (512, 384), (512, 384), (512, 384), (512, 384), (512, 384), (512, 384), (512, 384), (512, 384), (512, 384), (512, 384), (512, 384), (512, 384), (512, 384), (512, 384), (512, 384), (512, 384), (512, 384), (512, 384), (512, 384), (512, 384), (512, 384), (512, 384), (512, 384), (512, 384), (512, 384), (512, 384), (512, 384), (512, 384), (512, 384), (512, 384), (512, 384), (512, 384), (512, 384), (512, 384), (512, 384), (510, 385), (510, 385), (508, 387), (506, 391), (498, 399), (492, 407), (484, 418), (473, 436), (436, 496), (405, 546), (371, 586), (342, 620)]",125.7666764907228,"[9, 7, 6, 5, 2, 3, 1, 8, 4]","(0, 0.25)",CHN007D,CHN,D,Chinese,Tue Oct 23 16:51:48 2018,Mouse
2,1,4,0,65,6,6,1,537,57,480,143,0,500,200,8000,"[(512, 384), (512, 384), (512, 384), (512, 384), (512, 384), (513, 384), (513, 384), (513, 382), (511, 379), (501, 375), (494, 374), (489, 371), (489, 371), (488, 371), (488, 373), (488, 377), (488, 383), (488, 385), (488, 387), (488, 388), (488, 390), (487, 391), (487, 393), (486, 395), (486, 399), (486, 403), (488, 404), (490, 408), (496, 414), (497, 416), (499, 417), (499, 417), (499, 419), (499, 420), (499, 423), (499, 426), (499, 431), (501, 437), (503, 444), (505, 451), (510, 468), (511, 478), (511, 487), (511, 496), (508, 514), (503, 525), (497, 533), (493, 543), (485, 562), (480, 574), (476, 588), (472, 599), (463, 623), (458, 632)]",102.28395544110717,"[9, 7, 6, 5, 2, 3, 1, 8, 4]","(0, 0.25)",CHN007D,CHN,D,Chinese,Tue Oct 23 16:51:48 2018,Mouse
2,1,4,0,66,3,3,1,664,294,370,143,0,500,200,8000,"[(512, 384), (512, 384), (512, 384), (512, 384), (512, 384), (512, 384), (512, 384), (512, 384), (512, 384), (512, 384), (512, 384), (512, 384), (512, 384), (512, 384), (512, 384), (512, 384), (512, 384), (512, 384), (512, 384), (512, 384), (512, 384), (512, 384), (512, 384), (512, 384), (512, 384), (512, 384), (512, 384), (512, 384), (512, 384), (511, 383), (504, 379), (501, 378), (499, 378), (499, 378), (495, 376), (492, 376), (489, 376), (485, 376), (481, 376), (478, 376), (475, 376), (472, 376), (466, 376), (465, 375), (464, 375), (463, 375), (462, 375), (462, 375), (462, 375), (462, 375), (461, 374), (461, 374), (461, 374), (461, 374), (457, 374), (452, 373), (447, 371), (441, 368), (424, 360), (415, 356), (404, 350), (391, 342), (360, 314), (344, 300), (325, 279), (310, 261), (293, 219)]",216.99527114270714,"[9, 7, 6, 5, 2, 3, 1, 8, 4]","(0, 0.25)",CHN007D,CHN,D,Chinese,Tue Oct 23 16:51:48 2018,Mouse
2,1,4,0,67,2,2,1,429,89,340,142,0,500,200,8000,"[(512, 384), (512, 384), (512, 384), (512, 384), (512, 384), (512, 384), (512, 384), (512, 384), (510, 384), (510, 384), (509, 384), (509, 384), (509, 384), (507, 384), (506, 384), (506, 384), (505, 384), (505, 384), (505, 384), (505, 384), (502, 384), (500, 385), (500, 385), (499, 385), (498, 385), (496, 385), (496, 385), (493, 385), (490, 385), (489, 385), (486, 385), (484, 387), (478, 388), (473, 388), (468, 388), (459, 389), (438, 390), (425, 390), (407, 390), (387, 390), (318, 390), (269, 385), (227, 381)]",180.60309119438054,"[9, 7, 6, 5, 2, 3, 1, 8, 4]","(0, 0.25)",CHN007D,CHN,D,Chinese,Tue Oct 23 16:51:48 2018,Mouse
2,1,4,0,68,1,7,0,-806,346,460,141,0,500,200,8000,"[(512, 384), (512, 384), (512, 384), (512, 384), (512, 384), (512, 384), (512, 384), (512, 384), (512, 384), (512, 384), (512, 384), (512, 384), (512, 384), (512, 384), (512, 384), (512, 384), (512, 384), (512, 384), (512, 384), (512, 384), (512, 384), (512, 384), (512, 384), (512, 384), (512, 384), (512, 384), (512, 384), (512, 384), (512, 384), (512, 384), (512, 384), (512, 384), (512, 384), (512, 384), (513, 385), (513, 385), (513, 387), (513, 387), (513, 387), (513, 387), (513, 387), (513, 387), (513, 387), (513, 387), (513, 387), (513, 387), (513, 388), (513, 391), (513, 391), (513, 394), (513, 397), (513, 399), (513, 401), (513, 405), (513, 408), (513, 413), (513, 418), (513, 427), (513, 431), (513, 434), (513, 437), (514, 441), (514, 443), (514, 443), (516, 444), (517, 446), (518, 448), (520, 450), (522, 453), (529, 462), (534, 467), (538, 471), (544, 477), (557, 488), (563, 494), (571, 499), (580, 507), (604, 535), (618, 551), (638, 574), (653, 592)]",55.86725865921666,"[9, 7, 6, 5, 2, 3, 1, 8, 4]","(0, 0.25)",CHN007D,CHN,D,Chinese,Tue Oct 23 16:51:48 2018,Mouse
2,1,4,0,69,5,5,1,372,212,160,142,0,500,200,8000,"[(512, 384), (512, 384), (512, 384), (512, 384), (512, 384), (512, 384), (512, 384), (512, 384), (512, 384), (512, 384), (512, 384), (512, 384), (512, 384), (512, 384), (512, 384), (512, 384), (512, 384), (512, 384), (512, 384), (512, 384), (512, 384), (511, 383), (510, 383), (509, 385), (508, 386), (506, 388), (504, 391), (503, 392), (498, 396), (486, 405), (479, 410), (470, 419), (459, 429), (428, 449), (403, 463), (379, 476), (345, 491), (268, 523)]",150.33104062794118,"[9, 7, 6, 5, 2, 3, 1, 8, 4]","(0, 0.25)",CHN007D,CHN,D,Chinese,Tue Oct 23 16:51:48 2018,Mouse
2,1,4,0,70,2,2,1,391,111,280,142,0,500,200,8000,"[(512, 384), (512, 384), (512, 384), (512, 384), (512, 384), (512, 384), (512, 384), (512, 384), (512, 384), (512, 384), (512, 384), (511, 384), (511, 384), (511, 384), (511, 384), (511, 384), (511, 384), (511, 384), (510, 385), (509, 385), (509, 385), (508, 386), (508, 386), (507, 386), (506, 387), (504, 388), (504, 388), (497, 389), (492, 390), (487, 390), (478, 390), (463, 390), (452, 390), (442, 390), (429, 390), (396, 390), (370, 389), (335, 382), (300, 379), (220, 368)]",183.1363583683326,"[9, 7, 6, 5, 2, 3, 1, 8, 4]","(0, 0.25)",CHN007D,CHN,D,Chinese,Tue Oct 23 16:51:48 2018,Mouse
2,1,4,0,71,3,3,1,503,293,210,141,0,500,200,8000,"[(512, 384), (512, 384), (512, 384), (512, 384), (512, 384), (512, 384), (512, 384), (512, 384), (512, 384), (512, 384), (512, 384), (512, 384), (512, 384), (512, 384), (512, 384), (512, 384), (512, 384), (512, 384), (512, 384), (512, 384), (512, 384), (512, 384), (512, 384), (512, 384), (512, 384), (512, 384), (512, 384), (512, 384), (512, 384), (511, 384), (511, 384), (510, 383), (509, 380), (508, 380), (506, 378), (504, 376), (498, 373), (496, 372), (491, 370), (486, 367), (473, 362), (465, 358), (454, 352), (445, 349), (419, 334), (404, 324), (382, 308), (362, 294), (320, 266), (306, 257), (295, 251)]",211.50426671920417,"[9, 7, 6, 5, 2, 3, 1, 8, 4]","(0, 0.25)",CHN007D,CHN,D,Chinese,Tue Oct 23 16:51:48 2018,Mouse
2,1,4,0,72,6,6,1,851,191,660,140,0,500,200,8000,"[(512, 384), (512, 384), (512, 384), (512, 384), (512, 384), (512, 384), (512, 384), (512, 384), (512, 384), (512, 384), (512, 384), (512, 384), (512, 384), (512, 384), (512, 384), (512, 384), (512, 384), (512, 384), (512, 384), (511, 384), (509, 384), (508, 385), (507, 385), (507, 385), (507, 385), (507, 385), (507, 385), (507, 385), (507, 385), (507, 385), (507, 386), (507, 386), (507, 386), (507, 386), (506, 387), (506, 388), (506, 388), (506, 390), (506, 392), (507, 394), (507, 395), (507, 397), (507, 401), (507, 403), (507, 405), (507, 406), (507, 410), (507, 412), (507, 413), (507, 414), (506, 415), (506, 417), (505, 420), (503, 424), (502, 430), (499, 436), (496, 440), (494, 442), (489, 447), (487, 449), (485, 450), (484, 451), (483, 453), (483, 453), (483, 453), (482, 454), (482, 455), (481, 456), (481, 458), (479, 461), (474, 471), (472, 477), (468, 488), (464, 501), (455, 524), (450, 536), (446, 544), (442, 553), (440, 567), (440, 574), (440, 580), (440, 588), (441, 602), (443, 609), (446, 618), (447, 626)]",105.03452001198943,"[9, 7, 6, 5, 2, 3, 1, 8, 4]","(0, 0.25)",CHN007D,CHN,D,Chinese,Tue Oct 23 16:51:48 2018,Mouse
2,1,4,0,73,3,3,1,641,241,400,139,0,500,200,8000,"[(512, 384), (512, 384), (512, 384), (512, 384), (512, 384), (512, 384), (512, 384), (512, 384), (512, 384), (512, 384), (512, 384), (512, 384), (512, 384), (512, 384), (512, 384), (512, 384), (512, 384), (512, 384), (512, 384), (512, 384), (512, 384), (512, 384), (512, 384), (512, 384), (509, 383), (509, 383), (506, 383), (505, 383), (503, 383), (502, 383), (500, 382), (500, 382), (500, 382), (500, 382), (499, 382), (499, 381), (499, 381), (499, 381), (499, 381), (499, 381), (499, 381), (499, 381), (499, 381), (499, 381), (499, 381), (499, 381), (499, 381), (499, 381), (499, 381), (499, 381), (499, 381), (496, 381), (494, 380), (490, 377), (481, 370), (473, 365), (465, 360), (455, 352), (431, 330), (413, 315), (391, 301), (368, 284), (330, 263), (303, 247), (284, 237)]",212.81136679806812,"[9, 7, 6, 5, 2, 3, 1, 8, 4]","(0, 0.25)",CHN007D,CHN,D,Chinese,Tue Oct 23 16:51:48 2018,Mouse
2,1,4,0,74,1,1,1,502,292,210,138,0,500,200,8000,"[(512, 384), (512, 384), (512, 384), (512, 384), (512, 384), (512, 384), (512, 384), (512, 384), (512, 384), (512, 384), (512, 384), (512, 384), (512, 384), (512, 384), (512, 384), (512, 384), (512, 384), (512, 384), (512, 384), (512, 384), (512, 384), (512, 384), (512, 384), (512, 384), (512, 384), (512, 384), (512, 384), (512, 384), (512, 384), (512, 382), (512, 375), (512, 372), (511, 367), (510, 363), (506, 351), (503, 345), (500, 337), (498, 327), (491, 306), (488, 288), (484, 269), (482, 248), (476, 212), (475, 197), (472, 184), (470, 175), (469, 161), (468, 155), (468, 147), (467, 139), (464, 121)]",259.6568157788337,"[9, 7, 6, 5, 2, 3, 1, 8, 4]","(0, 0.25)",CHN007D,CHN,D,Chinese,Tue Oct 23 16:51:48 2018,Mouse
2,1,4,0,75,4,4,1,450,160,290,137,0,500,200,8000,"[(512, 384), (512, 384), (512, 384), (512, 384), (512, 384), (512, 384), (512, 384), (512, 384), (512, 384), (512, 384), (512, 384), (512, 384), (512, 384), (512, 384), (512, 384), (513, 384), (513, 385), (515, 386), (515, 387), (516, 388), (516, 388), (516, 388), (517, 388), (521, 388), (522, 388), (524, 388), (526, 388), (535, 381), (540, 376), (545, 371), (549, 367), (555, 363), (558, 359), (561, 358), (562, 357), (566, 355), (566, 354), (568, 354), (571, 351), (587, 341), (605, 331), (622, 318), (645, 300), (707, 268), (746, 257)]",331.50976511459885,"[9, 7, 6, 5, 2, 3, 1, 8, 4]","(0, 0.25)",CHN007D,CHN,D,Chinese,Tue Oct 23 16:51:48 2018,Mouse
2,1,4,0,76,8,2,0,-955,315,640,136,0,500,200,8000,"[(512, 384), (512, 384), (512, 384), (512, 384), (512, 384), (512, 384), (512, 384), (512, 384), (512, 384), (512, 384), (512, 384), (512, 384), (512, 384), (512, 384), (512, 384), (512, 384), (512, 384), (512, 384), (512, 384), (512, 384), (512, 384), (512, 384), (512, 384), (512, 384), (512, 384), (512, 384), (512, 384), (512, 384), (512, 384), (512, 384), (512, 384), (512, 386), (512, 386), (511, 390), (510, 391), (508, 393), (508, 393), (506, 395), (506, 395), (506, 395), (506, 395), (506, 395), (505, 395), (504, 396), (497, 396), (478, 396), (465, 396), (453, 396), (439, 396), (411, 396), (397, 396), (386, 396), (379, 397), (365, 401), (358, 402), (349, 403), (344, 403), (337, 403), (335, 403), (334, 403), (334, 403), (334, 403), (334, 403), (334, 403), (334, 403), (334, 403), (334, 403), (334, 403), (334, 403), (334, 403), (334, 403), (334, 403), (334, 403), (334, 403), (334, 403), (334, 403), (334, 403), (334, 403), (334, 403), (334, 403), (334, 403), (334, 403), (334, 403), (334, 403), (334, 403), (334, 403), (334, 403), (333, 403), (331, 403), (326, 402), (322, 401), (316, 400), (306, 397), (281, 391), (264, 389), (237, 384)]",180.0,"[9, 7, 6, 5, 2, 3, 1, 8, 4]","(0, 0.25)",CHN007D,CHN,D,Chinese,Tue Oct 23 16:51:48 2018,Mouse
2,1,4,0,77,3,5,0,-703,123,580,137,0,500,200,8000,"[(512, 384), (512, 384), (512, 384), (512, 384), (512, 384), (512, 384), (512, 384), (512, 384), (512, 384), (512, 384), (512, 384), (512, 384), (513, 384), (513, 384), (513, 384), (513, 384), (513, 384), (513, 384), (513, 384), (513, 384), (513, 384), (513, 384), (513, 384), (513, 384), (513, 384), (513, 384), (513, 384), (513, 384), (513, 384), (513, 384), (513, 384), (513, 384), (513, 384), (513, 384), (513, 384), (513, 384), (513, 384), (513, 384), (513, 384), (513, 384), (515, 384), (516, 384), (517, 386), (517, 387), (518, 388), (519, 390), (520, 392), (520, 394), (520, 396), (520, 397), (520, 402), (520, 405), (520, 408), (520, 411), (516, 421), (513, 425), (510, 428), (506, 432), (499, 438), (495, 441), (490, 446), (483, 453), (466, 466), (457, 474), (447, 483), (434, 488), (409, 504), (391, 512), (375, 522), (354, 531), (309, 554)]",140.05589973010373,"[9, 7, 6, 5, 2, 3, 1, 8, 4]","(0, 0.25)",CHN007D,CHN,D,Chinese,Tue Oct 23 16:51:48 2018,Mouse
2,1,4,0,78,5,5,1,332,52,280,138,0,500,200,8000,"[(512, 384), (512, 384), (512, 384), (512, 384), (512, 384), (515, 384), (518, 382), (519, 381), (522, 378), (524, 377), (525, 375), (526, 375), (527, 374), (527, 374), (527, 374), (527, 374), (527, 374), (527, 374), (527, 374), (527, 374), (527, 373), (527, 373), (525, 373), (522, 374), (518, 375), (513, 378), (508, 380), (499, 385), (476, 403), (458, 417), (430, 437), (389, 464), (304, 514), (263, 535)]",148.76630068546626,"[9, 7, 6, 5, 2, 3, 1, 8, 4]","(0, 0.25)",CHN007D,CHN,D,Chinese,Tue Oct 23 16:51:48 2018,Mouse
2,1,4,0,79,6,7,0,-601,111,490,138,0,500,200,8000,"[(512, 384), (512, 384), (512, 384), (512, 384), (512, 384), (512, 384), (512, 384), (512, 384), (512, 384), (512, 384), (512, 384), (514, 384), (516, 383), (517, 382), (518, 381), (519, 381), (521, 380), (523, 379), (524, 379), (526, 378), (528, 377), (529, 377), (529, 377), (531, 376), (532, 375), (532, 375), (532, 375), (532, 375), (532, 375), (532, 375), (532, 375), (532, 375), (532, 375), (532, 375), (532, 375), (532, 375), (533, 375), (534, 375), (535, 376), (536, 378), (539, 382), (540, 385), (545, 388), (548, 392), (560, 406), (569, 414), (573, 417), (577, 421), (581, 432), (584, 438), (586, 444), (591, 452), (597, 470), (600, 481), (603, 492), (607, 503), (619, 530), (629, 549), (639, 568), (649, 587), (673, 618)]",55.47069885204098,"[9, 7, 6, 5, 2, 3, 1, 8, 4]","(0, 0.25)",CHN007D,CHN,D,Chinese,Tue Oct 23 16:51:48 2018,Mouse
2,1,4,0,80,6,7,0,-562,282,280,139,0,500,200,8000,"[(512, 384), (512, 384), (512, 384), (512, 384), (512, 384), (512, 384), (512, 384), (512, 384), (512, 384), (512, 384), (512, 384), (512, 384), (512, 384), (512, 384), (512, 384), (512, 384), (512, 384), (512, 384), (512, 384), (512, 384), (512, 384), (512, 384), (512, 384), (512, 384), (512, 384), (512, 384), (512, 384), (512, 384), (511, 384), (511, 384), (511, 384), (511, 384), (511, 384), (511, 384), (511, 384), (511, 384), (511, 384), (511, 384), (511, 384), (511, 384), (511, 384), (511, 384), (511, 384), (511, 384), (512, 384), (512, 384), (512, 384), (514, 384), (517, 390), (520, 396), (524, 406), (532, 419), (551, 452), (562, 471), (575, 493), (593, 528), (626, 613)]",63.53511616757333,"[9, 7, 6, 5, 2, 3, 1, 8, 4]","(0, 0.25)",CHN007D,CHN,D,Chinese,Tue Oct 23 16:51:48 2018,Mouse
2,1,4,0,81,9,9,1,192,72,120,140,0,500,200,8000,"[(512, 384), (512, 384), (512, 384), (512, 384), (512, 384), (512, 384), (512, 384), (512, 383), (513, 382), (515, 382), (520, 382), (536, 382), (547, 382), (560, 384), (573, 385), (607, 390), (631, 395), (655, 398), (696, 409), (768, 427)]",9.534894404190942,"[9, 7, 6, 5, 2, 3, 1, 8, 4]","(0, 0.25)",CHN007D,CHN,D,Chinese,Tue Oct 23 16:51:48 2018,Mouse
2,1,4,0,82,5,5,1,602,122,480,140,0,500,200,8000,"[(512, 384), (512, 384), (512, 384), (512, 384), (512, 384), (512, 384), (512, 384), (512, 384), (512, 384), (512, 384), (512, 384), (512, 384), (512, 387), (511, 388), (510, 390), (508, 391), (505, 395), (505, 395), (504, 395), (503, 397), (502, 398), (501, 399), (499, 400), (499, 401), (496, 403), (495, 404), (495, 405), (493, 407), (489, 413), (485, 416), (481, 420), (479, 422), (472, 425), (471, 426), (469, 426), (467, 427), (466, 428), (465, 428), (464, 428), (462, 429), (459, 429), (458, 430), (455, 430), (452, 430), (446, 431), (442, 432), (438, 433), (434, 434), (425, 438), (416, 442), (409, 444), (403, 448), (384, 458), (379, 462), (371, 469), (364, 473), (349, 485), (340, 492), (330, 502), (321, 509), (297, 528)]",146.18711212728275,"[9, 7, 6, 5, 2, 3, 1, 8, 4]","(0, 0.25)",CHN007D,CHN,D,Chinese,Tue Oct 23 16:51:48 2018,Mouse
2,1,4,0,83,2,2,1,383,303,80,139,0,500,200,8000,"[(512, 384), (512, 384), (512, 384), (512, 384), (512, 384), (512, 384), (512, 384), (512, 384), (512, 384), (512, 384), (512, 384), (512, 384), (512, 384), (512, 384), (512, 384), (512, 384), (512, 384), (512, 384), (512, 384), (512, 384), (512, 384), (512, 384), (512, 384), (512, 384), (512, 384), (512, 384), (512, 384), (512, 384), (512, 384), (512, 384), (508, 384), (496, 380), (449, 364), (427, 358), (398, 355), (371, 351), (315, 343), (289, 340), (251, 333)]",191.05641298024818,"[9, 7, 6, 5, 2, 3, 1, 8, 4]","(0, 0.25)",CHN007D,CHN,D,Chinese,Tue Oct 23 16:51:48 2018,Mouse
2,1,4,0,84,2,2,1,302,142,160,138,0,500,200,8000,"[(512, 384), (512, 384), (512, 384), (512, 384), (512, 384), (512, 384), (512, 384), (512, 384), (512, 384), (512, 384), (512, 384), (512, 384), (512, 384), (512, 384), (511, 384), (511, 384), (510, 384), (509, 384), (508, 384), (507, 385), (507, 385), (504, 385), (495, 387), (485, 389), (474, 390), (462, 390), (427, 390), (400, 390), (361, 390), (314, 390), (223, 386)]",179.6034957448669,"[9, 7, 6, 5, 2, 3, 1, 8, 4]","(0, 0.25)",CHN007D,CHN,D,Chinese,Tue Oct 23 16:51:48 2018,Mouse
2,1,4,0,85,5,5,1,347,77,270,137,0,500,200,8000,"[(512, 384), (512, 384), (512, 384), (512, 384), (512, 384), (512, 384), (512, 384), (510, 385), (506, 388), (505, 388), (503, 389), (497, 396), (496, 397), (493, 399), (491, 402), (487, 406), (485, 408), (483, 410), (482, 413), (478, 419), (477, 421), (475, 424), (475, 424), (472, 429), (470, 431), (467, 436), (465, 440), (457, 453), (452, 461), (444, 470), (433, 484), (392, 517), (367, 534), (335, 552), (294, 573)]",139.07561227867737,"[9, 7, 6, 5, 2, 3, 1, 8, 4]","(0, 0.25)",CHN007D,CHN,D,Chinese,Tue Oct 23 16:51:48 2018,Mouse
2,1,4,0,86,1,6,0,-973,53,920,136,0,500,200,8000,"[(512, 384), (512, 384), (512, 384), (512, 384), (512, 384), (512, 385), (512, 385), (511, 385), (511, 385), (510, 386), (510, 386), (509, 386), (509, 386), (509, 386), (509, 386), (509, 386), (509, 386), (509, 386), (508, 386), (508, 386), (508, 386), (508, 386), (508, 386), (508, 386), (507, 387), (507, 387), (507, 387), (507, 387), (507, 387), (507, 387), (507, 387), (507, 387), (507, 387), (507, 387), (507, 387), (507, 387), (507, 387), (507, 387), (507, 388), (507, 388), (507, 389), (507, 389), (507, 390), (507, 390), (506, 391), (506, 392), (506, 392), (506, 392), (506, 393), (506, 394), (506, 394), (506, 394), (506, 394), (506, 395), (506, 395), (506, 396), (506, 397), (506, 400), (507, 401), (507, 401), (508, 404), (508, 405), (508, 406), (508, 407), (508, 408), (508, 409), (508, 409), (508, 411), (508, 411), (508, 413), (508, 413), (508, 413), (508, 413), (508, 413), (508, 413), (508, 413), (508, 413), (508, 413), (508, 414), (508, 414), (508, 416), (508, 417), (508, 419), (507, 421), (506, 423), (503, 432), (501, 438), (499, 448), (496, 458), (489, 476), (487, 487), (484, 498), (481, 512), (479, 544), (474, 569), (470, 593), (467, 617), (453, 667)]",101.77637356291282,"[9, 7, 6, 5, 2, 3, 1, 8, 4]","(0, 0.25)",CHN007D,CHN,D,Chinese,Tue Oct 23 16:51:48 2018,Mouse
2,1,4,0,87,1,7,0,-560,40,520,137,0,500,200,8000,"[(512, 384), (512, 384), (512, 384), (512, 383), (512, 383), (512, 383), (514, 381), (514, 381), (514, 381), (514, 381), (514, 381), (514, 381), (514, 381), (514, 381), (514, 381), (514, 381), (514, 381), (514, 381), (514, 381), (514, 381), (514, 381), (515, 381), (515, 381), (515, 382), (515, 382), (515, 384), (516, 386), (519, 387), (521, 390), (526, 394), (544, 405), (555, 412), (566, 418), (574, 423), (585, 430), (586, 430), (587, 431), (587, 431), (587, 431), (587, 431), (587, 431), (587, 431), (587, 432), (587, 432), (587, 432), (587, 434), (587, 434), (587, 434), (587, 435), (587, 436), (587, 440), (587, 447), (587, 460), (587, 479), (608, 572), (620, 627)]",66.03751102542182,"[9, 7, 6, 5, 2, 3, 1, 8, 4]","(0, 0.25)",CHN007D,CHN,D,Chinese,Tue Oct 23 16:51:48 2018,Mouse
2,1,4,0,88,2,2,1,317,117,200,138,0,500,200,8000,"[(512, 384), (512, 384), (512, 384), (512, 384), (512, 384), (512, 384), (512, 384), (512, 384), (512, 384), (512, 384), (512, 384), (511, 384), (509, 384), (508, 384), (502, 384), (501, 384), (499, 385), (497, 385), (494, 385), (490, 385), (485, 385), (477, 385), (461, 385), (451, 385), (442, 385), (431, 385), (405, 385), (390, 383), (369, 382), (342, 377), (267, 365), (224, 361)]",184.56601403120234,"[9, 7, 6, 5, 2, 3, 1, 8, 4]","(0, 0.25)",CHN007D,CHN,D,Chinese,Tue Oct 23 16:51:48 2018,Mouse
2,1,4,0,89,8,8,1,988,828,160,138,0,500,200,8000,"[(512, 384), (512, 384), (512, 384), (512, 384), (512, 384), (512, 384), (512, 384), (512, 384), (512, 384), (512, 384), (512, 384), (512, 384), (512, 384), (512, 384), (512, 384), (512, 384), (512, 384), (512, 384), (512, 384), (512, 384), (512, 384), (512, 384), (512, 384), (512, 384), (512, 384), (512, 384), (512, 384), (512, 384), (512, 384), (512, 384), (512, 384), (512, 384), (512, 384), (512, 384), (512, 384), (512, 384), (512, 384), (512, 384), (512, 384), (512, 384), (512, 384), (512, 384), (512, 384), (512, 384), (512, 384), (512, 384), (512, 384), (512, 384), (512, 384), (512, 384), (512, 384), (512, 384), (512, 384), (512, 384), (512, 384), (512, 384), (512, 384), (512, 384), (512, 384), (512, 384), (512, 384), (512, 384), (512, 384), (512, 384), (512, 384), (512, 384), (512, 384), (512, 384), (512, 384), (512, 384), (512, 384), (512, 384), (512, 384), (512, 384), (512, 384), (512, 384), (512, 384), (512, 384), (512, 384), (512, 384), (512, 384), (512, 384), (512, 385), (513, 384), (513, 384), (514, 383), (515, 382), (517, 379), (518, 378), (519, 376), (527, 367), (532, 360), (539, 353), (548, 341), (573, 305), (590, 279), (605, 252), (619, 220), (646, 167)]",301.69580802710686,"[9, 7, 6, 5, 2, 3, 1, 8, 4]","(0, 0.25)",CHN007D,CHN,D,Chinese,Tue Oct 23 16:51:48 2018,Mouse
2,1,4,0,90,5,5,1,582,232,350,137,0,500,200,8000,"[(512, 384), (512, 384), (512, 384), (512, 384), (512, 384), (512, 384), (512, 384), (512, 384), (512, 384), (512, 384), (512, 384), (512, 384), (512, 384), (512, 384), (512, 384), (512, 384), (512, 384), (512, 384), (512, 384), (512, 384), (512, 384), (512, 384), (512, 384), (510, 384), (509, 384), (509, 384), (507, 384), (506, 384), (502, 383), (502, 383), (499, 383), (498, 383), (494, 381), (493, 381), (493, 381), (492, 381), (492, 381), (492, 381), (492, 381), (492, 381), (492, 381), (492, 381), (492, 381), (492, 381), (490, 381), (489, 381), (488, 381), (486, 382), (480, 388), (477, 391), (471, 395), (462, 401), (437, 415), (423, 424), (402, 434), (380, 450), (333, 489), (319, 504), (303, 529)]",145.2478641111103,"[9, 7, 6, 5, 2, 3, 1, 8, 4]","(0, 0.25)",CHN007D,CHN,D,Chinese,Tue Oct 23 16:51:48 2018,Mouse
2,1,4,0,91,7,7,1,1162,1022,140,136,0,500,200,8000,"[(512, 384), (512, 384), (512, 384), (512, 384), (512, 384), (512, 384), (512, 384), (512, 384), (512, 384), (512, 384), (512, 384), (512, 384), (512, 384), (512, 384), (512, 384), (512, 384), (512, 384), (512, 384), (512, 384), (512, 384), (512, 384), (512, 384), (512, 384), (512, 384), (512, 384), (512, 384), (512, 384), (512, 384), (512, 384), (512, 384), (512, 384), (512, 384), (512, 384), (512, 384), (512, 384), (512, 384), (512, 384), (512, 384), (512, 384), (512, 384), (512, 384), (512, 384), (512, 384), (512, 384), (512, 384), (512, 384), (512, 384), (512, 384), (512, 384), (512, 384), (512, 384), (512, 384), (512, 384), (512, 384), (512, 384), (512, 384), (512, 384), (512, 384), (512, 384), (512, 384), (512, 384), (512, 384), (512, 384), (512, 384), (512, 384), (512, 384), (512, 384), (512, 384), (512, 384), (512, 384), (512, 384), (512, 384), (512, 384), (512, 384), (512, 384), (512, 384), (512, 384), (512, 384), (512, 384), (512, 384), (512, 384), (512, 384), (512, 384), (512, 384), (512, 384), (512, 384), (512, 384), (512, 384), (512, 384), (512, 384), (512, 384), (512, 384), (512, 384), (512, 384), (512, 384), (512, 384), (512, 384), (512, 384), (512, 384), (512, 384), (512, 384), (512, 384), (513, 384), (517, 388), (521, 393), (526, 398), (552, 422), (575, 439), (593, 453), (609, 469), (625, 490), (634, 500), (643, 510), (654, 524), (672, 547), (679, 558), (687, 569)]",46.59114027119459,"[9, 7, 6, 5, 2, 3, 1, 8, 4]","(0, 0.25)",CHN007D,CHN,D,Chinese,Tue Oct 23 16:51:48 2018,Mouse
2,1,4,0,92,6,9,0,-680,550,130,135,0,500,200,8000,"[(512, 384), (512, 384), (512, 384), (512, 384), (512, 384), (512, 384), (512, 384), (512, 384), (512, 384), (512, 384), (512, 384), (512, 384), (512, 384), (512, 384), (512, 384), (512, 384), (512, 384), (512, 384), (512, 384), (512, 384), (512, 384), (512, 384), (512, 384), (512, 384), (512, 384), (512, 384), (512, 384), (512, 384), (512, 384), (512, 384), (512, 384), (512, 384), (512, 384), (512, 384), (512, 384), (512, 384), (512, 384), (512, 384), (512, 384), (512, 384), (512, 384), (512, 384), (512, 384), (512, 384), (512, 384), (512, 384), (512, 384), (512, 384), (512, 384), (512, 384), (512, 384), (512, 384), (512, 384), (512, 384), (512, 383), (512, 383), (512, 381), (513, 381), (517, 381), (523, 382), (533, 386), (559, 396), (577, 405), (603, 416), (635, 428), (707, 452), (735, 459), (758, 466)]",18.43494882292201,"[9, 7, 6, 5, 2, 3, 1, 8, 4]","(0, 0.25)",CHN007D,CHN,D,Chinese,Tue Oct 23 16:51:48 2018,Mouse
2,1,4,0,93,1,7,0,-894,564,330,136,0,500,200,8000,"[(512, 384), (512, 384), (512, 384), (512, 384), (512, 384), (512, 384), (512, 384), (512, 384), (512, 384), (512, 384), (512, 384), (512, 384), (512, 384), (512, 384), (512, 384), (512, 384), (512, 384), (512, 384), (512, 384), (512, 384), (512, 384), (512, 384), (512, 384), (512, 384), (512, 384), (512, 384), (512, 384), (512, 384), (512, 384), (512, 384), (512, 384), (512, 384), (512, 384), (512, 384), (512, 384), (512, 384), (512, 384), (512, 384), (512, 384), (512, 384), (512, 384), (512, 384), (512, 384), (512, 384), (512, 384), (512, 384), (512, 384), (512, 384), (512, 384), (512, 384), (512, 384), (512, 384), (512, 384), (512, 384), (512, 384), (512, 384), (515, 388), (527, 404), (531, 411), (534, 417), (536, 419), (539, 427), (542, 431), (545, 435), (547, 441), (556, 450), (559, 454), (563, 458), (565, 460), (567, 462), (569, 464), (569, 464), (570, 465), (574, 471), (575, 474), (578, 479), (579, 482), (579, 488), (581, 491), (583, 495), (584, 500), (589, 512), (592, 519), (594, 529), (597, 540), (603, 560), (609, 573), (611, 582), (614, 594), (621, 616)]",64.83456724246234,"[9, 7, 6, 5, 2, 3, 1, 8, 4]","(0, 0.25)",CHN007D,CHN,D,Chinese,Tue Oct 23 16:51:48 2018,Mouse
2,1,4,0,94,9,9,1,362,302,60,137,0,500,200,8000,"[(512, 384), (512, 384), (512, 384), (512, 384), (512, 384), (512, 384), (512, 384), (512, 384), (512, 384), (512, 384), (512, 384), (512, 384), (512, 384), (512, 384), (512, 384), (512, 384), (512, 384), (512, 384), (512, 384), (512, 384), (512, 384), (512, 384), (512, 384), (512, 384), (512, 384), (512, 384), (512, 384), (512, 384), (512, 384), (512, 384), (519, 390), (531, 397), (575, 416), (604, 428), (635, 442), (686, 463), (779, 500)]",23.482870352549845,"[9, 7, 6, 5, 2, 3, 1, 8, 4]","(0, 0.25)",CHN007D,CHN,D,Chinese,Tue Oct 23 16:51:48 2018,Mouse
2,1,4,0,95,3,3,1,1023,883,140,137,0,500,200,8000,"[(512, 384), (512, 384), (512, 384), (512, 384), (512, 384), (512, 384), (512, 384), (512, 384), (512, 384), (512, 384), (512, 384), (512, 384), (512, 384), (512, 384), (512, 384), (512, 384), (512, 384), (512, 384), (512, 384), (512, 384), (512, 384), (512, 384), (512, 384), (512, 384), (512, 384), (512, 384), (512, 384), (512, 384), (512, 384), (512, 384), (512, 384), (512, 384), (512, 384), (512, 384), (512, 384), (512, 384), (512, 384), (512, 384), (512, 384), (512, 384), (512, 384), (512, 384), (512, 384), (512, 384), (512, 384), (512, 384), (512, 384), (512, 384), (512, 384), (512, 384), (512, 384), (512, 384), (512, 384), (512, 384), (512, 384), (512, 384), (512, 384), (512, 384), (512, 384), (512, 384), (512, 384), (512, 384), (512, 384), (512, 384), (512, 384), (512, 384), (512, 384), (512, 384), (512, 384), (512, 384), (512, 384), (512, 384), (512, 384), (512, 384), (512, 384), (512, 384), (512, 384), (512, 384), (512, 384), (512, 384), (512, 384), (512, 384), (512, 384), (512, 384), (512, 384), (512, 384), (512, 384), (512, 384), (508, 380), (507, 379), (505, 376), (503, 374), (493, 367), (488, 363), (483, 358), (477, 354), (459, 339), (447, 330), (435, 318), (411, 298), (369, 256), (345, 234), (323, 210)]",222.6337520085442,"[9, 7, 6, 5, 2, 3, 1, 8, 4]","(0, 0.25)",CHN007D,CHN,D,Chinese,Tue Oct 23 16:51:48 2018,Mouse
