NativeLangNumber,LanuageNumber,SessionNumber,Block,TrialNum,ConditionNumber,Response,Accuracy,RT,MovementOnsetTime,TimeInMotion,SignalContrast,SignalContrastNumber,StimDisplayTime,MaskTime,MaxResponseTime,MousePositionXY,MouseAngle,WheelOrder,NoiseMuSigma,ParticipantID,LanuageTested,SessionTested,NativeLanuage,Date,ResponseDevice
2,1,1,0,1,1,1,1,470,400,70,153,0,500,200,8000,"[(512, 384), (512, 384), (512, 384), (512, 384), (512, 384), (512, 384), (512, 384), (512, 384), (512, 384), (512, 384), (512, 384), (512, 384), (512, 384), (512, 384), (512, 384), (512, 384), (512, 384), (512, 384), (512, 384), (512, 384), (512, 384), (512, 384), (512, 384), (512, 384), (512, 384), (512, 384), (512, 384), (512, 384), (512, 384), (512, 384), (512, 384), (512, 384), (512, 384), (512, 384), (512, 384), (512, 384), (512, 384), (512, 384), (512, 384), (526, 384), (546, 381), (583, 377), (607, 373), (649, 367), (679, 360), (717, 351), (761, 342)]",350.42577211490817,"[7, 8, 3, 9, 6, 2, 5, 4, 1]","(0, 0.25)",CHN006A,CHN,A,Chinese,Mon Oct  8 18:03:45 2018,Mouse
2,1,1,0,2,3,3,1,652,242,410,153,0,500,200,8000,"[(512, 384), (512, 384), (512, 384), (512, 384), (512, 384), (512, 384), (512, 384), (512, 384), (512, 384), (512, 384), (512, 384), (512, 384), (512, 384), (512, 384), (512, 384), (512, 384), (512, 384), (512, 384), (512, 384), (512, 384), (512, 384), (512, 384), (512, 384), (512, 384), (511, 385), (512, 386), (512, 386), (512, 386), (513, 386), (513, 384), (513, 384), (513, 384), (513, 384), (513, 384), (513, 384), (513, 384), (513, 384), (513, 384), (513, 384), (513, 384), (513, 384), (513, 384), (513, 384), (513, 384), (513, 384), (513, 384), (513, 384), (513, 384), (513, 384), (513, 384), (513, 384), (513, 384), (513, 384), (513, 384), (514, 384), (514, 384), (513, 385), (511, 407), (506, 420), (502, 426), (501, 434), (491, 475), (482, 506), (469, 550), (456, 587), (440, 655)]",104.8787677286669,"[7, 8, 3, 9, 6, 2, 5, 4, 1]","(0, 0.25)",CHN006A,CHN,A,Chinese,Mon Oct  8 18:03:45 2018,Mouse
2,1,1,0,3,1,1,1,451,11,440,152,0,500,200,8000,"[(512, 384), (513, 383), (513, 383), (513, 382), (513, 381), (513, 381), (513, 381), (513, 381), (513, 381), (513, 381), (513, 381), (513, 381), (513, 381), (513, 381), (513, 381), (513, 381), (513, 381), (513, 381), (513, 381), (513, 381), (513, 381), (513, 381), (513, 381), (513, 381), (513, 381), (513, 381), (513, 381), (513, 381), (513, 381), (513, 381), (513, 381), (513, 381), (513, 381), (513, 381), (513, 381), (513, 381), (517, 376), (527, 372), (532, 371), (539, 368), (552, 366), (599, 346), (639, 330), (673, 316), (711, 299), (821, 253)]",337.02557023432337,"[7, 8, 3, 9, 6, 2, 5, 4, 1]","(0, 0.25)",CHN006A,CHN,A,Chinese,Mon Oct  8 18:03:45 2018,Mouse
2,1,1,0,4,6,6,1,614,524,90,151,0,500,200,8000,"[(512, 384), (512, 384), (512, 384), (512, 384), (512, 384), (512, 384), (512, 384), (512, 384), (512, 384), (512, 384), (512, 384), (512, 384), (512, 384), (512, 384), (512, 384), (512, 384), (512, 384), (512, 384), (512, 384), (512, 384), (512, 384), (512, 384), (512, 384), (512, 384), (512, 384), (512, 384), (512, 384), (512, 384), (512, 384), (512, 384), (512, 384), (512, 384), (512, 384), (512, 384), (512, 384), (512, 384), (512, 384), (512, 384), (512, 384), (512, 384), (512, 384), (512, 384), (512, 384), (512, 384), (512, 384), (512, 384), (512, 384), (512, 384), (512, 384), (512, 384), (512, 384), (512, 384), (509, 384), (498, 386), (492, 386), (476, 389), (458, 392), (438, 394), (412, 394), (321, 396), (276, 396), (229, 396)]",177.57195149489084,"[7, 8, 3, 9, 6, 2, 5, 4, 1]","(0, 0.25)",CHN006A,CHN,A,Chinese,Mon Oct  8 18:03:45 2018,Mouse
2,1,1,0,5,9,9,1,463,163,300,150,0,500,200,8000,"[(512, 384), (512, 384), (512, 384), (512, 384), (512, 384), (512, 384), (512, 384), (512, 384), (512, 384), (512, 384), (512, 384), (512, 384), (512, 384), (512, 384), (512, 384), (512, 384), (512, 382), (512, 379), (512, 379), (512, 379), (512, 379), (512, 379), (512, 379), (512, 379), (512, 379), (512, 379), (512, 379), (512, 379), (512, 379), (512, 379), (512, 379), (512, 379), (512, 379), (512, 379), (514, 382), (513, 381), (512, 381), (511, 381), (492, 389), (477, 398), (465, 403), (450, 412), (423, 430), (403, 443), (372, 467), (333, 490), (261, 537)]",148.6351127090173,"[7, 8, 3, 9, 6, 2, 5, 4, 1]","(0, 0.25)",CHN006A,CHN,A,Chinese,Mon Oct  8 18:03:45 2018,Mouse
2,1,1,0,6,2,5,0,-642,232,410,149,0,500,200,8000,"[(512, 384), (512, 384), (512, 384), (512, 384), (512, 384), (512, 384), (512, 384), (512, 384), (512, 384), (512, 384), (512, 384), (512, 384), (512, 384), (512, 384), (512, 384), (512, 384), (512, 384), (512, 384), (512, 384), (512, 384), (512, 384), (512, 384), (512, 384), (513, 384), (513, 382), (513, 382), (513, 382), (513, 382), (513, 382), (513, 382), (513, 382), (513, 382), (513, 382), (513, 382), (513, 382), (513, 382), (513, 382), (513, 382), (513, 382), (513, 382), (513, 382), (512, 383), (512, 385), (515, 387), (518, 387), (521, 388), (527, 389), (530, 389), (534, 389), (536, 390), (536, 390), (536, 390), (536, 390), (536, 390), (536, 390), (536, 386), (524, 364), (516, 353), (505, 339), (487, 312), (471, 292), (459, 271), (447, 242), (429, 212), (393, 144)]",243.62625288502147,"[7, 8, 3, 9, 6, 2, 5, 4, 1]","(0, 0.25)",CHN006A,CHN,A,Chinese,Mon Oct  8 18:03:45 2018,Mouse
2,1,1,0,7,8,8,1,707,117,590,150,0,500,200,8000,"[(512, 384), (512, 384), (512, 384), (512, 384), (512, 384), (512, 384), (512, 384), (512, 384), (512, 384), (512, 384), (512, 384), (515, 384), (519, 386), (524, 389), (531, 392), (534, 392), (536, 392), (538, 392), (539, 392), (539, 392), (539, 392), (539, 392), (539, 392), (539, 392), (539, 392), (539, 392), (539, 392), (539, 392), (539, 392), (539, 392), (539, 392), (539, 392), (539, 392), (539, 392), (539, 392), (539, 392), (539, 392), (539, 392), (539, 392), (539, 392), (539, 392), (539, 392), (539, 392), (539, 392), (539, 392), (539, 392), (539, 392), (539, 392), (539, 392), (539, 392), (539, 393), (539, 393), (539, 393), (539, 393), (539, 393), (539, 393), (540, 396), (542, 399), (545, 414), (549, 421), (554, 432), (556, 445), (564, 473), (566, 486), (571, 502), (577, 520), (585, 548), (593, 566), (600, 577), (607, 590), (623, 622)]",64.99628705525686,"[7, 8, 3, 9, 6, 2, 5, 4, 1]","(0, 0.25)",CHN006A,CHN,A,Chinese,Mon Oct  8 18:03:45 2018,Mouse
2,1,1,0,8,6,6,1,802,12,790,150,0,500,200,8000,"[(512, 382), (512, 381), (512, 378), (512, 378), (512, 375), (512, 375), (512, 375), (512, 374), (512, 372), (512, 371), (512, 368), (512, 365), (512, 361), (509, 358), (509, 355), (508, 353), (507, 350), (506, 348), (506, 348), (505, 346), (505, 345), (505, 345), (504, 342), (504, 340), (502, 337), (502, 337), (502, 336), (501, 335), (501, 335), (501, 334), (501, 334), (501, 334), (501, 334), (501, 334), (501, 334), (501, 334), (501, 344), (501, 356), (501, 367), (501, 378), (501, 392), (502, 397), (503, 397), (503, 397), (503, 397), (503, 397), (503, 397), (503, 397), (503, 397), (503, 397), (503, 397), (503, 397), (503, 397), (503, 397), (503, 397), (503, 397), (503, 397), (503, 397), (503, 397), (503, 397), (503, 397), (503, 397), (503, 397), (503, 397), (503, 397), (503, 397), (503, 397), (503, 397), (503, 397), (503, 397), (503, 397), (503, 399), (491, 402), (484, 403), (476, 407), (462, 409), (414, 419), (382, 424), (339, 430), (297, 432), (205, 432)]",171.113647707655,"[7, 8, 3, 9, 6, 2, 5, 4, 1]","(0, 0.25)",CHN006A,CHN,A,Chinese,Mon Oct  8 18:03:45 2018,Mouse
2,1,1,0,9,3,3,1,1163,763,400,149,0,500,200,8000,"[(512, 384), (512, 384), (512, 384), (512, 384), (512, 384), (512, 384), (512, 384), (512, 384), (512, 384), (512, 384), (512, 384), (512, 384), (512, 384), (512, 384), (512, 384), (512, 384), (512, 384), (512, 384), (512, 384), (512, 384), (512, 384), (512, 384), (512, 384), (512, 384), (512, 384), (512, 384), (512, 384), (512, 384), (512, 384), (512, 384), (512, 384), (512, 384), (512, 384), (512, 384), (512, 384), (512, 384), (512, 384), (512, 384), (512, 384), (512, 384), (512, 384), (512, 384), (512, 384), (512, 384), (512, 384), (512, 384), (512, 384), (512, 384), (512, 384), (512, 384), (512, 384), (512, 384), (512, 384), (512, 384), (512, 384), (512, 384), (512, 384), (512, 384), (512, 384), (512, 384), (512, 384), (512, 384), (512, 384), (512, 384), (512, 384), (512, 384), (512, 384), (512, 384), (512, 384), (512, 384), (512, 384), (512, 384), (512, 384), (512, 384), (512, 384), (512, 384), (513, 371), (506, 362), (499, 353), (492, 347), (474, 331), (467, 324), (459, 320), (456, 318), (455, 316), (455, 316), (455, 316), (455, 316), (455, 316), (455, 316), (455, 316), (455, 316), (455, 316), (455, 316), (455, 316), (455, 316), (455, 316), (455, 316), (455, 316), (455, 316), (455, 316), (456, 316), (464, 321), (473, 330), (485, 349), (491, 359), (496, 372), (502, 383), (509, 406), (511, 418), (511, 433), (511, 456), (509, 524), (503, 559), (495, 592), (489, 627), (478, 671)]",96.75616449486158,"[7, 8, 3, 9, 6, 2, 5, 4, 1]","(0, 0.25)",CHN006A,CHN,A,Chinese,Mon Oct  8 18:03:45 2018,Mouse
2,1,1,0,10,1,1,1,464,394,70,148,0,500,200,8000,"[(512, 384), (512, 384), (512, 384), (512, 384), (512, 384), (512, 384), (512, 384), (512, 384), (512, 384), (512, 384), (512, 384), (512, 384), (512, 384), (512, 384), (512, 384), (512, 384), (512, 384), (512, 384), (512, 384), (512, 384), (512, 384), (512, 384), (512, 384), (512, 384), (512, 384), (512, 384), (512, 384), (512, 384), (512, 384), (512, 384), (512, 384), (512, 384), (512, 384), (512, 384), (512, 384), (512, 384), (512, 384), (512, 384), (512, 384), (517, 382), (527, 377), (539, 372), (559, 365), (628, 346), (667, 337), (711, 323), (753, 310)]",342.93068938791225,"[7, 8, 3, 9, 6, 2, 5, 4, 1]","(0, 0.25)",CHN006A,CHN,A,Chinese,Mon Oct  8 18:03:45 2018,Mouse
2,1,1,0,11,5,5,1,1029,39,990,147,0,500,200,8000,"[(512, 384), (512, 384), (512, 384), (513, 384), (514, 384), (514, 384), (514, 384), (514, 384), (515, 384), (515, 384), (515, 384), (516, 384), (516, 384), (516, 384), (516, 384), (516, 384), (516, 384), (516, 384), (516, 384), (516, 384), (516, 384), (516, 384), (516, 384), (516, 384), (516, 384), (516, 384), (516, 384), (516, 384), (516, 384), (516, 384), (516, 384), (516, 384), (516, 384), (516, 384), (516, 384), (516, 384), (516, 384), (516, 384), (516, 384), (516, 384), (516, 384), (516, 384), (516, 384), (516, 384), (516, 384), (516, 384), (516, 384), (516, 384), (516, 384), (516, 384), (516, 384), (516, 384), (516, 384), (516, 384), (516, 384), (516, 384), (516, 384), (516, 384), (516, 384), (516, 384), (516, 384), (516, 384), (516, 384), (516, 384), (516, 384), (516, 384), (516, 384), (516, 384), (516, 384), (516, 384), (516, 384), (516, 384), (516, 384), (516, 384), (516, 384), (516, 384), (516, 384), (516, 384), (516, 384), (516, 384), (516, 384), (516, 384), (516, 384), (516, 384), (516, 384), (516, 384), (516, 384), (516, 384), (516, 384), (516, 386), (516, 390), (515, 390), (515, 390), (517, 382), (519, 373), (522, 357), (524, 319), (524, 300), (524, 280), (524, 224), (524, 183), (524, 146), (520, 111)]",271.6785168497271,"[7, 8, 3, 9, 6, 2, 5, 4, 1]","(0, 0.25)",CHN006A,CHN,A,Chinese,Mon Oct  8 18:03:45 2018,Mouse
2,1,1,0,12,9,9,1,703,643,60,146,0,500,200,8000,"[(512, 384), (512, 384), (512, 384), (512, 384), (512, 384), (512, 384), (512, 384), (512, 384), (512, 384), (512, 384), (512, 384), (512, 384), (512, 384), (512, 384), (512, 384), (512, 384), (512, 384), (512, 384), (512, 384), (512, 384), (512, 384), (512, 384), (512, 384), (512, 384), (512, 384), (512, 384), (512, 384), (512, 384), (512, 384), (512, 384), (512, 384), (512, 384), (512, 384), (512, 384), (512, 384), (512, 384), (512, 384), (512, 384), (512, 384), (512, 384), (512, 384), (512, 384), (512, 384), (512, 384), (512, 384), (512, 384), (512, 384), (512, 384), (512, 384), (512, 384), (512, 384), (512, 384), (512, 384), (512, 384), (512, 384), (512, 384), (512, 384), (512, 384), (512, 384), (512, 384), (512, 384), (512, 384), (512, 384), (512, 384), (509, 385), (492, 398), (467, 414), (439, 431), (363, 471), (323, 490), (278, 508)]",152.08023357189137,"[7, 8, 3, 9, 6, 2, 5, 4, 1]","(0, 0.25)",CHN006A,CHN,A,Chinese,Mon Oct  8 18:03:45 2018,Mouse
2,1,1,0,13,8,8,1,884,794,90,145,0,500,200,8000,"[(512, 384), (512, 384), (512, 384), (512, 384), (512, 384), (512, 384), (512, 384), (512, 384), (512, 384), (512, 384), (512, 384), (512, 384), (512, 384), (512, 384), (512, 384), (512, 384), (512, 384), (512, 384), (512, 384), (512, 384), (512, 384), (512, 384), (512, 384), (512, 384), (512, 384), (512, 384), (512, 384), (512, 384), (512, 384), (512, 384), (512, 384), (512, 384), (512, 384), (512, 384), (512, 384), (512, 384), (512, 384), (512, 384), (512, 384), (512, 384), (512, 384), (512, 384), (512, 384), (512, 384), (512, 384), (512, 384), (512, 384), (512, 384), (512, 384), (512, 384), (512, 384), (512, 384), (512, 384), (512, 384), (512, 384), (512, 384), (512, 384), (512, 384), (512, 384), (512, 384), (512, 384), (512, 384), (512, 384), (512, 384), (512, 384), (512, 384), (512, 384), (512, 384), (512, 384), (512, 384), (512, 384), (512, 384), (512, 384), (512, 384), (512, 384), (512, 384), (512, 384), (512, 384), (512, 384), (512, 386), (512, 399), (512, 432), (512, 449), (518, 471), (519, 489), (531, 531), (539, 559), (552, 595), (568, 630)]",77.17560189776485,"[7, 8, 3, 9, 6, 2, 5, 4, 1]","(0, 0.25)",CHN006A,CHN,A,Chinese,Mon Oct  8 18:03:45 2018,Mouse
2,1,1,0,14,9,9,1,484,384,100,144,0,500,200,8000,"[(512, 384), (512, 384), (512, 384), (512, 384), (512, 384), (512, 384), (512, 384), (512, 384), (512, 384), (512, 384), (512, 384), (512, 384), (512, 384), (512, 384), (512, 384), (512, 384), (512, 384), (512, 384), (512, 384), (512, 384), (512, 384), (512, 384), (512, 384), (512, 384), (512, 384), (512, 384), (512, 384), (512, 384), (512, 384), (512, 384), (512, 384), (512, 384), (512, 384), (512, 384), (512, 384), (512, 384), (512, 384), (512, 384), (509, 386), (507, 391), (501, 402), (485, 423), (475, 437), (465, 451), (450, 469), (419, 503), (395, 525), (372, 545), (343, 570)]",132.25835287704,"[7, 8, 3, 9, 6, 2, 5, 4, 1]","(0, 0.25)",CHN006A,CHN,A,Chinese,Mon Oct  8 18:03:45 2018,Mouse
2,1,1,0,15,9,9,1,372,292,80,143,0,500,200,8000,"[(512, 384), (512, 384), (512, 384), (512, 384), (512, 384), (512, 384), (512, 384), (512, 384), (512, 384), (512, 384), (512, 384), (512, 384), (512, 384), (512, 384), (512, 384), (512, 384), (512, 384), (512, 384), (512, 384), (512, 384), (512, 384), (512, 384), (512, 384), (512, 384), (512, 384), (512, 384), (512, 384), (512, 384), (512, 384), (510, 385), (503, 390), (491, 397), (477, 408), (431, 444), (398, 469), (353, 499), (309, 529), (218, 586)]",145.5080221402324,"[7, 8, 3, 9, 6, 2, 5, 4, 1]","(0, 0.25)",CHN006A,CHN,A,Chinese,Mon Oct  8 18:03:45 2018,Mouse
2,1,1,0,16,7,7,1,1162,22,1140,142,0,500,200,8000,"[(512, 384), (512, 384), (514, 384), (515, 384), (518, 382), (518, 382), (518, 382), (518, 382), (518, 382), (518, 382), (518, 382), (518, 382), (518, 382), (518, 382), (518, 382), (518, 382), (518, 382), (518, 382), (518, 382), (518, 382), (518, 382), (518, 382), (518, 382), (518, 382), (518, 382), (518, 382), (518, 382), (518, 382), (518, 382), (518, 382), (518, 382), (518, 382), (518, 382), (518, 382), (518, 382), (518, 382), (518, 382), (518, 382), (518, 382), (518, 382), (518, 382), (518, 382), (518, 382), (518, 382), (518, 382), (518, 382), (518, 382), (518, 382), (518, 382), (519, 382), (520, 382), (520, 382), (520, 382), (520, 382), (520, 382), (520, 382), (520, 382), (520, 382), (520, 382), (520, 382), (520, 382), (520, 382), (520, 384), (520, 384), (519, 385), (519, 385), (519, 385), (519, 385), (519, 385), (519, 385), (519, 385), (519, 385), (519, 385), (519, 385), (519, 385), (519, 385), (519, 385), (519, 385), (519, 385), (519, 385), (519, 387), (519, 388), (519, 388), (519, 390), (518, 400), (516, 407), (515, 417), (514, 424), (511, 441), (511, 445), (510, 450), (510, 455), (510, 469), (510, 476), (510, 484), (510, 490), (512, 498), (514, 499), (515, 500), (515, 502), (515, 502), (515, 502), (517, 502), (519, 502), (524, 500), (528, 497), (533, 494), (544, 491), (553, 488), (565, 487), (582, 486), (603, 485), (650, 479), (677, 474), (706, 471), (725, 467), (755, 463)]",18.009492933665104,"[7, 8, 3, 9, 6, 2, 5, 4, 1]","(0, 0.25)",CHN006A,CHN,A,Chinese,Mon Oct  8 18:03:45 2018,Mouse
2,1,1,0,17,2,2,1,687,347,340,141,0,500,200,8000,"[(512, 384), (512, 384), (512, 384), (512, 384), (512, 384), (512, 384), (512, 384), (512, 384), (512, 384), (512, 384), (512, 384), (512, 384), (512, 384), (512, 384), (512, 384), (512, 384), (512, 384), (512, 384), (512, 384), (512, 384), (512, 384), (512, 384), (512, 384), (512, 384), (512, 384), (512, 384), (512, 384), (512, 384), (512, 384), (512, 384), (512, 384), (512, 384), (512, 384), (512, 384), (511, 383), (510, 383), (510, 383), (510, 383), (510, 383), (510, 383), (510, 383), (510, 383), (510, 383), (510, 383), (510, 383), (510, 383), (510, 383), (510, 383), (510, 383), (510, 383), (510, 383), (510, 383), (510, 383), (510, 383), (510, 383), (510, 383), (510, 383), (510, 383), (510, 383), (508, 381), (504, 376), (492, 367), (474, 344), (458, 323), (442, 301), (418, 270), (382, 224), (362, 200), (341, 183)]",229.6106493186606,"[7, 8, 3, 9, 6, 2, 5, 4, 1]","(0, 0.25)",CHN006A,CHN,A,Chinese,Mon Oct  8 18:03:45 2018,Mouse
2,1,1,0,18,9,9,1,592,332,260,140,0,500,200,8000,"[(512, 384), (512, 384), (512, 384), (512, 384), (512, 384), (512, 384), (512, 384), (512, 384), (512, 384), (512, 384), (512, 384), (512, 384), (512, 384), (512, 384), (512, 384), (512, 384), (512, 384), (512, 384), (512, 384), (512, 384), (512, 384), (512, 384), (512, 384), (512, 384), (512, 384), (512, 384), (512, 384), (512, 384), (512, 384), (512, 384), (512, 384), (512, 384), (512, 384), (512, 386), (512, 386), (512, 386), (512, 387), (511, 390), (506, 395), (504, 397), (503, 398), (503, 398), (503, 398), (503, 398), (502, 399), (502, 399), (502, 399), (502, 399), (502, 399), (502, 399), (502, 399), (500, 401), (497, 403), (488, 408), (455, 435), (430, 455), (409, 471), (383, 494), (324, 537), (299, 555)]",141.24191434741505,"[7, 8, 3, 9, 6, 2, 5, 4, 1]","(0, 0.25)",CHN006A,CHN,A,Chinese,Mon Oct  8 18:03:45 2018,Mouse
2,1,1,0,19,1,1,1,440,40,400,139,0,500,200,8000,"[(512, 384), (512, 384), (512, 384), (513, 383), (515, 382), (515, 382), (517, 382), (517, 382), (517, 382), (517, 382), (517, 382), (517, 382), (517, 382), (517, 382), (517, 382), (517, 382), (517, 382), (517, 382), (517, 382), (517, 382), (517, 382), (517, 382), (517, 382), (517, 382), (517, 382), (517, 382), (517, 382), (517, 382), (517, 382), (517, 382), (518, 381), (521, 378), (527, 376), (531, 375), (548, 369), (553, 366), (565, 360), (577, 354), (609, 340), (638, 328), (649, 325), (668, 318), (722, 299), (753, 288)]",338.28061734309534,"[7, 8, 3, 9, 6, 2, 5, 4, 1]","(0, 0.25)",CHN006A,CHN,A,Chinese,Mon Oct  8 18:03:45 2018,Mouse
2,1,1,0,20,6,1,0,-442,142,300,138,0,500,200,8000,"[(512, 384), (512, 384), (512, 384), (512, 384), (512, 384), (512, 384), (512, 384), (512, 384), (512, 384), (512, 384), (512, 384), (512, 384), (512, 384), (512, 384), (511, 384), (511, 384), (511, 384), (511, 384), (511, 384), (511, 384), (511, 384), (511, 384), (511, 384), (511, 384), (511, 384), (511, 384), (511, 384), (511, 384), (511, 384), (511, 384), (511, 384), (515, 384), (516, 383), (516, 383), (516, 383), (517, 383), (520, 382), (523, 380), (527, 379), (540, 374), (561, 367), (588, 359), (632, 349), (729, 323), (781, 311)]",344.8169967774419,"[7, 8, 3, 9, 6, 2, 5, 4, 1]","(0, 0.25)",CHN006A,CHN,A,Chinese,Mon Oct  8 18:03:45 2018,Mouse
2,1,1,0,21,2,2,1,913,13,900,139,0,500,200,8000,"[(512, 384), (512, 383), (512, 381), (512, 378), (512, 376), (512, 375), (512, 371), (512, 369), (512, 368), (512, 365), (512, 365), (512, 361), (512, 361), (512, 359), (512, 358), (512, 356), (512, 355), (512, 355), (513, 355), (513, 354), (513, 354), (513, 354), (513, 354), (513, 353), (513, 353), (513, 353), (513, 353), (513, 353), (513, 353), (513, 353), (513, 353), (513, 353), (513, 353), (513, 353), (513, 353), (513, 353), (513, 353), (513, 353), (513, 353), (513, 353), (513, 353), (513, 353), (513, 353), (512, 352), (511, 352), (510, 352), (510, 352), (510, 352), (510, 352), (510, 352), (510, 352), (510, 352), (510, 352), (510, 351), (510, 351), (510, 351), (510, 351), (510, 351), (510, 351), (510, 351), (510, 357), (510, 376), (516, 395), (534, 467), (539, 505), (542, 528), (542, 545), (543, 579), (543, 590), (543, 601), (540, 610), (534, 624), (530, 628), (529, 629), (527, 629), (526, 629), (525, 629), (524, 629), (522, 625), (514, 605), (512, 595), (506, 581), (497, 563), (474, 520), (461, 493), (441, 463), (422, 425), (377, 363), (347, 324), (324, 295), (295, 268), (254, 225)]",211.64465903709257,"[7, 8, 3, 9, 6, 2, 5, 4, 1]","(0, 0.25)",CHN006A,CHN,A,Chinese,Mon Oct  8 18:03:45 2018,Mouse
2,1,1,0,22,8,8,1,682,22,660,139,0,500,200,8000,"[(512, 384), (512, 384), (513, 384), (515, 384), (515, 384), (515, 384), (515, 384), (515, 384), (515, 384), (515, 384), (517, 384), (517, 384), (518, 384), (518, 384), (518, 384), (518, 384), (518, 384), (518, 384), (518, 384), (518, 384), (518, 384), (518, 384), (518, 384), (518, 384), (518, 384), (518, 384), (518, 384), (518, 384), (518, 384), (518, 384), (518, 384), (518, 384), (518, 384), (518, 384), (518, 384), (518, 384), (518, 384), (518, 384), (518, 384), (518, 384), (518, 384), (518, 384), (518, 384), (518, 384), (518, 384), (518, 384), (518, 384), (518, 384), (518, 384), (519, 385), (519, 385), (519, 385), (519, 385), (519, 385), (519, 387), (521, 395), (523, 401), (525, 409), (528, 418), (534, 439), (540, 450), (545, 463), (552, 479), (569, 507), (581, 524), (592, 541), (603, 558), (623, 588), (633, 605)]",61.298796381537315,"[7, 8, 3, 9, 6, 2, 5, 4, 1]","(0, 0.25)",CHN006A,CHN,A,Chinese,Mon Oct  8 18:03:45 2018,Mouse
2,1,1,0,23,5,3,0,-723,423,300,138,0,500,200,8000,"[(512, 384), (512, 384), (512, 384), (512, 384), (512, 384), (512, 384), (512, 384), (512, 384), (512, 384), (512, 384), (512, 384), (512, 384), (512, 384), (512, 384), (512, 384), (512, 384), (512, 384), (512, 384), (512, 384), (512, 384), (512, 384), (512, 384), (512, 384), (512, 384), (512, 384), (512, 384), (512, 384), (512, 384), (512, 384), (512, 384), (512, 384), (512, 384), (512, 384), (512, 384), (512, 384), (512, 384), (512, 384), (512, 384), (512, 384), (512, 384), (512, 384), (512, 384), (511, 385), (510, 387), (508, 389), (507, 391), (505, 393), (499, 400), (494, 405), (490, 411), (486, 417), (481, 422), (480, 423), (480, 423), (480, 423), (480, 423), (480, 423), (480, 423), (480, 423), (480, 424), (481, 428), (483, 435), (486, 443), (492, 473), (495, 494), (496, 514), (496, 534), (493, 570), (492, 583), (490, 599), (487, 610), (485, 631), (484, 638)]",96.290670773355,"[7, 8, 3, 9, 6, 2, 5, 4, 1]","(0, 0.25)",CHN006A,CHN,A,Chinese,Mon Oct  8 18:03:45 2018,Mouse
2,1,1,0,24,6,6,1,584,144,440,139,0,500,200,8000,"[(512, 384), (512, 384), (512, 384), (512, 384), (512, 384), (512, 384), (512, 384), (512, 384), (512, 384), (512, 384), (512, 384), (512, 384), (512, 384), (512, 384), (513, 383), (513, 382), (513, 382), (513, 381), (513, 381), (513, 381), (513, 381), (513, 381), (513, 381), (513, 381), (513, 381), (513, 381), (513, 381), (513, 381), (513, 381), (513, 381), (513, 381), (513, 381), (513, 381), (513, 381), (513, 381), (513, 381), (513, 381), (513, 381), (513, 381), (513, 381), (513, 381), (513, 381), (513, 381), (513, 381), (513, 381), (513, 381), (508, 386), (506, 388), (504, 389), (500, 389), (486, 393), (474, 394), (450, 397), (424, 400), (357, 401), (326, 401), (298, 401), (265, 401), (195, 392)]",178.5543565794438,"[7, 8, 3, 9, 6, 2, 5, 4, 1]","(0, 0.25)",CHN006A,CHN,A,Chinese,Mon Oct  8 18:03:45 2018,Mouse
2,1,1,0,25,4,7,0,-1232,162,1070,139,0,500,200,8000,"[(512, 384), (512, 384), (512, 384), (512, 384), (512, 384), (512, 384), (512, 384), (512, 384), (512, 384), (512, 384), (512, 384), (512, 384), (512, 384), (512, 384), (512, 384), (512, 384), (515, 384), (519, 384), (522, 384), (525, 384), (525, 385), (525, 385), (526, 385), (526, 385), (526, 385), (526, 385), (526, 385), (526, 385), (526, 385), (526, 385), (526, 385), (526, 385), (526, 385), (526, 385), (526, 385), (526, 385), (526, 385), (526, 385), (526, 385), (526, 385), (526, 385), (526, 385), (526, 385), (526, 385), (526, 385), (526, 385), (526, 385), (526, 385), (526, 385), (526, 385), (526, 385), (526, 385), (526, 385), (526, 385), (526, 385), (526, 385), (526, 385), (526, 385), (526, 385), (526, 385), (526, 385), (526, 385), (526, 385), (526, 385), (526, 385), (526, 385), (526, 385), (526, 385), (526, 385), (526, 385), (526, 385), (526, 385), (526, 385), (526, 385), (526, 385), (526, 385), (526, 385), (526, 385), (526, 385), (526, 385), (526, 385), (526, 385), (526, 385), (526, 385), (526, 385), (526, 385), (526, 385), (526, 385), (526, 385), (526, 385), (526, 385), (526, 385), (526, 385), (526, 385), (526, 385), (526, 385), (526, 385), (526, 385), (526, 385), (526, 385), (526, 385), (526, 385), (526, 385), (526, 385), (526, 385), (526, 385), (526, 385), (526, 385), (526, 385), (528, 385), (533, 386), (543, 388), (568, 394), (583, 396), (597, 397), (613, 401), (650, 408), (667, 413), (691, 416), (705, 421), (731, 429), (741, 431), (751, 433), (759, 436)]",11.888658039627975,"[7, 8, 3, 9, 6, 2, 5, 4, 1]","(0, 0.25)",CHN006A,CHN,A,Chinese,Mon Oct  8 18:03:45 2018,Mouse
2,1,1,0,26,7,7,1,455,415,40,140,0,500,200,8000,"[(512, 384), (512, 384), (512, 384), (512, 384), (512, 384), (512, 384), (512, 384), (512, 384), (512, 384), (512, 384), (512, 384), (512, 384), (512, 384), (512, 384), (512, 384), (512, 384), (512, 384), (512, 384), (512, 384), (512, 384), (512, 384), (512, 384), (512, 384), (512, 384), (512, 384), (512, 384), (512, 384), (512, 384), (512, 384), (512, 384), (512, 384), (512, 384), (512, 384), (512, 384), (512, 384), (512, 384), (512, 384), (512, 384), (512, 384), (512, 384), (512, 384), (536, 397), (574, 418), (621, 434), (667, 458), (777, 504)]",24.362453015312187,"[7, 8, 3, 9, 6, 2, 5, 4, 1]","(0, 0.25)",CHN006A,CHN,A,Chinese,Mon Oct  8 18:03:45 2018,Mouse
2,1,1,0,27,7,7,1,364,304,60,140,0,500,200,8000,"[(512, 384), (512, 384), (512, 384), (512, 384), (512, 384), (512, 384), (512, 384), (512, 384), (512, 384), (512, 384), (512, 384), (512, 384), (512, 384), (512, 384), (512, 384), (512, 384), (512, 384), (512, 384), (512, 384), (512, 384), (512, 384), (512, 384), (512, 384), (512, 384), (512, 384), (512, 384), (512, 384), (512, 384), (512, 384), (512, 384), (522, 385), (539, 391), (560, 404), (594, 414), (663, 443), (708, 461), (756, 479)]",21.273165493894485,"[7, 8, 3, 9, 6, 2, 5, 4, 1]","(0, 0.25)",CHN006A,CHN,A,Chinese,Mon Oct  8 18:03:45 2018,Mouse
2,1,1,0,28,3,2,0,-822,562,260,139,0,500,200,8000,"[(512, 384), (512, 384), (512, 384), (512, 384), (512, 384), (512, 384), (512, 384), (512, 384), (512, 384), (512, 384), (512, 384), (512, 384), (512, 384), (512, 384), (512, 384), (512, 384), (512, 384), (512, 384), (512, 384), (512, 384), (512, 384), (512, 384), (512, 384), (512, 384), (512, 384), (512, 384), (512, 384), (512, 384), (512, 384), (512, 384), (512, 384), (512, 384), (512, 384), (512, 384), (512, 384), (512, 384), (512, 384), (512, 384), (512, 384), (512, 384), (512, 384), (512, 384), (512, 384), (512, 384), (512, 384), (512, 384), (512, 384), (512, 384), (512, 384), (512, 384), (512, 384), (512, 384), (512, 384), (512, 384), (512, 384), (512, 384), (511, 384), (511, 384), (511, 384), (511, 384), (511, 384), (511, 384), (511, 384), (511, 384), (510, 384), (509, 382), (500, 370), (493, 364), (485, 356), (475, 348), (452, 333), (441, 327), (432, 322), (426, 319), (418, 314), (415, 311), (413, 308), (407, 296), (396, 272), (385, 257), (375, 246), (361, 234), (330, 212)]",223.38190546726253,"[7, 8, 3, 9, 6, 2, 5, 4, 1]","(0, 0.25)",CHN006A,CHN,A,Chinese,Mon Oct  8 18:03:45 2018,Mouse
2,1,1,0,29,1,1,1,342,132,210,140,0,500,200,8000,"[(512, 384), (512, 384), (512, 384), (512, 384), (512, 384), (512, 384), (512, 384), (512, 384), (512, 384), (512, 384), (512, 384), (512, 384), (512, 384), (512, 382), (514, 380), (516, 379), (516, 379), (516, 379), (516, 379), (517, 379), (517, 379), (518, 379), (518, 379), (518, 379), (518, 379), (518, 379), (518, 379), (524, 379), (549, 379), (561, 376), (573, 374), (595, 369), (672, 350), (714, 339), (764, 323)]",346.39252891701517,"[7, 8, 3, 9, 6, 2, 5, 4, 1]","(0, 0.25)",CHN006A,CHN,A,Chinese,Mon Oct  8 18:03:45 2018,Mouse
2,1,1,0,30,5,3,0,-602,312,290,140,0,500,200,8000,"[(512, 384), (512, 384), (512, 384), (512, 384), (512, 384), (512, 384), (512, 384), (512, 384), (512, 384), (512, 384), (512, 384), (512, 384), (512, 384), (512, 384), (512, 384), (512, 384), (512, 384), (512, 384), (512, 384), (512, 384), (512, 384), (512, 384), (512, 384), (512, 384), (512, 384), (512, 384), (512, 384), (512, 384), (512, 384), (512, 384), (512, 384), (513, 384), (513, 384), (513, 384), (513, 384), (513, 384), (513, 384), (513, 384), (513, 384), (513, 384), (513, 384), (513, 384), (513, 384), (513, 384), (513, 384), (512, 385), (511, 386), (511, 386), (511, 389), (508, 398), (487, 437), (481, 450), (473, 467), (466, 484), (457, 520), (452, 537), (445, 557), (441, 576), (434, 605), (431, 618), (429, 634)]",108.36616640756893,"[7, 8, 3, 9, 6, 2, 5, 4, 1]","(0, 0.25)",CHN006A,CHN,A,Chinese,Mon Oct  8 18:03:45 2018,Mouse
2,1,1,0,31,7,3,0,-7865,4625,3240,141,0,500,200,8000,"[(512, 384), (512, 384), (512, 384), (512, 384), (512, 384), (512, 384), (512, 384), (512, 384), (512, 384), (512, 384), (512, 384), (512, 384), (512, 384), (512, 384), (512, 384), (512, 384), (512, 384), (512, 384), (512, 384), (512, 384), (512, 384), (512, 384), (512, 384), (512, 384), (512, 384), (512, 384), (512, 384), (512, 384), (512, 384), (512, 384), (512, 384), (512, 384), (512, 384), (512, 384), (512, 384), (512, 384), (512, 384), (512, 384), (512, 384), (512, 384), (512, 384), (512, 384), (512, 384), (512, 384), (512, 384), (512, 384), (512, 384), (512, 384), (512, 384), (512, 384), (512, 384), (512, 384), (512, 384), (512, 384), (512, 384), (512, 384), (512, 384), (512, 384), (512, 384), (512, 384), (512, 384), (512, 384), (512, 384), (512, 384), (512, 384), (512, 384), (512, 384), (512, 384), (512, 384), (512, 384), (512, 384), (512, 384), (512, 384), (512, 384), (512, 384), (512, 384), (512, 384), (512, 384), (512, 384), (512, 384), (512, 384), (512, 384), (512, 384), (512, 384), (512, 384), (512, 384), (512, 384), (512, 384), (512, 384), (512, 384), (512, 384), (512, 384), (512, 384), (512, 384), (512, 384), (512, 384), (512, 384), (512, 384), (512, 384), (512, 384), (512, 384), (512, 384), (512, 384), (512, 384), (512, 384), (512, 384), (512, 384), (512, 384), (512, 384), (512, 384), (512, 384), (512, 384), (512, 384), (512, 384), (512, 384), (512, 384), (512, 384), (512, 384), (512, 384), (512, 384), (512, 384), (512, 384), (512, 384), (512, 384), (512, 384), (512, 384), (512, 384), (512, 384), (512, 384), (512, 384), (512, 384), (512, 384), (512, 384), (512, 384), (512, 384), (512, 384), (512, 384), (512, 384), (512, 384), (512, 384), (512, 384), (512, 384), (512, 384), (512, 384), (512, 384), (512, 384), (512, 384), (512, 384), (512, 384), (512, 384), (512, 384), (512, 384), (512, 384), (512, 384), (512, 384), (512, 384), (512, 384), (512, 384), (512, 384), (512, 384), (512, 384), (512, 384), (512, 384), (512, 384), (512, 384), (512, 384), (512, 384), (512, 384), (512, 384), (512, 384), (512, 384), (512, 384), (512, 384), (512, 384), (512, 384), (512, 384), (512, 384), (512, 384), (512, 384), (512, 384), (512, 384), (512, 384), (512, 384), (512, 384), (512, 384), (512, 384), (512, 384), (512, 384), (512, 384), (512, 384), (512, 384), (512, 384), (512, 384), (512, 384), (512, 384), (512, 384), (512, 384), (512, 384), (512, 384), (512, 384), (512, 384), (512, 384), (512, 384), (512, 384), (512, 384), (512, 384), (512, 384), (512, 384), (512, 384), (512, 384), (512, 384), (512, 384), (512, 384), (512, 384), (512, 384), (512, 384), (512, 384), (512, 384), (512, 384), (512, 384), (512, 384), (512, 384), (512, 384), (512, 384), (512, 384), (512, 384), (512, 384), (512, 384), (512, 384), (512, 384), (512, 384), (512, 384), (512, 384), (512, 384), (512, 384), (512, 384), (512, 384), (512, 384), (512, 384), (512, 384), (512, 384), (512, 384), (512, 384), (512, 384), (512, 384), (512, 384), (512, 384), (512, 384), (512, 384), (512, 384), (512, 384), (512, 384), (512, 384), (512, 384), (512, 384), (512, 384), (512, 384), (512, 384), (512, 384), (512, 384), (512, 384), (512, 384), (512, 384), (512, 384), (512, 384), (512, 384), (512, 384), (512, 384), (512, 384), (512, 384), (512, 384), (512, 384), (512, 384), (512, 384), (512, 384), (512, 384), (512, 384), (512, 384), (512, 384), (512, 384), (512, 384), (512, 384), (512, 384), (512, 384), (512, 384), (512, 384), (512, 384), (512, 384), (512, 384), (512, 384), (512, 384), (512, 384), (512, 384), (512, 384), (512, 384), (512, 384), (512, 384), (512, 384), (512, 384), (512, 384), (512, 384), (512, 384), (512, 384), (512, 384), (512, 384), (512, 384), (512, 384), (512, 384), (512, 384), (512, 384), (512, 384), (512, 384), (512, 384), (512, 384), (512, 384), (512, 384), (512, 384), (512, 384), (512, 384), (512, 384), (512, 384), (512, 384), (512, 384), (512, 384), (512, 384), (512, 384), (512, 384), (512, 384), (512, 384), (512, 384), (512, 384), (512, 384), (512, 384), (512, 384), (512, 384), (512, 384), (512, 384), (512, 384), (512, 384), (512, 384), (512, 384), (512, 384), (512, 384), (512, 384), (512, 384), (512, 384), (512, 384), (512, 384), (512, 384), (512, 384), (512, 384), (512, 384), (512, 384), (512, 384), (512, 384), (512, 384), (512, 384), (512, 384), (512, 384), (512, 384), (512, 384), (512, 384), (512, 384), (512, 384), (512, 384), (512, 384), (512, 384), (512, 384), (512, 384), (512, 384), (512, 384), (512, 384), (512, 384), (512, 384), (512, 384), (512, 384), (512, 384), (512, 384), (512, 384), (512, 384), (512, 384), (512, 384), (512, 384), (512, 384), (512, 384), (512, 384), (512, 384), (512, 384), (512, 384), (512, 384), (512, 384), (512, 384), (512, 384), (512, 384), (512, 384), (512, 384), (512, 384), (512, 384), (512, 384), (512, 384), (512, 384), (512, 384), (512, 384), (512, 384), (512, 384), (512, 384), (512, 384), (512, 384), (512, 384), (512, 384), (512, 384), (512, 384), (512, 384), (512, 384), (512, 384), (512, 384), (512, 384), (512, 384), (512, 384), (512, 384), (512, 384), (512, 384), (512, 384), (512, 384), (512, 384), (512, 384), (512, 384), (512, 384), (512, 384), (512, 384), (512, 384), (512, 384), (512, 384), (512, 384), (512, 384), (512, 384), (512, 384), (512, 384), (512, 384), (512, 384), (512, 384), (512, 384), (512, 384), (512, 384), (512, 384), (512, 384), (512, 384), (512, 384), (512, 384), (512, 384), (512, 384), (512, 384), (512, 384), (512, 384), (512, 384), (512, 384), (512, 384), (512, 384), (512, 384), (512, 384), (512, 384), (512, 384), (517, 398), (517, 405), (517, 411), (514, 416), (503, 419), (490, 420), (480, 420), (470, 417), (450, 405), (440, 400), (433, 398), (427, 396), (416, 395), (413, 395), (410, 395), (410, 395), (408, 395), (408, 395), (408, 395), (408, 395), (408, 395), (408, 395), (408, 395), (408, 395), (408, 395), (408, 395), (408, 395), (408, 395), (408, 395), (408, 395), (408, 395), (408, 395), (408, 395), (408, 395), (408, 395), (406, 395), (405, 387), (405, 383), (405, 380), (410, 373), (413, 370), (416, 369), (421, 368), (424, 368), (426, 368), (426, 368), (427, 368), (430, 368), (432, 368), (435, 370), (436, 372), (440, 374), (447, 379), (450, 380), (452, 382), (454, 383), (454, 383), (456, 383), (457, 383), (458, 383), (459, 383), (459, 383), (459, 383), (459, 383), (459, 383), (459, 383), (459, 383), (459, 383), (459, 383), (459, 383), (459, 383), (459, 383), (459, 383), (459, 383), (459, 383), (459, 383), (460, 383), (461, 383), (464, 383), (470, 395), (473, 404), (478, 420), (483, 432), (496, 472), (503, 495), (505, 518), (506, 538), (510, 569), (511, 579), (512, 587), (514, 592), (514, 595), (514, 597), (514, 597), (514, 597), (514, 597), (514, 597), (514, 597), (514, 597), (514, 597), (514, 597), (514, 597), (514, 597), (514, 595), (514, 594), (514, 592), (515, 591), (515, 588), (515, 587), (515, 587), (515, 587), (515, 586), (515, 586), (515, 585), (515, 585), (515, 585), (515, 585), (515, 585), (515, 585), (515, 585), (515, 585), (515, 585), (515, 585), (515, 585), (515, 585), (515, 585), (515, 585), (515, 585), (515, 585), (515, 585), (515, 585), (515, 585), (515, 585), (516, 585), (517, 585), (517, 584), (518, 583), (518, 583), (518, 583), (518, 583), (518, 583), (518, 583), (518, 583), (518, 583), (518, 583), (518, 583), (518, 583), (518, 583), (518, 583), (518, 583), (518, 583), (518, 583), (518, 583), (518, 583), (518, 583), (518, 583), (518, 583), (518, 583), (518, 583), (518, 583), (518, 583), (518, 583), (518, 583), (518, 583), (518, 583), (518, 583), (518, 583), (518, 583), (518, 582), (518, 581), (518, 581), (518, 578), (518, 576), (518, 576), (518, 575), (518, 573), (518, 572), (518, 571), (518, 570), (518, 570), (518, 569), (518, 569), (518, 568), (518, 568), (518, 568), (518, 568), (518, 568), (517, 568), (517, 568), (516, 568), (515, 568), (513, 568), (512, 570), (510, 571), (508, 573), (506, 575), (504, 578), (504, 578), (504, 578), (504, 578), (504, 578), (504, 578), (504, 578), (504, 578), (504, 578), (504, 578), (504, 578), (504, 578), (504, 578), (504, 578), (504, 578), (504, 578), (504, 578), (504, 578), (504, 578), (504, 578), (504, 578), (504, 578), (504, 578), (504, 578), (504, 578), (504, 578), (504, 578), (504, 578), (504, 579), (504, 580), (503, 581), (503, 583), (503, 584), (503, 586), (503, 587), (501, 589), (501, 590), (501, 591), (501, 592), (501, 593), (501, 594), (501, 594), (501, 594), (501, 595), (501, 595), (501, 595), (501, 595), (501, 595), (501, 595), (501, 595), (501, 595), (501, 595), (501, 595), (501, 595), (501, 595), (501, 595), (501, 595), (501, 595), (501, 595), (501, 595), (501, 595), (501, 595), (501, 595), (501, 595), (501, 596), (501, 596), (501, 596), (501, 596), (501, 596), (501, 597), (501, 598), (501, 599), (500, 599), (499, 600), (499, 600), (499, 602), (499, 602), (499, 602), (499, 602), (499, 603), (498, 604), (498, 604), (498, 604), (498, 604), (498, 604), (498, 604), (498, 606), (498, 607), (497, 608), (497, 608), (497, 608), (497, 608), (497, 608), (497, 608), (496, 609), (496, 610), (496, 611), (495, 611), (495, 611), (495, 611), (495, 613), (495, 613), (495, 613), (494, 613), (494, 613), (494, 613), (494, 613), (494, 613), (494, 614), (494, 614), (493, 614), (493, 615), (493, 615), (492, 616), (492, 617), (491, 618), (491, 619), (491, 619), (490, 620), (490, 620), (489, 622), (489, 622), (488, 624), (488, 624), (488, 626), (488, 627), (488, 629), (486, 632), (485, 634)]",96.16405244282882,"[7, 8, 3, 9, 6, 2, 5, 4, 1]","(0, 0.25)",CHN006A,CHN,A,Chinese,Mon Oct  8 18:03:45 2018,Mouse
2,1,1,0,32,7,3,0,-4003,2473,1530,142,0,500,200,8000,"[(512, 384), (512, 384), (512, 384), (512, 384), (512, 384), (512, 384), (512, 384), (512, 384), (512, 384), (512, 384), (512, 384), (512, 384), (512, 384), (512, 384), (512, 384), (512, 384), (512, 384), (512, 384), (512, 384), (512, 384), (512, 384), (512, 384), (512, 384), (512, 384), (512, 384), (512, 384), (512, 384), (512, 384), (512, 384), (512, 384), (512, 384), (512, 384), (512, 384), (512, 384), (512, 384), (512, 384), (512, 384), (512, 384), (512, 384), (512, 384), (512, 384), (512, 384), (512, 384), (512, 384), (512, 384), (512, 384), (512, 384), (512, 384), (512, 384), (512, 384), (512, 384), (512, 384), (512, 384), (512, 384), (512, 384), (512, 384), (512, 384), (512, 384), (512, 384), (512, 384), (512, 384), (512, 384), (512, 384), (512, 384), (512, 384), (512, 384), (512, 384), (512, 384), (512, 384), (512, 384), (512, 384), (512, 384), (512, 384), (512, 384), (512, 384), (512, 384), (512, 384), (512, 384), (512, 384), (512, 384), (512, 384), (512, 384), (512, 384), (512, 384), (512, 384), (512, 384), (512, 384), (512, 384), (512, 384), (512, 384), (512, 384), (512, 384), (512, 384), (512, 384), (512, 384), (512, 384), (512, 384), (512, 384), (512, 384), (512, 384), (512, 384), (512, 384), (512, 384), (512, 384), (512, 384), (512, 384), (512, 384), (512, 384), (512, 384), (512, 384), (512, 384), (512, 384), (512, 384), (512, 384), (512, 384), (512, 384), (512, 384), (512, 384), (512, 384), (512, 384), (512, 384), (512, 384), (512, 384), (512, 384), (512, 384), (512, 384), (512, 384), (512, 384), (512, 384), (512, 384), (512, 384), (512, 384), (512, 384), (512, 384), (512, 384), (512, 384), (512, 384), (512, 384), (512, 384), (512, 384), (512, 384), (512, 384), (512, 384), (512, 384), (512, 384), (512, 384), (512, 384), (512, 384), (512, 384), (512, 384), (512, 384), (512, 384), (512, 384), (512, 384), (512, 384), (512, 384), (512, 384), (512, 384), (512, 384), (512, 384), (512, 384), (512, 384), (512, 384), (512, 384), (512, 384), (512, 384), (512, 384), (512, 384), (512, 384), (512, 384), (512, 384), (512, 384), (512, 384), (512, 384), (512, 384), (512, 384), (512, 384), (512, 384), (512, 384), (512, 384), (512, 384), (512, 384), (512, 384), (512, 384), (512, 384), (512, 384), (512, 384), (512, 384), (512, 384), (512, 384), (512, 384), (512, 384), (512, 384), (512, 384), (512, 384), (512, 384), (512, 384), (512, 384), (512, 384), (512, 384), (512, 384), (512, 384), (512, 384), (512, 384), (512, 384), (512, 384), (512, 384), (512, 384), (512, 384), (512, 384), (512, 384), (512, 384), (512, 384), (512, 384), (512, 384), (512, 384), (512, 384), (512, 384), (512, 384), (512, 384), (512, 384), (512, 384), (512, 384), (512, 384), (512, 384), (512, 384), (512, 384), (512, 384), (512, 384), (512, 384), (512, 384), (512, 384), (512, 384), (512, 384), (512, 384), (512, 384), (512, 384), (512, 384), (512, 384), (512, 384), (512, 384), (512, 384), (512, 384), (512, 384), (512, 384), (512, 384), (512, 384), (506, 385), (504, 386), (502, 387), (498, 389), (494, 393), (493, 396), (491, 398), (491, 398), (491, 398), (491, 398), (491, 398), (491, 398), (491, 398), (491, 398), (491, 398), (491, 398), (491, 398), (491, 398), (491, 398), (491, 398), (491, 398), (491, 398), (491, 398), (491, 398), (491, 398), (491, 398), (491, 398), (491, 398), (491, 398), (491, 398), (491, 398), (491, 398), (491, 398), (491, 398), (491, 398), (491, 398), (487, 402), (482, 408), (479, 413), (477, 420), (477, 428), (477, 431), (477, 432), (477, 432), (477, 432), (477, 432), (477, 432), (477, 432), (477, 432), (477, 432), (477, 432), (477, 432), (477, 433), (477, 434), (477, 436), (477, 437), (477, 442), (478, 444), (480, 447), (480, 448), (481, 451), (481, 452), (481, 452), (481, 452), (482, 453), (482, 453), (482, 453), (482, 453), (482, 453), (482, 453), (482, 453), (482, 453), (482, 453), (482, 453), (482, 453), (482, 453), (482, 453), (482, 453), (482, 453), (482, 453), (482, 453), (482, 453), (482, 453), (482, 453), (482, 453), (482, 453), (482, 453), (482, 453), (484, 454), (486, 454), (488, 454), (488, 454), (491, 457), (491, 461), (491, 464), (491, 469), (491, 474), (491, 478), (491, 481), (491, 484), (491, 491), (491, 494), (491, 498), (491, 503), (491, 511), (491, 515), (491, 519), (491, 523), (491, 532), (491, 536), (491, 542), (491, 547), (491, 562), (491, 569), (491, 575), (491, 580), (491, 594), (491, 601), (491, 607), (491, 611), (491, 615), (491, 617), (491, 618), (491, 618), (491, 619), (491, 620), (491, 621), (491, 621), (491, 622), (491, 623), (491, 624), (491, 625), (491, 626), (490, 628), (490, 628), (490, 628), (490, 628), (490, 628), (490, 628), (490, 628), (490, 628), (490, 628), (490, 628), (490, 628), (490, 628), (490, 628), (490, 630), (490, 630), (490, 631), (490, 633), (490, 633), (490, 633), (490, 633), (490, 634)]",95.02907358178545,"[7, 8, 3, 9, 6, 2, 5, 4, 1]","(0, 0.25)",CHN006A,CHN,A,Chinese,Mon Oct  8 18:03:45 2018,Mouse
2,1,1,0,33,7,7,1,1116,256,860,143,0,500,200,8000,"[(512, 384), (512, 384), (512, 384), (512, 384), (512, 384), (512, 384), (512, 384), (512, 384), (512, 384), (512, 384), (512, 384), (512, 384), (512, 384), (512, 384), (512, 384), (512, 384), (512, 384), (512, 384), (512, 384), (512, 384), (512, 384), (512, 384), (512, 384), (512, 384), (512, 384), (513, 384), (513, 384), (513, 384), (513, 384), (513, 385), (514, 385), (514, 385), (514, 385), (514, 385), (514, 385), (514, 385), (515, 386), (515, 389), (515, 392), (514, 394), (514, 394), (514, 395), (514, 395), (514, 396), (514, 396), (514, 396), (514, 396), (514, 396), (514, 396), (514, 396), (514, 396), (514, 396), (514, 396), (514, 396), (514, 396), (514, 396), (514, 396), (517, 396), (518, 395), (522, 393), (522, 392), (522, 392), (522, 392), (522, 392), (522, 392), (522, 392), (522, 392), (522, 392), (522, 392), (522, 392), (522, 392), (522, 392), (522, 392), (522, 392), (522, 392), (522, 392), (522, 392), (522, 392), (522, 392), (522, 392), (522, 392), (522, 392), (522, 392), (522, 392), (522, 392), (522, 392), (522, 392), (522, 392), (522, 392), (522, 392), (522, 392), (522, 392), (522, 392), (522, 392), (522, 392), (522, 392), (522, 392), (522, 392), (522, 392), (522, 392), (522, 392), (536, 391), (544, 391), (555, 394), (568, 396), (605, 406), (633, 414), (664, 422), (691, 427), (731, 442), (749, 450), (775, 460)]",16.117886437050686,"[7, 8, 3, 9, 6, 2, 5, 4, 1]","(0, 0.25)",CHN006A,CHN,A,Chinese,Mon Oct  8 18:03:45 2018,Mouse
2,1,1,0,34,9,6,0,-1112,712,400,143,0,500,200,8000,"[(512, 384), (512, 384), (512, 384), (512, 384), (512, 384), (512, 384), (512, 384), (512, 384), (512, 384), (512, 384), (512, 384), (512, 384), (512, 384), (512, 384), (512, 384), (512, 384), (512, 384), (512, 384), (512, 384), (512, 384), (512, 384), (512, 384), (512, 384), (512, 384), (512, 384), (512, 384), (512, 384), (512, 384), (512, 384), (512, 384), (512, 384), (512, 384), (512, 384), (512, 384), (512, 384), (512, 384), (512, 384), (512, 384), (512, 384), (512, 384), (512, 384), (512, 384), (512, 384), (512, 384), (512, 384), (512, 384), (512, 384), (512, 384), (512, 384), (512, 384), (512, 384), (512, 384), (512, 384), (512, 384), (512, 384), (512, 384), (512, 384), (512, 384), (512, 384), (512, 384), (512, 384), (512, 384), (512, 384), (512, 384), (512, 384), (512, 384), (512, 384), (512, 384), (512, 384), (512, 384), (512, 384), (511, 384), (506, 385), (501, 388), (498, 392), (497, 393), (496, 394), (495, 395), (494, 396), (494, 396), (494, 396), (494, 396), (494, 396), (494, 396), (494, 396), (494, 396), (494, 396), (494, 396), (494, 396), (494, 396), (494, 396), (494, 396), (494, 396), (494, 396), (494, 396), (494, 396), (494, 396), (494, 396), (492, 396), (488, 396), (481, 396), (472, 397), (448, 401), (433, 402), (415, 402), (390, 402), (348, 402), (320, 402), (305, 402), (291, 402), (263, 402), (251, 402)]",176.05481377096245,"[7, 8, 3, 9, 6, 2, 5, 4, 1]","(0, 0.25)",CHN006A,CHN,A,Chinese,Mon Oct  8 18:03:45 2018,Mouse
2,1,1,0,35,2,2,1,663,143,520,144,0,500,200,8000,"[(512, 384), (512, 384), (512, 384), (512, 384), (512, 384), (512, 384), (512, 384), (512, 384), (512, 384), (512, 384), (512, 384), (512, 384), (512, 384), (512, 384), (513, 384), (513, 384), (513, 384), (513, 384), (513, 384), (513, 384), (513, 384), (513, 384), (513, 384), (513, 384), (513, 384), (513, 384), (513, 384), (513, 384), (513, 384), (513, 384), (513, 384), (513, 384), (513, 384), (513, 384), (513, 384), (513, 384), (513, 384), (513, 384), (513, 384), (513, 384), (513, 384), (513, 385), (515, 386), (515, 387), (515, 387), (515, 387), (515, 387), (515, 387), (515, 387), (515, 387), (515, 387), (515, 387), (515, 387), (513, 385), (500, 370), (491, 361), (481, 354), (468, 344), (446, 333), (439, 328), (429, 322), (420, 317), (398, 297), (383, 281), (364, 264), (341, 244), (312, 221)]",219.18003408654442,"[7, 8, 3, 9, 6, 2, 5, 4, 1]","(0, 0.25)",CHN006A,CHN,A,Chinese,Mon Oct  8 18:03:45 2018,Mouse
2,1,1,0,36,5,5,1,668,558,110,144,0,500,200,8000,"[(512, 384), (512, 384), (512, 384), (512, 384), (512, 384), (512, 384), (512, 384), (512, 384), (512, 384), (512, 384), (512, 384), (512, 384), (512, 384), (512, 384), (512, 384), (512, 384), (512, 384), (512, 384), (512, 384), (512, 384), (512, 384), (512, 384), (512, 384), (512, 384), (512, 384), (512, 384), (512, 384), (512, 384), (512, 384), (512, 384), (512, 384), (512, 384), (512, 384), (512, 384), (512, 384), (512, 384), (512, 384), (512, 384), (512, 384), (512, 384), (512, 384), (512, 384), (512, 384), (512, 384), (512, 384), (512, 384), (512, 384), (512, 384), (512, 384), (512, 384), (512, 384), (512, 384), (512, 384), (512, 384), (512, 384), (513, 383), (514, 381), (514, 373), (514, 361), (511, 347), (509, 328), (507, 305), (495, 237), (492, 205), (487, 181), (484, 147), (475, 98)]",262.6285517104213,"[7, 8, 3, 9, 6, 2, 5, 4, 1]","(0, 0.25)",CHN006A,CHN,A,Chinese,Mon Oct  8 18:03:45 2018,Mouse
2,1,1,0,37,3,3,1,1043,913,130,143,0,500,200,8000,"[(512, 384), (512, 384), (512, 384), (512, 384), (512, 384), (512, 384), (512, 384), (512, 384), (512, 384), (512, 384), (512, 384), (512, 384), (512, 384), (512, 384), (512, 384), (512, 384), (512, 384), (512, 384), (512, 384), (512, 384), (512, 384), (512, 384), (512, 384), (512, 384), (512, 384), (512, 384), (512, 384), (512, 384), (512, 384), (512, 384), (512, 384), (512, 384), (512, 384), (512, 384), (512, 384), (512, 384), (512, 384), (512, 384), (512, 384), (512, 384), (512, 384), (512, 384), (512, 384), (512, 384), (512, 384), (512, 384), (512, 384), (512, 384), (512, 384), (512, 384), (512, 384), (512, 384), (512, 384), (512, 384), (512, 384), (512, 384), (512, 384), (512, 384), (512, 384), (512, 384), (512, 384), (512, 384), (512, 384), (512, 384), (512, 384), (512, 384), (512, 384), (512, 384), (512, 384), (512, 384), (512, 384), (512, 384), (512, 384), (512, 384), (512, 384), (512, 384), (512, 384), (512, 384), (512, 384), (512, 384), (512, 384), (512, 384), (512, 384), (512, 384), (512, 384), (512, 384), (512, 384), (512, 384), (512, 384), (512, 384), (512, 384), (513, 385), (512, 399), (511, 411), (507, 424), (505, 441), (502, 476), (500, 489), (496, 506), (494, 520), (487, 548), (483, 561), (481, 584), (476, 608), (469, 654)]",99.0488902048818,"[7, 8, 3, 9, 6, 2, 5, 4, 1]","(0, 0.25)",CHN006A,CHN,A,Chinese,Mon Oct  8 18:03:45 2018,Mouse
2,1,1,0,38,4,4,1,651,391,260,142,0,500,200,8000,"[(512, 384), (512, 384), (512, 384), (512, 384), (512, 384), (512, 384), (512, 384), (512, 384), (512, 384), (512, 384), (512, 384), (512, 384), (512, 384), (512, 384), (512, 384), (512, 384), (512, 384), (512, 384), (512, 384), (512, 384), (512, 384), (512, 384), (512, 384), (512, 384), (512, 384), (512, 384), (512, 384), (512, 384), (512, 384), (512, 384), (512, 384), (512, 384), (512, 384), (512, 384), (512, 384), (512, 384), (512, 384), (512, 384), (512, 384), (510, 384), (506, 384), (503, 384), (502, 385), (499, 386), (495, 389), (494, 391), (494, 391), (492, 392), (492, 392), (492, 392), (492, 392), (492, 392), (492, 392), (492, 392), (493, 392), (495, 392), (502, 386), (509, 381), (514, 376), (521, 371), (538, 348), (549, 331), (564, 306), (577, 279), (612, 194), (630, 144)]",296.18180753144327,"[7, 8, 3, 9, 6, 2, 5, 4, 1]","(0, 0.25)",CHN006A,CHN,A,Chinese,Mon Oct  8 18:03:45 2018,Mouse
2,1,1,0,39,4,666,0,-8000,7294,0,141,0,500,200,8000,"[(512, 384), (512, 384), (512, 384), (512, 384), (512, 384), (512, 384), (512, 384), (512, 384), (512, 384), (512, 384), (512, 384), (512, 384), (512, 384), (512, 384), (512, 384), (512, 384), (512, 384), (512, 384), (512, 384), (512, 384), (512, 384), (512, 384), (512, 384), (512, 384), (512, 384), (512, 384), (512, 384), (512, 384), (512, 384), (512, 384), (512, 384), (512, 384), (512, 384), (512, 384), (512, 384), (512, 384), (512, 384), (512, 384), (512, 384), (512, 384), (512, 384), (512, 384), (512, 384), (512, 384), (512, 384), (512, 384), (512, 384), (512, 384), (512, 384), (512, 384), (512, 384), (512, 384), (512, 384), (512, 384), (512, 384), (512, 384), (512, 384), (512, 384), (512, 384), (512, 384), (512, 384), (512, 384), (512, 384), (512, 384), (512, 384), (512, 384), (512, 384), (512, 384), (512, 384), (512, 384), (512, 384), (512, 384), (512, 384), (512, 384), (512, 384), (512, 384), (512, 384), (512, 384), (512, 384), (512, 384), (512, 384), (512, 384), (512, 384), (512, 384), (512, 384), (512, 384), (512, 384), (512, 384), (512, 384), (512, 384), (512, 384), (512, 384), (512, 384), (512, 384), (512, 384), (512, 384), (512, 384), (512, 384), (512, 384), (512, 384), (512, 384), (512, 384), (512, 384), (512, 384), (512, 384), (512, 384), (512, 384), (512, 384), (512, 384), (512, 384), (512, 384), (512, 384), (512, 384), (512, 384), (512, 384), (512, 384), (512, 384), (512, 384), (512, 384), (512, 384), (512, 384), (512, 384), (512, 384), (512, 384), (512, 384), (512, 384), (512, 384), (512, 384), (512, 384), (512, 384), (512, 384), (512, 384), (512, 384), (512, 384), (512, 384), (512, 384), (512, 384), (512, 384), (512, 384), (512, 384), (512, 384), (512, 384), (512, 384), (512, 384), (512, 384), (512, 384), (512, 384), (512, 384), (512, 384), (512, 384), (512, 384), (512, 384), (512, 384), (512, 384), (512, 384), (512, 384), (512, 384), (512, 384), (512, 384), (512, 384), (512, 384), (512, 384), (512, 384), (512, 384), (512, 384), (512, 384), (512, 384), (512, 384), (512, 384), (512, 384), (512, 384), (512, 384), (512, 384), (512, 384), (512, 384), (512, 384), (512, 384), (512, 384), (512, 384), (512, 384), (512, 384), (512, 384), (512, 384), (512, 384), (512, 384), (512, 384), (512, 384), (512, 384), (512, 384), (512, 384), (512, 384), (512, 384), (512, 384), (512, 384), (512, 384), (512, 384), (512, 384), (512, 384), (512, 384), (512, 384), (512, 384), (512, 384), (512, 384), (512, 384), (512, 384), (512, 384), (512, 384), (512, 384), (512, 384), (512, 384), (512, 384), (512, 384), (512, 384), (512, 384), (512, 384), (512, 384), (512, 384), (512, 384), (512, 384), (512, 384), (512, 384), (512, 384), (512, 384), (512, 384), (512, 384), (512, 384), (512, 384), (512, 384), (512, 384), (512, 384), (512, 384), (512, 384), (512, 384), (512, 384), (512, 384), (512, 384), (512, 384), (512, 384), (512, 384), (512, 384), (512, 384), (512, 384), (512, 384), (512, 384), (512, 384), (512, 384), (512, 384), (512, 384), (512, 384), (512, 384), (512, 384), (512, 384), (512, 384), (512, 384), (512, 384), (512, 384), (512, 384), (512, 384), (512, 384), (512, 384), (512, 384), (512, 384), (512, 384), (512, 384), (512, 384), (512, 384), (512, 384), (512, 384), (512, 384), (512, 384), (512, 384), (512, 384), (512, 384), (512, 384), (512, 384), (512, 384), (512, 384), (512, 384), (512, 384), (512, 384), (512, 384), (512, 384), (512, 384), (512, 384), (512, 384), (512, 384), (512, 384), (512, 384), (512, 384), (512, 384), (512, 384), (512, 384), (512, 384), (512, 384), (512, 384), (512, 384), (512, 384), (512, 384), (512, 384), (512, 384), (512, 384), (512, 384), (512, 384), (512, 384), (512, 384), (512, 384), (512, 384), (512, 384), (512, 384), (512, 384), (512, 384), (512, 384), (512, 384), (512, 384), (512, 384), (512, 384), (512, 384), (512, 384), (512, 384), (512, 384), (512, 384), (512, 384), (512, 384), (512, 384), (512, 384), (512, 384), (512, 384), (512, 384), (512, 384), (512, 384), (512, 384), (512, 384), (512, 384), (512, 384), (512, 384), (512, 384), (512, 384), (512, 384), (512, 384), (512, 384), (512, 384), (512, 384), (512, 384), (512, 384), (512, 384), (512, 384), (512, 384), (512, 384), (512, 384), (512, 384), (512, 384), (512, 384), (512, 384), (512, 384), (512, 384), (512, 384), (512, 384), (512, 384), (512, 384), (512, 384), (512, 384), (512, 384), (512, 384), (512, 384), (512, 384), (512, 384), (512, 384), (512, 384), (512, 384), (512, 384), (512, 384), (512, 384), (512, 384), (512, 384), (512, 384), (512, 384), (512, 384), (512, 384), (512, 384), (512, 384), (512, 384), (512, 384), (512, 384), (512, 384), (512, 384), (512, 384), (512, 384), (512, 384), (512, 384), (512, 384), (512, 384), (512, 384), (512, 384), (512, 384), (512, 384), (512, 384), (512, 384), (512, 384), (512, 384), (512, 384), (512, 384), (512, 384), (512, 384), (512, 384), (512, 384), (512, 384), (512, 384), (512, 384), (512, 384), (512, 384), (512, 384), (512, 384), (512, 384), (512, 384), (512, 384), (512, 384), (512, 384), (512, 384), (512, 384), (512, 384), (512, 384), (512, 384), (512, 384), (512, 384), (512, 384), (512, 384), (512, 384), (512, 384), (512, 384), (512, 384), (512, 384), (512, 384), (512, 384), (512, 384), (512, 384), (512, 384), (512, 384), (512, 384), (512, 384), (512, 384), (512, 384), (512, 384), (512, 384), (512, 384), (512, 384), (512, 384), (512, 384), (512, 384), (512, 384), (512, 384), (512, 384), (512, 384), (512, 384), (512, 384), (512, 384), (512, 384), (512, 384), (512, 384), (512, 384), (512, 384), (512, 384), (512, 384), (512, 384), (512, 384), (512, 384), (512, 384), (512, 384), (512, 384), (512, 384), (512, 384), (512, 384), (512, 384), (512, 384), (512, 384), (512, 384), (512, 384), (512, 384), (512, 384), (512, 384), (512, 384), (512, 384), (512, 384), (512, 384), (512, 384), (512, 384), (512, 384), (512, 384), (512, 384), (512, 384), (512, 384), (512, 384), (512, 384), (512, 384), (512, 384), (512, 384), (512, 384), (512, 384), (512, 384), (512, 384), (512, 384), (512, 384), (512, 384), (512, 384), (512, 384), (512, 384), (512, 384), (512, 384), (512, 384), (512, 384), (512, 384), (512, 384), (512, 384), (512, 384), (512, 384), (512, 384), (512, 384), (512, 384), (512, 384), (512, 384), (512, 384), (512, 384), (512, 384), (512, 384), (512, 384), (512, 384), (512, 384), (512, 384), (512, 384), (512, 384), (512, 384), (512, 384), (512, 384), (512, 384), (512, 384), (512, 384), (512, 384), (512, 384), (512, 384), (512, 384), (512, 384), (512, 384), (512, 384), (512, 384), (512, 384), (512, 384), (512, 384), (512, 384), (512, 384), (512, 384), (512, 384), (512, 384), (512, 384), (512, 384), (512, 384), (512, 384), (512, 384), (512, 384), (512, 384), (512, 384), (512, 384), (512, 384), (512, 384), (512, 384), (512, 384), (512, 384), (512, 384), (512, 384), (512, 384), (512, 384), (512, 384), (512, 384), (512, 384), (512, 384), (512, 384), (512, 384), (512, 384), (512, 384), (512, 384), (512, 384), (512, 384), (512, 384), (512, 384), (512, 384), (512, 384), (512, 384), (512, 384), (512, 384), (512, 384), (512, 384), (512, 384), (512, 384), (512, 384), (512, 384), (512, 384), (512, 384), (512, 384), (512, 384), (512, 384), (512, 384), (512, 384), (512, 384), (512, 384), (512, 384), (512, 384), (512, 384), (512, 384), (512, 384), (512, 384), (512, 384), (512, 384), (512, 384), (512, 384), (512, 384), (512, 384), (512, 384), (512, 384), (512, 384), (512, 384), (512, 384), (512, 384), (512, 384), (512, 384), (512, 384), (512, 384), (512, 384), (512, 384), (512, 384), (512, 384), (512, 384), (512, 384), (512, 384), (512, 384), (512, 384), (512, 384), (512, 384), (512, 384), (512, 384), (512, 384), (512, 384), (512, 384), (512, 384), (512, 384), (512, 384), (512, 384), (512, 384), (512, 384), (512, 384), (512, 384), (512, 384), (512, 384), (512, 384), (512, 384), (512, 384), (512, 384), (512, 384), (512, 384), (512, 384), (512, 384), (512, 384), (512, 384), (512, 384), (512, 384), (512, 384), (512, 384), (512, 384), (512, 384), (512, 384), (512, 384), (512, 384), (512, 384), (512, 384), (512, 384), (512, 384), (512, 384), (512, 384), (512, 384), (512, 384), (512, 384), (512, 384), (512, 384), (512, 384), (512, 384), (512, 384), (512, 384), (512, 384), (512, 384), (512, 384), (512, 384), (512, 384), (512, 384), (512, 384), (512, 384), (512, 384), (512, 384), (512, 384), (512, 384), (512, 384), (512, 384), (512, 384), (512, 384), (512, 384), (512, 384), (512, 384), (512, 384), (512, 384), (512, 384), (512, 384), (512, 384), (512, 384), (512, 384), (512, 384), (512, 384), (512, 384), (512, 384), (512, 384), (512, 384), (512, 384), (512, 384), (512, 384), (512, 384), (512, 384), (512, 384), (512, 384), (512, 384), (512, 384), (512, 384), (512, 384), (512, 384), (512, 384), (511, 386), (509, 391), (507, 392), (505, 392), (505, 392), (505, 392), (505, 392), (505, 392), (505, 392), (505, 392), (505, 392), (505, 392), (505, 392), (505, 392), (505, 392), (505, 392), (505, 392), (505, 392), (505, 392), (505, 392), (505, 392), (505, 392), (505, 392), (505, 392), (505, 392), (505, 392), (505, 392), (505, 392), (505, 392), (505, 392), (505, 392), (505, 392), (505, 392), (505, 392), (505, 392), (505, 392), (505, 392), (505, 392), (505, 392), (505, 392), (505, 392), (505, 392), (505, 392), (505, 392), (505, 392), (505, 392), (505, 392), (505, 392), (505, 392), (505, 392), (505, 392), (505, 392), (505, 392), (505, 392), (505, 392), (505, 392), (505, 392), (505, 392), (505, 392), (505, 392), (505, 392), (505, 392), (505, 392), (505, 392), (505, 392), (505, 392), (505, 392), (505, 392), (505, 392), (505, 392), (505, 392)]",666,"[7, 8, 3, 9, 6, 2, 5, 4, 1]","(0, 0.25)",CHN006A,CHN,A,Chinese,Mon Oct  8 18:03:45 2018,Mouse
2,1,1,0,40,6,6,1,665,8000,110,142,0,500,200,8000,"[(512, 384), (512, 384), (512, 384), (512, 384), (512, 384), (512, 384), (512, 384), (512, 384), (512, 384), (512, 384), (512, 384), (512, 384), (512, 384), (512, 384), (512, 384), (512, 384), (512, 384), (512, 384), (512, 384), (512, 384), (512, 384), (512, 384), (512, 384), (512, 384), (512, 384), (512, 384), (512, 384), (512, 384), (512, 384), (512, 384), (512, 384), (512, 384), (512, 384), (512, 384), (512, 384), (512, 384), (512, 384), (512, 384), (512, 384), (512, 384), (512, 384), (512, 384), (512, 384), (512, 384), (512, 384), (512, 384), (512, 384), (512, 384), (512, 384), (512, 384), (512, 384), (512, 384), (512, 384), (512, 384), (512, 384), (510, 384), (501, 384), (490, 384), (469, 384), (436, 384), (385, 390), (365, 392), (348, 392), (331, 392), (297, 392), (278, 392), (261, 392)]",178.17445769267013,"[7, 8, 3, 9, 6, 2, 5, 4, 1]","(0, 0.25)",CHN006A,CHN,A,Chinese,Mon Oct  8 18:03:45 2018,Mouse
2,1,1,0,41,8,6,0,-3483,555,940,142,0,500,200,8000,"[(512, 384), (512, 384), (512, 384), (512, 384), (512, 384), (512, 384), (512, 384), (512, 384), (512, 384), (512, 384), (512, 384), (512, 384), (512, 384), (512, 384), (512, 384), (512, 384), (512, 384), (512, 384), (512, 384), (512, 384), (512, 384), (512, 384), (512, 384), (512, 384), (512, 384), (512, 384), (512, 384), (512, 384), (512, 384), (512, 384), (512, 384), (512, 384), (512, 384), (512, 384), (512, 384), (512, 384), (512, 384), (512, 384), (512, 384), (512, 384), (512, 384), (512, 384), (512, 384), (512, 384), (512, 384), (512, 384), (512, 384), (512, 384), (512, 384), (512, 384), (512, 384), (512, 384), (512, 384), (512, 384), (512, 384), (512, 384), (512, 384), (512, 384), (512, 384), (512, 384), (512, 384), (512, 384), (512, 384), (512, 384), (512, 384), (512, 384), (512, 384), (512, 384), (512, 384), (512, 384), (512, 384), (512, 384), (512, 384), (512, 384), (512, 384), (512, 384), (512, 384), (512, 384), (512, 384), (512, 384), (512, 384), (512, 384), (512, 384), (512, 384), (512, 384), (512, 384), (512, 384), (512, 384), (512, 384), (512, 384), (512, 384), (512, 384), (512, 384), (512, 384), (512, 384), (512, 384), (512, 384), (512, 384), (512, 384), (512, 384), (512, 384), (512, 384), (512, 384), (512, 384), (512, 384), (512, 384), (512, 384), (512, 384), (512, 384), (512, 384), (512, 384), (512, 384), (512, 384), (512, 384), (512, 384), (512, 384), (512, 384), (512, 384), (512, 384), (512, 384), (512, 384), (512, 384), (512, 384), (512, 384), (512, 384), (512, 384), (512, 384), (512, 384), (512, 384), (512, 384), (512, 384), (512, 384), (512, 384), (512, 384), (512, 384), (512, 384), (512, 384), (512, 384), (512, 384), (512, 384), (512, 384), (512, 384), (512, 384), (512, 384), (512, 384), (512, 384), (512, 384), (512, 384), (512, 384), (512, 384), (512, 384), (512, 384), (512, 384), (512, 384), (512, 384), (512, 384), (512, 384), (512, 384), (512, 384), (512, 384), (512, 384), (512, 384), (512, 384), (512, 384), (512, 384), (512, 384), (512, 384), (512, 384), (512, 384), (512, 384), (512, 384), (512, 384), (512, 384), (512, 384), (512, 384), (512, 384), (512, 384), (512, 384), (512, 384), (512, 384), (512, 384), (512, 384), (512, 384), (512, 384), (512, 384), (512, 384), (512, 384), (512, 384), (512, 384), (512, 384), (512, 384), (512, 384), (512, 384), (512, 384), (512, 384), (512, 384), (512, 384), (512, 384), (512, 384), (512, 384), (512, 384), (512, 384), (512, 384), (512, 384), (512, 384), (512, 384), (512, 384), (512, 384), (512, 384), (512, 384), (512, 384), (512, 384), (512, 384), (512, 384), (512, 384), (512, 384), (512, 384), (512, 384), (512, 384), (512, 384), (512, 384), (512, 384), (512, 384), (512, 384), (512, 384), (512, 384), (512, 384), (512, 384), (512, 384), (512, 384), (512, 384), (512, 384), (512, 384), (512, 384), (512, 384), (512, 384), (512, 384), (512, 384), (512, 384), (512, 384), (512, 384), (512, 384), (512, 384), (512, 384), (512, 384), (512, 384), (512, 384), (512, 384), (512, 384), (512, 384), (512, 384), (512, 384), (512, 384), (512, 384), (513, 384), (513, 384), (513, 384), (513, 384), (507, 386), (507, 386), (507, 386), (507, 386), (507, 386), (507, 386), (507, 386), (507, 386), (507, 386), (507, 386), (508, 386), (508, 386), (508, 386), (509, 385), (509, 385), (509, 384), (484, 383), (459, 383), (425, 384), (405, 391), (377, 403), (365, 410), (356, 417), (346, 424), (337, 434), (335, 442), (332, 453), (331, 466), (327, 490), (325, 502), (325, 511), (322, 520), (319, 531), (317, 534), (317, 535), (317, 535), (317, 536), (317, 536), (317, 536), (317, 536), (317, 536), (317, 536), (317, 536), (317, 536), (317, 536), (317, 536), (317, 536), (317, 536), (317, 536), (317, 536), (317, 536), (317, 536), (317, 536), (317, 536), (317, 536), (317, 536), (317, 536), (317, 536), (317, 536), (317, 536), (317, 536), (317, 536), (317, 536), (317, 536), (317, 536), (317, 536), (317, 536), (315, 535), (316, 507), (333, 467), (349, 437), (359, 418), (368, 402), (368, 402), (368, 402), (368, 402), (367, 402), (357, 402), (342, 402), (328, 402), (311, 398), (310, 398), (309, 397), (307, 397), (301, 397), (295, 397), (289, 399), (284, 402), (272, 407), (267, 411), (259, 414)]",173.23761032506073,"[7, 8, 3, 9, 6, 2, 5, 4, 1]","(0, 0.25)",CHN006A,CHN,A,Chinese,Mon Oct  8 18:03:45 2018,Mouse
2,1,1,0,42,7,7,1,672,2543,660,143,0,500,200,8000,"[(512, 384), (513, 384), (523, 383), (529, 380), (536, 379), (541, 378), (550, 375), (550, 375), (550, 375), (550, 375), (550, 375), (550, 375), (550, 375), (550, 375), (550, 375), (550, 375), (550, 375), (550, 375), (550, 375), (550, 375), (550, 375), (550, 375), (550, 375), (550, 375), (550, 375), (550, 375), (550, 375), (550, 375), (550, 375), (550, 375), (550, 375), (550, 375), (550, 375), (550, 375), (550, 375), (550, 375), (550, 375), (550, 375), (550, 375), (550, 375), (550, 375), (550, 375), (550, 375), (550, 375), (550, 375), (550, 375), (550, 375), (550, 375), (550, 375), (550, 375), (550, 375), (550, 375), (550, 375), (550, 375), (550, 375), (550, 375), (550, 375), (550, 375), (550, 375), (550, 375), (550, 375), (550, 375), (558, 375), (574, 375), (602, 392), (643, 414), (729, 453), (771, 472)]",18.766134611337396,"[7, 8, 3, 9, 6, 2, 5, 4, 1]","(0, 0.25)",CHN006A,CHN,A,Chinese,Mon Oct  8 18:03:45 2018,Mouse
2,1,1,0,43,6,6,1,416,12,90,143,0,500,200,8000,"[(512, 384), (512, 384), (512, 384), (512, 384), (512, 384), (512, 384), (512, 384), (512, 384), (512, 384), (512, 384), (512, 384), (512, 384), (512, 384), (512, 384), (512, 384), (512, 384), (512, 384), (512, 384), (512, 384), (512, 384), (512, 384), (512, 384), (512, 384), (512, 384), (512, 384), (512, 384), (512, 384), (512, 384), (512, 384), (512, 384), (512, 384), (512, 384), (503, 384), (466, 384), (449, 384), (432, 384), (415, 384), (370, 384), (340, 384), (306, 384), (275, 382), (243, 382)]",180.42598307664315,"[7, 8, 3, 9, 6, 2, 5, 4, 1]","(0, 0.25)",CHN006A,CHN,A,Chinese,Mon Oct  8 18:03:45 2018,Mouse
2,1,1,0,44,5,5,1,792,326,350,142,0,500,200,8000,"[(512, 384), (512, 384), (512, 384), (512, 384), (512, 384), (512, 384), (512, 384), (512, 384), (512, 384), (512, 384), (512, 384), (512, 384), (512, 384), (512, 384), (512, 384), (512, 384), (512, 384), (512, 384), (512, 384), (512, 384), (512, 384), (512, 384), (512, 384), (512, 384), (512, 384), (512, 384), (512, 384), (512, 384), (512, 384), (512, 384), (512, 384), (512, 384), (512, 384), (512, 384), (512, 384), (512, 384), (512, 384), (512, 384), (512, 384), (512, 384), (512, 384), (512, 384), (512, 384), (512, 384), (509, 385), (508, 385), (506, 384), (505, 384), (504, 384), (502, 384), (498, 381), (494, 377), (477, 364), (461, 352), (444, 341), (430, 331), (410, 316), (402, 309), (395, 304), (390, 299), (387, 291), (386, 289), (386, 282), (386, 278), (386, 270), (386, 264), (387, 259), (390, 250), (398, 235), (401, 228), (405, 220), (408, 212), (415, 196), (418, 187), (421, 180), (424, 171), (431, 158), (434, 153), (436, 149), (439, 144)]",253.08198714792192,"[7, 8, 3, 9, 6, 2, 5, 4, 1]","(0, 0.25)",CHN006A,CHN,A,Chinese,Mon Oct  8 18:03:45 2018,Mouse
2,1,1,0,45,1,1,1,802,442,550,141,0,500,200,8000,"[(512, 384), (512, 384), (512, 384), (512, 384), (512, 384), (512, 384), (512, 384), (512, 384), (512, 384), (512, 384), (512, 384), (512, 384), (512, 384), (512, 384), (512, 384), (512, 384), (512, 384), (512, 384), (512, 384), (512, 384), (512, 384), (512, 384), (512, 384), (512, 384), (512, 384), (512, 385), (514, 386), (515, 386), (517, 386), (518, 386), (518, 386), (518, 386), (518, 386), (518, 386), (518, 386), (518, 386), (518, 386), (518, 386), (518, 386), (518, 386), (518, 386), (518, 386), (518, 386), (518, 386), (518, 386), (518, 386), (518, 386), (518, 386), (518, 386), (518, 386), (518, 386), (518, 386), (518, 386), (518, 386), (518, 386), (518, 386), (518, 386), (518, 386), (518, 386), (518, 386), (518, 386), (522, 386), (524, 386), (524, 385), (524, 384), (528, 383), (533, 382), (541, 379), (548, 378), (563, 373), (575, 369), (590, 366), (607, 362), (646, 351), (666, 345), (679, 342), (694, 337), (720, 331), (734, 327), (749, 325), (761, 324)]",346.4520610119995,"[7, 8, 3, 9, 6, 2, 5, 4, 1]","(0, 0.25)",CHN006A,CHN,A,Chinese,Mon Oct  8 18:03:45 2018,Mouse
2,1,1,0,46,2,2,1,1493,252,720,140,0,500,200,8000,"[(512, 384), (512, 384), (512, 384), (512, 384), (512, 384), (512, 384), (512, 384), (512, 384), (512, 384), (512, 384), (512, 384), (512, 384), (512, 384), (512, 384), (512, 384), (512, 384), (512, 384), (512, 384), (512, 384), (512, 384), (512, 384), (512, 384), (512, 384), (512, 384), (512, 384), (512, 384), (512, 384), (512, 384), (512, 384), (512, 384), (512, 384), (512, 384), (512, 384), (512, 384), (512, 384), (512, 384), (512, 384), (512, 384), (512, 384), (512, 384), (512, 384), (512, 384), (512, 384), (512, 384), (512, 384), (512, 384), (512, 384), (512, 384), (512, 384), (512, 384), (512, 384), (512, 384), (512, 384), (512, 384), (512, 384), (512, 384), (512, 384), (512, 384), (512, 384), (512, 384), (512, 384), (512, 384), (512, 384), (512, 384), (512, 384), (512, 384), (512, 384), (512, 384), (512, 384), (512, 384), (512, 384), (512, 384), (512, 384), (512, 384), (512, 384), (512, 384), (512, 384), (515, 384), (518, 384), (518, 384), (519, 384), (519, 384), (519, 384), (519, 384), (519, 384), (519, 384), (519, 384), (519, 384), (519, 384), (519, 384), (519, 384), (519, 384), (519, 384), (519, 384), (519, 384), (519, 384), (519, 384), (519, 384), (519, 384), (519, 384), (519, 384), (522, 383), (522, 382), (522, 382), (522, 381), (522, 378), (522, 377), (522, 375), (522, 374), (520, 370), (517, 367), (513, 361), (508, 355), (497, 341), (492, 336), (486, 331), (480, 325), (466, 316), (463, 313), (455, 309), (450, 306), (444, 304), (441, 302), (439, 301), (439, 301), (436, 300), (436, 300), (434, 298), (433, 298), (431, 298), (430, 298), (430, 298), (430, 298), (430, 298), (430, 298), (430, 298), (430, 298), (430, 298), (430, 298), (430, 298), (430, 298), (429, 297), (429, 297), (429, 295), (423, 291), (398, 276), (377, 267), (347, 250), (320, 234), (265, 202)]",216.38435181583588,"[7, 8, 3, 9, 6, 2, 5, 4, 1]","(0, 0.25)",CHN006A,CHN,A,Chinese,Mon Oct  8 18:03:45 2018,Mouse
2,1,1,0,47,3,3,1,922,773,490,139,0,500,200,8000,"[(512, 384), (512, 384), (512, 384), (512, 384), (512, 384), (512, 384), (512, 384), (512, 384), (512, 384), (512, 384), (512, 384), (512, 384), (512, 384), (512, 384), (512, 384), (512, 384), (512, 384), (512, 384), (512, 384), (512, 384), (512, 384), (512, 384), (512, 384), (512, 384), (512, 384), (512, 384), (512, 384), (512, 384), (512, 384), (512, 384), (512, 384), (512, 384), (512, 384), (512, 384), (512, 384), (512, 384), (512, 384), (512, 384), (512, 384), (512, 384), (512, 384), (512, 384), (512, 384), (512, 383), (512, 383), (512, 383), (512, 383), (512, 383), (512, 383), (512, 383), (512, 383), (512, 383), (512, 383), (512, 383), (512, 383), (512, 383), (512, 383), (512, 383), (512, 383), (512, 383), (511, 382), (511, 382), (511, 382), (511, 382), (511, 382), (511, 382), (511, 382), (511, 382), (511, 382), (511, 382), (511, 383), (511, 387), (512, 401), (512, 408), (512, 419), (512, 429), (509, 452), (508, 464), (508, 477), (508, 490), (508, 520), (508, 534), (507, 549), (504, 557), (498, 578), (496, 588), (492, 597), (491, 603), (486, 612), (485, 615), (484, 618), (483, 621), (477, 632)]",98.03304579055936,"[7, 8, 3, 9, 6, 2, 5, 4, 1]","(0, 0.25)",CHN006A,CHN,A,Chinese,Mon Oct  8 18:03:45 2018,Mouse
2,1,1,0,48,8,8,1,1225,432,920,138,0,500,200,8000,"[(512, 384), (512, 384), (512, 384), (512, 384), (512, 384), (512, 384), (512, 384), (512, 384), (512, 384), (512, 384), (512, 384), (512, 384), (512, 384), (512, 384), (512, 384), (512, 384), (512, 384), (512, 384), (512, 384), (512, 384), (512, 384), (512, 384), (512, 384), (512, 384), (512, 384), (512, 384), (512, 384), (512, 384), (512, 384), (512, 384), (512, 383), (512, 382), (512, 382), (512, 382), (512, 382), (512, 382), (512, 382), (512, 382), (512, 382), (512, 382), (512, 382), (512, 382), (512, 382), (512, 382), (512, 382), (512, 382), (512, 382), (512, 382), (512, 382), (512, 382), (512, 382), (512, 382), (512, 382), (512, 382), (512, 382), (514, 382), (514, 382), (514, 382), (514, 382), (514, 382), (514, 382), (514, 382), (513, 382), (513, 384), (513, 384), (513, 384), (513, 384), (513, 384), (513, 384), (513, 384), (513, 384), (513, 384), (513, 384), (513, 384), (513, 384), (513, 384), (513, 384), (513, 384), (513, 384), (513, 384), (513, 384), (513, 384), (513, 384), (513, 384), (513, 384), (513, 384), (513, 384), (513, 384), (513, 384), (513, 384), (513, 384), (513, 384), (513, 384), (513, 384), (513, 384), (513, 384), (513, 384), (513, 384), (513, 384), (513, 384), (513, 384), (513, 384), (513, 384), (513, 384), (513, 384), (513, 384), (513, 384), (513, 384), (513, 384), (513, 384), (513, 384), (513, 384), (513, 384), (517, 391), (528, 410), (556, 462), (574, 492), (588, 516), (601, 538), (619, 573), (627, 586), (634, 598), (640, 608)]",60.25511870305778,"[7, 8, 3, 9, 6, 2, 5, 4, 1]","(0, 0.25)",CHN006A,CHN,A,Chinese,Mon Oct  8 18:03:45 2018,Mouse
2,1,1,0,49,2,2,1,763,305,660,137,0,500,200,8000,"[(512, 384), (512, 384), (512, 384), (512, 384), (512, 384), (512, 384), (512, 384), (512, 384), (512, 384), (512, 384), (512, 383), (512, 383), (514, 383), (517, 383), (521, 383), (526, 381), (527, 378), (527, 378), (527, 378), (527, 378), (527, 378), (527, 378), (527, 378), (527, 378), (527, 378), (527, 378), (527, 378), (527, 378), (527, 378), (527, 378), (527, 378), (527, 378), (527, 378), (527, 378), (527, 378), (527, 378), (527, 378), (527, 378), (527, 378), (527, 378), (527, 378), (527, 378), (529, 378), (530, 378), (530, 378), (530, 378), (530, 378), (530, 378), (530, 378), (530, 378), (530, 378), (530, 378), (531, 378), (531, 378), (531, 378), (531, 378), (531, 378), (531, 379), (531, 379), (531, 379), (531, 379), (531, 379), (531, 379), (531, 379), (531, 379), (531, 379), (531, 379), (531, 379), (526, 373), (517, 366), (500, 355), (476, 343), (435, 312), (406, 286), (383, 268), (357, 245), (293, 204)]",219.41739424346892,"[7, 8, 3, 9, 6, 2, 5, 4, 1]","(0, 0.25)",CHN006A,CHN,A,Chinese,Mon Oct  8 18:03:45 2018,Mouse
2,1,1,0,50,8,6,0,-1462,103,1220,136,0,500,200,8000,"[(512, 384), (512, 384), (512, 384), (512, 384), (512, 384), (512, 384), (512, 384), (512, 384), (512, 384), (512, 384), (512, 384), (512, 384), (512, 384), (512, 384), (512, 384), (512, 384), (512, 384), (512, 384), (512, 384), (512, 384), (512, 384), (512, 384), (512, 384), (512, 384), (513, 384), (513, 384), (513, 384), (514, 384), (514, 384), (516, 384), (516, 384), (516, 384), (521, 380), (524, 379), (524, 379), (524, 379), (524, 379), (524, 379), (524, 379), (524, 379), (524, 379), (524, 379), (524, 379), (524, 379), (524, 379), (524, 379), (524, 379), (524, 379), (524, 379), (524, 379), (524, 379), (524, 379), (524, 379), (524, 379), (524, 379), (524, 379), (524, 379), (524, 379), (524, 379), (524, 379), (524, 379), (524, 379), (524, 379), (524, 379), (524, 379), (521, 379), (521, 378), (519, 378), (514, 378), (510, 378), (505, 378), (495, 378), (470, 382), (458, 383), (444, 384), (430, 387), (400, 390), (388, 390), (379, 390), (371, 391), (361, 391), (357, 391), (356, 391), (354, 391), (350, 391), (348, 391), (346, 391), (342, 391), (329, 391), (322, 391), (316, 391), (310, 391), (299, 391), (295, 391), (288, 391), (286, 391), (279, 391), (279, 391), (279, 391), (278, 391), (278, 391), (278, 391), (278, 391), (278, 391), (278, 391), (278, 391), (278, 391), (278, 391), (278, 391), (278, 391), (278, 391), (278, 391), (278, 391), (278, 391), (278, 391), (278, 391), (278, 391), (278, 391), (278, 391), (278, 391), (278, 391), (278, 391), (278, 391), (278, 391), (278, 391), (278, 391), (278, 391), (278, 391), (278, 391), (278, 391), (278, 391), (278, 391), (278, 391), (278, 391), (278, 391), (278, 391), (278, 391), (278, 391), (278, 391), (278, 391), (278, 391), (278, 391), (278, 391), (278, 391), (278, 391), (272, 394), (262, 400)]",176.33806442448022,"[7, 8, 3, 9, 6, 2, 5, 4, 1]","(0, 0.25)",CHN006A,CHN,A,Chinese,Mon Oct  8 18:03:45 2018,Mouse
2,1,1,0,51,8,7,0,-1063,242,670,137,0,500,200,8000,"[(512, 384), (512, 384), (512, 384), (512, 384), (512, 384), (512, 384), (512, 384), (512, 384), (512, 384), (512, 384), (512, 384), (512, 384), (512, 384), (512, 384), (512, 384), (512, 384), (512, 384), (512, 384), (512, 384), (512, 384), (512, 384), (512, 384), (512, 384), (512, 384), (512, 384), (512, 384), (512, 384), (512, 384), (512, 384), (512, 384), (512, 384), (512, 384), (512, 384), (512, 384), (512, 384), (512, 384), (512, 384), (512, 384), (512, 384), (513, 384), (513, 384), (513, 384), (513, 384), (513, 384), (513, 384), (513, 384), (513, 384), (513, 384), (513, 384), (513, 384), (513, 384), (513, 384), (513, 384), (513, 384), (513, 384), (513, 384), (513, 384), (513, 384), (513, 384), (513, 384), (513, 384), (513, 384), (513, 384), (513, 384), (513, 384), (513, 384), (513, 384), (513, 384), (513, 384), (513, 384), (513, 384), (513, 384), (513, 384), (513, 384), (513, 384), (513, 384), (513, 384), (513, 384), (513, 384), (513, 384), (513, 384), (513, 384), (513, 384), (513, 384), (513, 384), (513, 384), (512, 386), (512, 386), (512, 386), (512, 386), (512, 386), (512, 386), (512, 386), (512, 386), (512, 386), (512, 386), (512, 386), (512, 388), (525, 395), (533, 398), (546, 402), (561, 411), (607, 437), (642, 453), (672, 471), (711, 484), (769, 510)]",26.117437006217436,"[7, 8, 3, 9, 6, 2, 5, 4, 1]","(0, 0.25)",CHN006A,CHN,A,Chinese,Mon Oct  8 18:03:45 2018,Mouse
2,1,1,0,52,5,3,0,-561,393,430,138,0,500,200,8000,"[(512, 384), (512, 384), (512, 384), (512, 384), (512, 384), (512, 384), (512, 384), (512, 384), (512, 384), (512, 384), (512, 384), (512, 384), (512, 384), (512, 383), (512, 383), (512, 383), (512, 382), (512, 382), (512, 382), (512, 382), (512, 382), (512, 382), (512, 382), (512, 382), (512, 382), (512, 382), (512, 382), (512, 382), (512, 382), (512, 382), (512, 382), (512, 382), (512, 382), (512, 382), (512, 382), (512, 382), (512, 382), (512, 382), (512, 382), (512, 382), (512, 384), (509, 389), (508, 393), (506, 402), (494, 432), (488, 451), (481, 474), (474, 501), (460, 539), (452, 557), (447, 569), (445, 580), (440, 596), (440, 601), (438, 610), (438, 617), (438, 629)]",106.80645926512668,"[7, 8, 3, 9, 6, 2, 5, 4, 1]","(0, 0.25)",CHN006A,CHN,A,Chinese,Mon Oct  8 18:03:45 2018,Mouse
2,1,1,0,53,8,8,1,962,131,680,139,0,500,200,8000,"[(512, 384), (512, 384), (512, 384), (512, 384), (512, 384), (512, 384), (512, 384), (512, 384), (512, 384), (512, 384), (512, 384), (512, 384), (512, 384), (512, 384), (512, 384), (512, 384), (512, 384), (512, 384), (512, 384), (512, 384), (512, 384), (512, 384), (512, 384), (512, 384), (512, 384), (512, 384), (512, 384), (512, 384), (514, 384), (516, 384), (518, 384), (518, 384), (518, 384), (518, 384), (518, 384), (518, 384), (518, 384), (518, 384), (518, 384), (518, 384), (518, 384), (518, 384), (518, 384), (518, 384), (518, 384), (518, 384), (518, 384), (518, 384), (518, 384), (518, 384), (518, 384), (518, 384), (518, 384), (518, 384), (518, 384), (518, 384), (518, 384), (518, 384), (518, 384), (518, 384), (518, 384), (518, 384), (518, 384), (518, 384), (518, 384), (518, 384), (518, 384), (518, 384), (518, 384), (518, 384), (518, 384), (518, 384), (518, 384), (518, 384), (518, 384), (518, 384), (518, 384), (518, 384), (520, 386), (522, 387), (527, 394), (527, 395), (531, 401), (533, 404), (538, 419), (542, 429), (547, 439), (552, 452), (571, 488), (581, 502), (590, 523), (602, 538), (626, 566), (636, 578), (644, 587), (649, 593), (655, 600)]",56.49396539417943,"[7, 8, 3, 9, 6, 2, 5, 4, 1]","(0, 0.25)",CHN006A,CHN,A,Chinese,Mon Oct  8 18:03:45 2018,Mouse
2,1,1,0,54,5,5,1,841,282,720,139,0,500,200,8000,"[(512, 384), (512, 384), (512, 384), (512, 384), (512, 384), (512, 384), (512, 384), (512, 384), (512, 384), (512, 384), (512, 384), (512, 384), (512, 383), (514, 383), (516, 383), (517, 382), (517, 378), (517, 378), (517, 378), (517, 378), (517, 378), (517, 378), (517, 378), (517, 378), (517, 378), (517, 378), (517, 378), (517, 378), (517, 378), (517, 378), (517, 378), (517, 378), (517, 378), (517, 378), (517, 378), (517, 378), (517, 378), (516, 378), (512, 379), (511, 379), (509, 379), (509, 379), (507, 380), (507, 380), (506, 381), (506, 381), (506, 381), (506, 381), (506, 381), (506, 381), (506, 381), (506, 381), (506, 381), (506, 381), (506, 381), (506, 381), (506, 381), (506, 381), (506, 381), (506, 381), (506, 381), (506, 381), (506, 381), (506, 381), (506, 381), (506, 381), (506, 381), (506, 381), (506, 381), (506, 381), (506, 381), (506, 381), (506, 381), (506, 381), (505, 375), (501, 367), (497, 345), (495, 328), (493, 307), (488, 283), (480, 238), (473, 215), (466, 188), (459, 165), (448, 131)]",255.8040103488475,"[7, 8, 3, 9, 6, 2, 5, 4, 1]","(0, 0.25)",CHN006A,CHN,A,Chinese,Mon Oct  8 18:03:45 2018,Mouse
2,1,1,0,55,4,7,0,-1366,121,1130,138,0,500,200,8000,"[(512, 384), (512, 384), (512, 384), (512, 384), (512, 384), (512, 384), (512, 384), (512, 384), (512, 384), (512, 384), (512, 384), (512, 384), (512, 384), (512, 384), (512, 384), (512, 384), (512, 384), (512, 384), (512, 384), (512, 384), (512, 384), (512, 384), (512, 384), (514, 384), (514, 384), (514, 384), (514, 384), (514, 384), (514, 384), (514, 384), (514, 384), (517, 384), (519, 384), (519, 384), (519, 384), (519, 384), (519, 384), (519, 384), (519, 384), (519, 384), (519, 384), (522, 384), (522, 384), (522, 384), (522, 384), (522, 384), (522, 384), (522, 384), (522, 384), (522, 384), (522, 384), (522, 384), (522, 384), (522, 384), (522, 384), (522, 384), (522, 384), (522, 384), (522, 384), (522, 384), (522, 384), (522, 384), (522, 384), (522, 384), (522, 384), (522, 384), (522, 384), (522, 384), (522, 384), (522, 384), (522, 384), (522, 384), (522, 384), (522, 384), (522, 384), (522, 384), (522, 384), (522, 384), (522, 384), (522, 384), (522, 384), (522, 384), (522, 384), (510, 374), (500, 370), (485, 362), (467, 352), (434, 339), (424, 333), (414, 328), (405, 322), (391, 313), (385, 307), (380, 304), (374, 299), (369, 295), (367, 293), (366, 293), (366, 292), (366, 292), (366, 292), (366, 292), (366, 292), (366, 292), (366, 292), (366, 292), (366, 292), (366, 291), (372, 292), (382, 297), (394, 299), (426, 306), (448, 310), (470, 316), (486, 319), (508, 325), (514, 327), (517, 329), (519, 330), (519, 330), (519, 330), (519, 330), (519, 330), (519, 334), (518, 338), (517, 343), (517, 350), (517, 362), (518, 370), (523, 378), (531, 383), (557, 396), (578, 401), (609, 409), (644, 416), (724, 437), (757, 444)]",13.76078511179124,"[7, 8, 3, 9, 6, 2, 5, 4, 1]","(0, 0.25)",CHN006A,CHN,A,Chinese,Mon Oct  8 18:03:45 2018,Mouse
2,1,1,0,56,6,6,1,1013,236,450,139,0,500,200,8000,"[(512, 384), (512, 384), (512, 384), (512, 384), (512, 384), (512, 384), (512, 384), (512, 384), (512, 384), (512, 384), (512, 384), (512, 384), (512, 384), (512, 384), (512, 384), (512, 384), (512, 384), (512, 384), (512, 384), (512, 384), (512, 384), (512, 384), (512, 384), (512, 384), (512, 384), (512, 384), (512, 384), (512, 384), (512, 384), (512, 384), (512, 384), (512, 384), (512, 384), (512, 384), (512, 384), (512, 384), (512, 384), (512, 384), (512, 384), (512, 384), (512, 384), (512, 384), (512, 384), (512, 384), (512, 384), (512, 384), (512, 384), (512, 384), (512, 384), (512, 384), (512, 384), (512, 384), (512, 384), (512, 384), (512, 384), (512, 384), (513, 385), (513, 385), (513, 385), (513, 385), (513, 385), (513, 385), (513, 385), (513, 385), (513, 385), (513, 385), (513, 385), (513, 385), (513, 385), (513, 385), (513, 386), (513, 386), (513, 386), (513, 386), (512, 386), (512, 386), (512, 386), (512, 386), (512, 386), (512, 386), (512, 386), (512, 386), (512, 386), (512, 387), (508, 388), (502, 391), (495, 392), (478, 394), (468, 394), (457, 394), (442, 394), (416, 394), (404, 394), (392, 394), (378, 397), (355, 398), (336, 399), (320, 401), (305, 403), (278, 404), (263, 404), (248, 404)]",175.6676860168115,"[7, 8, 3, 9, 6, 2, 5, 4, 1]","(0, 0.25)",CHN006A,CHN,A,Chinese,Mon Oct  8 18:03:45 2018,Mouse
2,1,1,0,57,5,5,1,892,563,320,139,0,500,200,8000,"[(512, 384), (512, 384), (512, 384), (512, 384), (512, 384), (512, 384), (512, 384), (512, 384), (512, 384), (512, 384), (512, 384), (512, 384), (512, 384), (512, 384), (512, 384), (512, 384), (512, 384), (512, 384), (512, 384), (512, 384), (512, 384), (512, 384), (512, 384), (512, 384), (512, 384), (512, 384), (512, 384), (512, 384), (512, 384), (512, 384), (512, 384), (512, 384), (512, 384), (512, 384), (512, 384), (512, 384), (512, 384), (512, 384), (512, 384), (512, 384), (512, 384), (512, 384), (512, 384), (512, 384), (512, 384), (512, 384), (512, 384), (512, 384), (512, 384), (512, 384), (512, 384), (512, 384), (512, 384), (512, 384), (512, 384), (512, 384), (512, 384), (513, 384), (517, 393), (517, 394), (517, 394), (517, 396), (517, 397), (517, 397), (517, 397), (517, 397), (517, 398), (517, 398), (517, 398), (517, 396), (513, 382), (511, 375), (506, 363), (505, 351), (501, 325), (498, 310), (496, 296), (495, 279), (492, 252), (489, 238), (488, 226), (487, 213), (482, 188), (479, 176), (478, 166), (477, 159), (473, 146), (472, 143), (472, 139), (471, 134)]",260.68640109069497,"[7, 8, 3, 9, 6, 2, 5, 4, 1]","(0, 0.25)",CHN006A,CHN,A,Chinese,Mon Oct  8 18:03:45 2018,Mouse
2,1,1,0,58,8,8,1,1164,572,150,138,0,500,200,8000,"[(512, 384), (512, 384), (512, 384), (512, 384), (512, 384), (512, 384), (512, 384), (512, 384), (512, 384), (512, 384), (512, 384), (512, 384), (512, 384), (512, 384), (512, 384), (512, 384), (512, 384), (512, 384), (512, 384), (512, 384), (512, 384), (512, 384), (512, 384), (512, 384), (512, 384), (512, 384), (512, 384), (512, 384), (512, 384), (512, 384), (512, 384), (512, 384), (512, 384), (512, 384), (512, 384), (512, 384), (512, 384), (512, 384), (512, 384), (512, 384), (512, 384), (512, 384), (512, 384), (512, 384), (512, 384), (512, 384), (512, 384), (512, 384), (512, 384), (512, 384), (512, 384), (512, 384), (512, 384), (512, 384), (512, 384), (512, 384), (512, 384), (512, 384), (512, 384), (512, 384), (512, 384), (512, 384), (512, 384), (512, 384), (512, 384), (512, 384), (512, 384), (512, 384), (512, 384), (512, 384), (512, 384), (512, 384), (512, 384), (512, 384), (512, 384), (512, 384), (512, 384), (512, 384), (512, 384), (512, 384), (512, 384), (512, 384), (512, 384), (512, 384), (512, 384), (512, 384), (512, 384), (512, 384), (512, 384), (512, 384), (512, 384), (512, 384), (512, 384), (512, 384), (512, 384), (512, 384), (512, 384), (512, 384), (512, 384), (512, 384), (512, 384), (513, 390), (518, 399), (525, 410), (538, 428), (541, 435), (546, 444), (550, 454), (562, 474), (567, 487), (575, 500), (580, 512), (598, 547), (605, 561), (611, 573), (618, 585), (629, 606)]",62.209557520547904,"[7, 8, 3, 9, 6, 2, 5, 4, 1]","(0, 0.25)",CHN006A,CHN,A,Chinese,Mon Oct  8 18:03:45 2018,Mouse
2,1,1,0,59,5,5,1,1271,1014,1049,137,0,500,200,8000,"[(512, 384), (512, 384), (512, 384), (512, 384), (512, 384), (512, 384), (512, 384), (512, 384), (512, 384), (512, 384), (512, 384), (512, 384), (512, 384), (512, 384), (512, 384), (512, 384), (512, 384), (512, 384), (512, 384), (512, 384), (512, 384), (512, 384), (512, 383), (512, 383), (512, 383), (512, 383), (512, 383), (512, 383), (512, 383), (512, 383), (512, 383), (512, 383), (512, 383), (512, 383), (512, 383), (512, 383), (512, 383), (512, 383), (512, 383), (512, 383), (512, 383), (512, 383), (512, 383), (512, 383), (512, 383), (512, 383), (512, 383), (512, 383), (512, 383), (512, 383), (512, 383), (512, 383), (513, 383), (513, 383), (513, 383), (513, 383), (513, 383), (513, 383), (513, 383), (513, 383), (513, 383), (513, 383), (513, 383), (512, 386), (510, 389), (506, 393), (501, 399), (496, 404), (488, 410), (483, 413), (483, 413), (480, 414), (480, 414), (480, 414), (480, 414), (480, 414), (480, 414), (480, 414), (480, 414), (480, 414), (480, 414), (480, 414), (480, 414), (480, 414), (480, 414), (480, 414), (480, 414), (480, 414), (479, 414), (479, 412), (479, 408), (479, 404), (479, 395), (477, 391), (475, 387), (474, 385), (472, 382), (472, 382), (471, 382), (471, 382), (471, 382), (471, 382), (471, 382), (471, 382), (471, 382), (471, 382), (471, 382), (471, 382), (471, 382), (471, 382), (471, 382), (471, 382), (470, 378), (468, 373), (466, 367), (461, 358), (451, 333), (449, 320), (447, 303), (447, 284), (447, 244), (447, 228), (447, 211), (447, 197), (447, 170), (447, 158), (447, 147), (447, 136)]",255.31331205006296,"[7, 8, 3, 9, 6, 2, 5, 4, 1]","(0, 0.25)",CHN006A,CHN,A,Chinese,Mon Oct  8 18:03:45 2018,Mouse
2,1,1,0,60,6,9,0,-934,222,440,136,0,500,200,8000,"[(512, 384), (512, 384), (512, 384), (512, 384), (512, 384), (512, 384), (512, 384), (512, 384), (512, 384), (512, 384), (512, 384), (512, 384), (512, 384), (512, 384), (512, 384), (512, 384), (512, 384), (512, 384), (512, 384), (512, 384), (512, 384), (512, 384), (512, 384), (512, 384), (512, 384), (512, 384), (512, 384), (512, 384), (512, 384), (512, 384), (512, 384), (512, 384), (512, 384), (512, 384), (512, 384), (512, 384), (512, 384), (512, 384), (512, 384), (512, 384), (512, 384), (512, 384), (512, 384), (512, 384), (512, 384), (512, 384), (512, 384), (512, 384), (512, 384), (514, 385), (518, 385), (522, 385), (526, 385), (527, 385), (527, 385), (527, 385), (529, 385), (529, 385), (529, 385), (530, 385), (530, 385), (530, 385), (530, 385), (530, 385), (530, 385), (530, 385), (530, 385), (530, 385), (530, 385), (530, 385), (530, 385), (530, 385), (530, 385), (530, 385), (530, 385), (530, 385), (530, 385), (530, 385), (530, 385), (529, 387), (525, 383), (521, 384), (513, 389), (497, 400), (456, 426), (441, 438), (429, 450), (416, 463), (395, 492), (382, 512), (371, 526), (358, 544), (346, 564), (341, 573)]",132.13759477388825,"[7, 8, 3, 9, 6, 2, 5, 4, 1]","(0, 0.25)",CHN006A,CHN,A,Chinese,Mon Oct  8 18:03:45 2018,Mouse
2,1,1,0,61,3,3,1,712,494,580,137,0,500,200,8000,"[(512, 384), (512, 384), (512, 384), (512, 384), (512, 384), (512, 384), (512, 384), (512, 384), (512, 384), (512, 384), (512, 384), (512, 384), (512, 384), (513, 384), (513, 384), (513, 384), (513, 384), (513, 384), (513, 384), (513, 384), (513, 384), (513, 384), (513, 384), (513, 384), (513, 384), (513, 384), (513, 384), (513, 384), (513, 384), (513, 384), (513, 384), (513, 384), (513, 384), (513, 384), (513, 384), (514, 384), (514, 384), (514, 384), (514, 384), (514, 384), (513, 384), (512, 384), (512, 385), (511, 385), (511, 386), (510, 386), (510, 386), (508, 389), (508, 389), (505, 390), (505, 390), (505, 392), (504, 392), (504, 392), (502, 394), (498, 398), (497, 400), (495, 402), (492, 406), (488, 416), (487, 422), (485, 428), (482, 438), (480, 460), (478, 471), (476, 482), (475, 494), (470, 523), (468, 538), (465, 559), (464, 585), (461, 631)]",101.66635574267768,"[7, 8, 3, 9, 6, 2, 5, 4, 1]","(0, 0.25)",CHN006A,CHN,A,Chinese,Mon Oct  8 18:03:45 2018,Mouse
2,1,1,0,62,7,7,1,963,132,920,137,0,500,200,8000,"[(512, 384), (512, 384), (512, 384), (512, 384), (516, 383), (518, 383), (519, 383), (521, 383), (521, 383), (521, 383), (521, 383), (521, 383), (521, 383), (521, 383), (521, 383), (521, 383), (521, 383), (521, 383), (521, 383), (521, 383), (521, 383), (521, 383), (521, 383), (521, 383), (521, 383), (521, 383), (521, 383), (521, 383), (521, 383), (521, 383), (521, 383), (521, 383), (521, 383), (521, 383), (521, 383), (521, 383), (521, 383), (521, 383), (521, 383), (521, 383), (521, 383), (521, 383), (521, 383), (521, 383), (521, 383), (521, 383), (521, 383), (521, 383), (521, 383), (521, 383), (521, 383), (521, 383), (520, 383), (520, 383), (520, 383), (520, 383), (520, 383), (520, 383), (520, 383), (520, 383), (520, 383), (520, 383), (520, 383), (520, 383), (520, 383), (520, 383), (520, 383), (520, 383), (520, 383), (520, 383), (520, 383), (520, 383), (520, 383), (520, 383), (520, 383), (520, 383), (520, 383), (520, 383), (520, 383), (520, 383), (520, 383), (520, 383), (520, 383), (520, 383), (520, 383), (520, 383), (520, 383), (520, 383), (540, 390), (555, 395), (580, 403), (603, 411), (659, 436), (685, 449), (712, 465), (737, 479), (767, 496)]",23.711834593259866,"[7, 8, 3, 9, 6, 2, 5, 4, 1]","(0, 0.25)",CHN006A,CHN,A,Chinese,Mon Oct  8 18:03:45 2018,Mouse
2,1,1,0,63,1,5,0,-1092,43,730,136,0,500,200,8000,"[(512, 384), (512, 384), (512, 384), (512, 384), (512, 384), (512, 384), (512, 384), (512, 384), (512, 384), (512, 384), (512, 384), (512, 384), (512, 384), (512, 384), (512, 384), (512, 384), (512, 384), (512, 384), (512, 384), (512, 384), (512, 384), (512, 384), (512, 384), (512, 384), (512, 384), (512, 384), (512, 384), (512, 384), (512, 384), (512, 384), (512, 384), (512, 384), (512, 384), (512, 384), (512, 384), (512, 384), (512, 383), (516, 382), (520, 382), (525, 382), (528, 379), (528, 378), (528, 378), (528, 378), (528, 378), (528, 378), (528, 378), (528, 378), (528, 378), (528, 378), (528, 378), (528, 378), (528, 378), (528, 378), (528, 378), (528, 378), (528, 378), (528, 378), (528, 378), (528, 378), (528, 378), (528, 378), (528, 378), (528, 382), (527, 385), (527, 385), (525, 385), (525, 385), (525, 385), (523, 385), (523, 385), (522, 385), (520, 385), (519, 385), (519, 385), (517, 385), (513, 385), (508, 383), (501, 379), (493, 377), (477, 370), (471, 367), (469, 364), (467, 363), (462, 359), (462, 359), (462, 359), (462, 359), (462, 359), (462, 359), (462, 359), (462, 359), (462, 359), (462, 359), (462, 359), (461, 357), (459, 351), (457, 347), (455, 343), (453, 338), (448, 325), (445, 315), (445, 305), (445, 292), (452, 257), (452, 232), (455, 208), (459, 186), (465, 144), (465, 130)]",259.5166007797357,"[7, 8, 3, 9, 6, 2, 5, 4, 1]","(0, 0.25)",CHN006A,CHN,A,Chinese,Mon Oct  8 18:03:45 2018,Mouse
2,1,1,0,64,1,8,0,-936,362,920,137,0,500,200,8000,"[(513, 384), (514, 384), (514, 384), (514, 384), (515, 384), (515, 384), (515, 384), (515, 384), (515, 384), (515, 384), (515, 384), (515, 384), (515, 384), (515, 384), (515, 384), (515, 384), (515, 384), (515, 384), (515, 384), (515, 384), (515, 384), (515, 384), (515, 384), (515, 384), (515, 384), (515, 384), (515, 384), (515, 384), (515, 384), (515, 384), (515, 384), (515, 384), (515, 384), (515, 384), (516, 385), (516, 385), (516, 385), (516, 385), (516, 385), (516, 385), (516, 385), (516, 385), (516, 385), (516, 385), (516, 385), (516, 385), (516, 385), (516, 385), (516, 385), (516, 385), (516, 385), (516, 385), (516, 385), (516, 385), (516, 385), (516, 385), (516, 385), (516, 385), (516, 385), (516, 385), (516, 385), (516, 385), (516, 385), (516, 385), (516, 385), (516, 385), (516, 385), (516, 385), (516, 385), (516, 385), (516, 385), (516, 385), (516, 385), (516, 385), (516, 385), (516, 385), (516, 385), (516, 385), (516, 385), (516, 385), (517, 385), (518, 389), (522, 398), (526, 407), (531, 417), (535, 428), (549, 458), (554, 474), (560, 491), (569, 510), (587, 556), (600, 580), (610, 606), (622, 628)]",65.73321156746682,"[7, 8, 3, 9, 6, 2, 5, 4, 1]","(0, 0.25)",CHN006A,CHN,A,Chinese,Mon Oct  8 18:03:45 2018,Mouse
2,1,1,0,65,4,7,0,-601,16,70,138,0,500,200,8000,"[(512, 384), (512, 384), (512, 384), (512, 384), (512, 384), (512, 384), (512, 384), (512, 384), (512, 384), (512, 384), (512, 384), (512, 384), (512, 384), (512, 384), (512, 384), (512, 384), (512, 384), (512, 384), (512, 384), (512, 384), (512, 384), (512, 384), (512, 384), (512, 384), (512, 384), (512, 384), (512, 384), (512, 384), (512, 384), (512, 384), (512, 384), (512, 384), (512, 384), (512, 384), (512, 384), (512, 384), (512, 384), (512, 384), (512, 384), (512, 384), (512, 384), (512, 384), (512, 384), (512, 384), (512, 384), (512, 384), (512, 384), (512, 384), (512, 384), (512, 384), (512, 384), (512, 384), (512, 384), (536, 390), (553, 397), (570, 400), (595, 407), (664, 424), (705, 434), (741, 444), (779, 454)]",14.690736206120631,"[7, 8, 3, 9, 6, 2, 5, 4, 1]","(0, 0.25)",CHN006A,CHN,A,Chinese,Mon Oct  8 18:03:45 2018,Mouse
2,1,1,0,66,4,3,0,-1222,531,600,139,0,500,200,8000,"[(512, 384), (512, 384), (512, 384), (512, 384), (512, 384), (512, 384), (512, 384), (512, 384), (512, 384), (512, 384), (512, 384), (512, 384), (512, 384), (512, 384), (512, 384), (512, 384), (512, 384), (512, 384), (512, 384), (512, 384), (512, 384), (512, 384), (512, 384), (512, 384), (512, 384), (512, 384), (512, 384), (512, 384), (512, 384), (512, 384), (512, 384), (512, 384), (512, 384), (512, 384), (512, 384), (512, 384), (512, 384), (512, 384), (512, 384), (512, 384), (512, 384), (512, 384), (512, 384), (512, 384), (512, 384), (512, 384), (512, 384), (512, 384), (512, 384), (512, 384), (512, 384), (512, 384), (512, 384), (512, 384), (512, 384), (512, 384), (512, 384), (512, 384), (512, 384), (512, 384), (512, 384), (512, 384), (510, 384), (508, 384), (508, 384), (508, 384), (508, 384), (508, 384), (508, 384), (508, 384), (508, 384), (508, 384), (508, 384), (508, 384), (508, 384), (508, 384), (508, 384), (508, 384), (508, 384), (508, 384), (508, 384), (508, 384), (508, 384), (508, 384), (508, 384), (508, 384), (508, 384), (508, 384), (508, 384), (508, 384), (508, 384), (508, 384), (508, 384), (508, 384), (508, 384), (508, 384), (508, 384), (508, 387), (508, 388), (508, 389), (508, 390), (508, 391), (508, 392), (508, 392), (508, 393), (506, 399), (505, 403), (503, 413), (500, 424), (497, 453), (495, 467), (495, 483), (495, 495), (492, 521), (489, 533), (488, 544), (487, 555), (483, 577), (481, 588), (480, 599), (478, 610), (473, 627), (472, 635)]",99.05466183324897,"[7, 8, 3, 9, 6, 2, 5, 4, 1]","(0, 0.25)",CHN006A,CHN,A,Chinese,Mon Oct  8 18:03:45 2018,Mouse
