NativeLangNumber,LanuageNumber,SessionNumber,Block,TrialNum,ConditionNumber,Response,Accuracy,RT,MovementOnsetTime,TimeInMotion,SignalContrast,SignalContrastNumber,StimDisplayTime,MaskTime,MaxResponseTime,MousePositionXY,MouseAngle,WheelOrder,NoiseMuSigma,ParticipantID,LanuageTested,SessionTested,NativeLanuage,Date,ResponseDevice
1,1,4,0,1,5,5,1,896,776,120,153,0,500,200,8000,"[(960, 540), (960, 540), (960, 540), (960, 540), (960, 540), (960, 540), (960, 540), (960, 540), (960, 540), (960, 540), (960, 540), (960, 540), (960, 540), (960, 540), (960, 540), (960, 540), (960, 540), (960, 540), (960, 540), (960, 540), (960, 540), (960, 540), (960, 540), (960, 540), (960, 540), (960, 540), (960, 540), (960, 540), (960, 540), (960, 540), (960, 540), (960, 540), (960, 540), (960, 540), (960, 540), (960, 540), (960, 540), (960, 540), (960, 540), (960, 540), (960, 540), (960, 540), (960, 540), (960, 540), (960, 540), (960, 540), (960, 540), (960, 540), (960, 540), (960, 540), (960, 540), (960, 540), (960, 540), (960, 540), (960, 540), (960, 540), (960, 540), (960, 540), (960, 540), (960, 540), (960, 540), (960, 540), (960, 540), (960, 540), (960, 540), (960, 540), (960, 540), (960, 540), (960, 540), (960, 540), (960, 540), (960, 540), (960, 540), (960, 540), (960, 540), (960, 540), (960, 540), (961, 540), (964, 542), (987, 552), (1008, 561), (1031, 569), (1064, 578), (1135, 605), (1166, 615), (1188, 621), (1219, 631), (1279, 652), (1313, 664), (1344, 678)]",19.767168676791652,"[5, 1, 9, 4, 7, 8, 2, 3, 6]","(0, 0.25)",CHN009D,CHN,D,English,Tue Sep 04 10:10:01 2018,Mouse
1,1,4,0,2,2,2,1,719,329,390,153,0,500,200,8000,"[(960, 540), (960, 540), (960, 540), (960, 540), (960, 540), (960, 540), (960, 540), (960, 540), (960, 540), (960, 540), (960, 540), (960, 540), (960, 540), (960, 540), (960, 540), (960, 540), (960, 540), (960, 540), (960, 540), (960, 540), (960, 540), (960, 540), (960, 540), (960, 540), (960, 540), (960, 540), (960, 540), (960, 540), (960, 540), (960, 540), (960, 540), (960, 540), (963, 540), (965, 539), (967, 536), (971, 532), (974, 527), (976, 525), (978, 522), (978, 519), (981, 514), (982, 509), (983, 501), (984, 494), (988, 467), (993, 443), (994, 429), (995, 412), (995, 378), (995, 363), (995, 349), (995, 336), (986, 301), (980, 288), (974, 276), (971, 266), (962, 246), (958, 237), (955, 227), (950, 216), (940, 197), (938, 187), (934, 179), (931, 172), (928, 165), (926, 162), (926, 158), (924, 155), (919, 149), (917, 147), (916, 146), (913, 142)]",263.2651067304965,"[5, 1, 9, 4, 7, 8, 2, 3, 6]","(0, 0.25)",CHN009D,CHN,D,English,Tue Sep 04 10:10:01 2018,Mouse
1,1,4,0,3,8,8,1,539,89,450,152,0,500,200,8000,"[(960, 540), (960, 540), (960, 540), (960, 540), (960, 540), (960, 540), (960, 540), (960, 540), (958, 540), (958, 540), (956, 540), (956, 540), (956, 540), (956, 540), (956, 540), (956, 540), (956, 540), (956, 540), (954, 538), (953, 538), (950, 537), (947, 536), (936, 531), (927, 527), (919, 524), (911, 520), (895, 512), (888, 508), (882, 503), (876, 498), (861, 484), (854, 475), (844, 465), (835, 453), (811, 429), (798, 418), (778, 402), (761, 389), (739, 374), (730, 367), (721, 359), (712, 351), (701, 339), (699, 335), (694, 329), (690, 322), (684, 314), (679, 308), (674, 302), (670, 298), (659, 290), (655, 286), (653, 284), (650, 280)]",219.98688624496418,"[5, 1, 9, 4, 7, 8, 2, 3, 6]","(0, 0.25)",CHN009D,CHN,D,English,Tue Sep 04 10:10:01 2018,Mouse
1,1,4,0,4,7,7,1,1040,600,440,151,0,500,200,8000,"[(960, 540), (960, 540), (960, 540), (960, 540), (960, 540), (960, 540), (960, 540), (960, 540), (960, 540), (960, 540), (960, 540), (960, 540), (960, 540), (960, 540), (960, 540), (960, 540), (960, 540), (960, 540), (960, 540), (960, 540), (960, 540), (960, 540), (960, 540), (960, 540), (960, 540), (960, 540), (960, 540), (960, 540), (960, 540), (960, 540), (960, 540), (960, 540), (960, 540), (960, 540), (960, 540), (960, 540), (960, 540), (960, 540), (960, 540), (960, 540), (960, 540), (960, 540), (960, 540), (960, 540), (960, 540), (960, 540), (960, 540), (960, 540), (960, 540), (960, 540), (960, 540), (960, 540), (960, 540), (960, 540), (960, 540), (960, 540), (960, 540), (960, 540), (960, 540), (962, 541), (966, 541), (970, 542), (982, 545), (995, 548), (997, 550), (999, 551), (1000, 552), (1000, 552), (1000, 552), (1000, 552), (1000, 552), (1000, 553), (1000, 553), (997, 553), (993, 553), (983, 553), (980, 553), (976, 553), (972, 553), (963, 553), (958, 553), (952, 553), (948, 553), (941, 553), (939, 553), (936, 553), (933, 553), (928, 553), (925, 554), (919, 555), (915, 555), (902, 557), (895, 558), (884, 559), (869, 560), (837, 560), (815, 560), (788, 563), (754, 565), (681, 569), (646, 574), (614, 577), (582, 582), (531, 592)]",173.08877288097534,"[5, 1, 9, 4, 7, 8, 2, 3, 6]","(0, 0.25)",CHN009D,CHN,D,English,Tue Sep 04 10:10:01 2018,Mouse
1,1,4,0,5,9,9,1,410,80,330,150,0,500,200,8000,"[(960, 540), (960, 540), (960, 540), (960, 540), (960, 540), (960, 540), (960, 540), (960, 542), (960, 544), (960, 547), (961, 554), (962, 557), (963, 559), (964, 562), (966, 570), (967, 573), (967, 576), (968, 579), (969, 587), (969, 591), (971, 601), (971, 609), (971, 621), (968, 631), (965, 645), (961, 667), (949, 734), (949, 776), (949, 796), (949, 818), (949, 844), (948, 855), (947, 864), (946, 874), (942, 901), (940, 913), (940, 924), (940, 932), (940, 937), (938, 938), (938, 940)]",93.14809609956276,"[5, 1, 9, 4, 7, 8, 2, 3, 6]","(0, 0.25)",CHN009D,CHN,D,English,Tue Sep 04 10:10:01 2018,Mouse
1,1,4,0,6,7,7,1,490,20,470,149,0,500,200,8000,"[(960, 539), (957, 536), (955, 535), (951, 535), (944, 531), (941, 530), (936, 529), (933, 528), (925, 527), (920, 526), (916, 524), (911, 523), (904, 523), (899, 523), (896, 522), (893, 522), (887, 518), (882, 518), (878, 516), (878, 516), (872, 515), (871, 514), (867, 514), (861, 514), (849, 513), (842, 513), (831, 513), (817, 513), (784, 513), (756, 513), (728, 513), (700, 513), (658, 513), (646, 513), (636, 513), (632, 513), (629, 513), (629, 513), (629, 513), (629, 513), (629, 513), (627, 514), (626, 515), (621, 516), (608, 517), (598, 519), (586, 520), (572, 522), (537, 527)]",181.7603091305793,"[5, 1, 9, 4, 7, 8, 2, 3, 6]","(0, 0.25)",CHN009D,CHN,D,English,Tue Sep 04 10:10:01 2018,Mouse
1,1,4,0,7,4,4,1,439,19,420,148,0,500,200,8000,"[(960, 540), (960, 542), (959, 543), (957, 544), (955, 546), (954, 546), (953, 547), (951, 548), (951, 548), (949, 550), (949, 550), (946, 554), (944, 557), (942, 558), (940, 561), (936, 565), (934, 567), (932, 569), (930, 572), (923, 581), (920, 587), (917, 591), (915, 596), (910, 603), (906, 606), (901, 611), (896, 616), (886, 629), (878, 638), (862, 653), (833, 676), (791, 706), (777, 715), (763, 725), (752, 732), (733, 752), (725, 762), (718, 771), (713, 778), (705, 793), (700, 799), (694, 808), (688, 817), (673, 834)]",134.30972280213493,"[5, 1, 9, 4, 7, 8, 2, 3, 6]","(0, 0.25)",CHN009D,CHN,D,English,Tue Sep 04 10:10:01 2018,Mouse
1,1,4,0,8,5,5,1,539,99,440,147,0,500,200,8000,"[(960, 540), (960, 540), (960, 540), (960, 540), (960, 540), (960, 540), (960, 540), (960, 540), (960, 540), (961, 539), (966, 536), (967, 536), (969, 536), (970, 536), (977, 536), (983, 536), (990, 536), (998, 538), (1014, 541), (1024, 545), (1031, 547), (1042, 549), (1058, 552), (1066, 555), (1073, 556), (1081, 560), (1098, 564), (1104, 567), (1112, 570), (1118, 572), (1134, 577), (1140, 578), (1146, 580), (1153, 582), (1166, 586), (1176, 588), (1186, 592), (1197, 594), (1220, 601), (1230, 604), (1241, 607), (1254, 611), (1273, 620), (1281, 622), (1287, 625), (1291, 627), (1300, 633), (1304, 635), (1308, 638), (1313, 640), (1327, 648), (1334, 651), (1340, 654), (1350, 656)]",16.564367412718454,"[5, 1, 9, 4, 7, 8, 2, 3, 6]","(0, 0.25)",CHN009D,CHN,D,English,Tue Sep 04 10:10:01 2018,Mouse
1,1,4,0,9,3,3,1,910,360,550,146,0,500,200,8000,"[(960, 540), (960, 540), (960, 540), (960, 540), (960, 540), (960, 540), (960, 540), (960, 540), (960, 540), (960, 540), (960, 540), (960, 540), (960, 540), (960, 540), (960, 540), (960, 540), (960, 540), (960, 540), (960, 540), (960, 540), (960, 540), (960, 540), (960, 540), (960, 540), (960, 540), (960, 540), (960, 540), (960, 540), (960, 540), (960, 540), (960, 540), (960, 540), (960, 540), (960, 540), (960, 540), (961, 540), (961, 540), (961, 540), (961, 540), (961, 540), (961, 540), (961, 540), (961, 540), (961, 540), (961, 540), (961, 540), (961, 540), (961, 540), (961, 540), (961, 540), (970, 537), (978, 533), (985, 528), (993, 523), (1006, 508), (1008, 500), (1008, 489), (1008, 478), (1008, 457), (1011, 449), (1012, 440), (1013, 437), (1016, 430), (1020, 427), (1021, 425), (1023, 424), (1027, 420), (1027, 418), (1028, 414), (1029, 409), (1031, 395), (1031, 388), (1032, 381), (1033, 374), (1034, 363), (1040, 353), (1049, 341), (1057, 332), (1075, 312), (1085, 300), (1093, 288), (1103, 275), (1121, 255), (1130, 247), (1135, 242), (1143, 236), (1154, 226), (1160, 220), (1165, 215), (1172, 208), (1188, 183)]",302.5645584974724,"[5, 1, 9, 4, 7, 8, 2, 3, 6]","(0, 0.25)",CHN009D,CHN,D,English,Tue Sep 04 10:10:01 2018,Mouse
1,1,4,0,10,3,3,1,549,319,230,145,0,500,200,8000,"[(960, 540), (960, 540), (960, 540), (960, 540), (960, 540), (960, 540), (960, 540), (960, 540), (960, 540), (960, 540), (960, 540), (960, 540), (960, 540), (960, 540), (960, 540), (960, 540), (960, 540), (960, 540), (960, 540), (960, 540), (960, 540), (960, 540), (960, 540), (960, 540), (960, 540), (960, 540), (960, 540), (960, 540), (960, 540), (960, 540), (960, 540), (962, 536), (970, 519), (977, 506), (991, 485), (998, 476), (1006, 462), (1013, 452), (1027, 433), (1033, 426), (1040, 415), (1045, 404), (1065, 371), (1072, 353), (1078, 338), (1085, 323), (1091, 291), (1093, 277), (1095, 265), (1099, 252), (1106, 230), (1108, 219), (1110, 206), (1112, 191), (1117, 159)]",292.39526065338043,"[5, 1, 9, 4, 7, 8, 2, 3, 6]","(0, 0.25)",CHN009D,CHN,D,English,Tue Sep 04 10:10:01 2018,Mouse
1,1,4,0,11,4,4,1,338,37,301,144,0,500,200,8000,"[(960, 540), (960, 540), (960, 540), (961, 541), (961, 544), (961, 549), (957, 559), (955, 564), (952, 570), (949, 576), (938, 591), (933, 598), (924, 605), (913, 613), (889, 631), (875, 641), (865, 649), (853, 657), (833, 672), (823, 681), (811, 688), (802, 694), (785, 706), (777, 712), (770, 717), (763, 722), (746, 736), (737, 741), (729, 748), (720, 756), (701, 773), (687, 783), (675, 794), (660, 806)]",138.4376649923652,"[5, 1, 9, 4, 7, 8, 2, 3, 6]","(0, 0.25)",CHN009D,CHN,D,English,Tue Sep 04 10:10:01 2018,Mouse
1,1,4,0,12,6,6,1,519,159,360,143,0,500,200,8000,"[(960, 540), (960, 540), (960, 540), (960, 540), (960, 540), (960, 540), (960, 540), (960, 540), (960, 540), (960, 540), (960, 540), (960, 540), (960, 540), (960, 540), (960, 540), (961, 540), (965, 537), (969, 536), (973, 535), (981, 533), (986, 533), (994, 532), (1006, 530), (1032, 522), (1052, 516), (1071, 512), (1085, 507), (1121, 493), (1134, 490), (1148, 486), (1161, 481), (1194, 469), (1203, 466), (1207, 465), (1212, 464), (1220, 463), (1225, 460), (1231, 458), (1238, 455), (1254, 445), (1267, 438), (1279, 431), (1289, 426), (1304, 418), (1307, 416), (1310, 415), (1314, 413), (1318, 412), (1323, 411), (1330, 410), (1337, 409), (1355, 407)]",341.3911646714511,"[5, 1, 9, 4, 7, 8, 2, 3, 6]","(0, 0.25)",CHN009D,CHN,D,English,Tue Sep 04 10:10:01 2018,Mouse
1,1,4,0,13,3,3,1,689,569,120,142,0,500,200,8000,"[(960, 540), (960, 540), (960, 540), (960, 540), (960, 540), (960, 540), (960, 540), (960, 540), (960, 540), (960, 540), (960, 540), (960, 540), (960, 540), (960, 540), (960, 540), (960, 540), (960, 540), (960, 540), (960, 540), (960, 540), (960, 540), (960, 540), (960, 540), (960, 540), (960, 540), (960, 540), (960, 540), (960, 540), (960, 540), (960, 540), (960, 540), (960, 540), (960, 540), (960, 540), (960, 540), (960, 540), (960, 540), (960, 540), (960, 540), (960, 540), (960, 540), (960, 540), (960, 540), (960, 540), (960, 540), (960, 540), (960, 540), (960, 540), (960, 540), (960, 540), (960, 540), (960, 540), (960, 540), (960, 540), (960, 540), (960, 540), (962, 536), (974, 529), (987, 522), (1007, 508), (1019, 494), (1029, 479), (1041, 460), (1058, 414), (1066, 389), (1076, 358), (1090, 328), (1129, 240), (1160, 188)]",299.6044507460049,"[5, 1, 9, 4, 7, 8, 2, 3, 6]","(0, 0.25)",CHN009D,CHN,D,English,Tue Sep 04 10:10:01 2018,Mouse
1,1,4,0,14,3,3,1,420,70,350,141,0,500,200,8000,"[(960, 540), (960, 540), (960, 540), (960, 540), (960, 540), (960, 540), (961, 540), (962, 540), (962, 540), (962, 540), (962, 540), (963, 540), (967, 538), (973, 533), (977, 528), (981, 522), (983, 518), (988, 505), (992, 499), (995, 493), (998, 488), (1007, 473), (1014, 462), (1020, 450), (1030, 435), (1056, 394), (1069, 376), (1082, 361), (1088, 350), (1098, 335), (1103, 327), (1109, 319), (1113, 310), (1126, 287), (1131, 277), (1137, 267), (1144, 257), (1156, 235), (1162, 224), (1169, 214), (1175, 205), (1190, 185)]",302.9386905429555,"[5, 1, 9, 4, 7, 8, 2, 3, 6]","(0, 0.25)",CHN009D,CHN,D,English,Tue Sep 04 10:10:01 2018,Mouse
1,1,4,0,15,6,6,1,470,150,320,140,0,500,200,8000,"[(960, 540), (960, 540), (960, 540), (960, 540), (960, 540), (960, 540), (960, 540), (960, 540), (960, 540), (960, 540), (960, 540), (960, 540), (960, 540), (960, 540), (961, 539), (962, 539), (962, 539), (964, 539), (970, 539), (974, 539), (979, 540), (987, 540), (993, 540), (997, 540), (1002, 540), (1007, 540), (1019, 539), (1027, 537), (1038, 532), (1063, 527), (1075, 523), (1087, 520), (1098, 515), (1127, 503), (1143, 495), (1155, 491), (1167, 485), (1178, 481), (1203, 474), (1217, 470), (1231, 467), (1260, 461), (1276, 458), (1291, 457), (1308, 455), (1324, 452), (1360, 449)]",347.18335235100255,"[5, 1, 9, 4, 7, 8, 2, 3, 6]","(0, 0.25)",CHN009D,CHN,D,English,Tue Sep 04 10:10:01 2018,Mouse
1,1,4,0,16,1,1,1,1069,19,1050,139,0,500,200,8000,"[(953, 539), (947, 536), (944, 536), (944, 536), (944, 536), (944, 536), (943, 536), (943, 536), (943, 536), (943, 536), (943, 536), (943, 536), (943, 536), (943, 536), (943, 536), (943, 536), (943, 536), (942, 529), (937, 520), (932, 510), (928, 499), (915, 473), (911, 462), (905, 447), (897, 427), (888, 391), (885, 378), (884, 367), (883, 358), (882, 342), (882, 336), (882, 331), (882, 329), (882, 322), (882, 318), (882, 310), (882, 302), (882, 280), (882, 270), (882, 266), (882, 264), (882, 263), (882, 263), (882, 263), (882, 263), (882, 263), (882, 263), (882, 263), (882, 263), (882, 263), (882, 263), (884, 266), (885, 269), (888, 273), (888, 274), (889, 275), (890, 276), (891, 278), (892, 280), (893, 280), (893, 280), (893, 281), (894, 282), (894, 283), (894, 284), (894, 285), (896, 286), (896, 286), (896, 286), (896, 287), (896, 289), (897, 290), (898, 292), (904, 303), (909, 313), (917, 325), (927, 344), (967, 410), (990, 445), (1012, 479), (1032, 514), (1060, 563), (1072, 585), (1079, 596), (1085, 606), (1097, 624), (1102, 630), (1107, 639), (1112, 648), (1120, 664), (1122, 671), (1124, 678), (1125, 683), (1126, 693), (1127, 703), (1128, 711), (1130, 719), (1135, 747), (1140, 762), (1146, 781), (1151, 799), (1157, 827), (1157, 838), (1158, 847), (1158, 856), (1159, 879), (1160, 890)]",60.25511870305778,"[5, 1, 9, 4, 7, 8, 2, 3, 6]","(0, 0.25)",CHN009D,CHN,D,English,Tue Sep 04 10:10:01 2018,Mouse
1,1,4,0,17,2,2,1,339,69,270,138,0,500,200,8000,"[(960, 540), (960, 540), (960, 540), (960, 540), (960, 540), (960, 540), (960, 539), (959, 536), (958, 533), (954, 526), (951, 518), (947, 506), (938, 485), (919, 450), (912, 439), (906, 427), (899, 416), (891, 396), (886, 383), (882, 368), (880, 349), (869, 305), (865, 286), (863, 273), (863, 262), (863, 240), (863, 230), (863, 221), (863, 210), (863, 190), (863, 177), (863, 167), (863, 156), (863, 139)]",256.4016346228133,"[5, 1, 9, 4, 7, 8, 2, 3, 6]","(0, 0.25)",CHN009D,CHN,D,English,Tue Sep 04 10:10:01 2018,Mouse
1,1,4,0,18,7,7,1,391,111,280,137,0,500,200,8000,"[(960, 540), (960, 540), (960, 540), (960, 540), (960, 540), (960, 540), (960, 540), (960, 540), (960, 540), (960, 540), (960, 540), (959, 540), (959, 540), (956, 540), (955, 540), (942, 542), (931, 542), (925, 544), (914, 546), (896, 547), (886, 549), (877, 549), (865, 549), (844, 549), (835, 551), (824, 552), (818, 553), (804, 553), (798, 553), (793, 553), (786, 553), (768, 553), (756, 553), (738, 550), (721, 549), (673, 543), (644, 540), (621, 537), (598, 537), (545, 537)]",180.4141791434093,"[5, 1, 9, 4, 7, 8, 2, 3, 6]","(0, 0.25)",CHN009D,CHN,D,English,Tue Sep 04 10:10:01 2018,Mouse
1,1,4,0,19,4,4,1,518,128,390,136,0,500,200,8000,"[(960, 540), (960, 540), (960, 540), (960, 540), (960, 540), (960, 540), (960, 540), (960, 540), (960, 540), (960, 540), (960, 540), (960, 540), (961, 540), (960, 541), (958, 542), (956, 544), (954, 546), (952, 548), (950, 550), (945, 556), (943, 558), (940, 561), (937, 564), (929, 568), (924, 573), (915, 579), (909, 584), (895, 594), (887, 602), (880, 610), (874, 616), (862, 633), (855, 643), (847, 654), (841, 664), (828, 682), (825, 688), (821, 696), (818, 703), (809, 718), (804, 725), (798, 733), (791, 740), (775, 760), (764, 774), (756, 783), (745, 796), (725, 818), (716, 825), (707, 832), (699, 839), (683, 851)]",131.6906637239367,"[5, 1, 9, 4, 7, 8, 2, 3, 6]","(0, 0.25)",CHN009D,CHN,D,English,Tue Sep 04 10:10:01 2018,Mouse
1,1,4,0,20,4,4,1,459,159,300,135,0,500,200,8000,"[(960, 540), (960, 540), (960, 540), (960, 540), (960, 540), (960, 540), (960, 540), (960, 540), (960, 540), (960, 540), (960, 540), (960, 540), (960, 540), (960, 540), (960, 540), (960, 542), (960, 543), (960, 544), (960, 545), (959, 547), (957, 549), (956, 552), (953, 555), (950, 560), (947, 563), (941, 570), (926, 589), (915, 604), (904, 621), (889, 639), (846, 701), (817, 735), (798, 763), (783, 783), (766, 799), (757, 804), (751, 809), (741, 817), (729, 829), (724, 833), (723, 834), (717, 840), (713, 843), (708, 845), (707, 847), (703, 849)]",129.7508124792657,"[5, 1, 9, 4, 7, 8, 2, 3, 6]","(0, 0.25)",CHN009D,CHN,D,English,Tue Sep 04 10:10:01 2018,Mouse
1,1,4,0,21,9,9,1,2709,429,2280,134,0,500,200,8000,"[(960, 540), (960, 540), (960, 540), (960, 540), (960, 540), (960, 540), (960, 540), (960, 540), (960, 540), (960, 540), (960, 540), (960, 540), (960, 540), (960, 540), (960, 540), (960, 540), (960, 540), (960, 540), (960, 540), (960, 540), (960, 540), (960, 540), (960, 540), (960, 540), (960, 540), (960, 540), (960, 540), (960, 540), (960, 540), (960, 540), (960, 540), (960, 540), (960, 540), (960, 540), (960, 540), (960, 540), (960, 540), (960, 540), (960, 540), (960, 540), (960, 540), (960, 540), (960, 542), (958, 551), (954, 559), (952, 567), (949, 577), (948, 579), (945, 583), (943, 584), (940, 584), (936, 584), (934, 584), (934, 584), (934, 584), (934, 584), (934, 584), (934, 584), (934, 584), (934, 584), (934, 584), (934, 584), (934, 584), (934, 584), (934, 584), (934, 584), (934, 584), (934, 584), (934, 584), (934, 584), (934, 584), (934, 584), (934, 584), (934, 584), (934, 584), (934, 584), (934, 584), (934, 584), (934, 584), (934, 584), (934, 584), (934, 584), (934, 584), (934, 584), (934, 584), (934, 584), (934, 584), (934, 584), (934, 584), (934, 584), (934, 584), (934, 584), (934, 584), (934, 584), (934, 584), (934, 584), (934, 584), (934, 584), (934, 584), (934, 584), (934, 584), (934, 584), (934, 584), (934, 584), (934, 584), (934, 584), (934, 584), (934, 584), (934, 585), (934, 585), (934, 585), (934, 585), (934, 585), (934, 585), (934, 585), (934, 585), (934, 585), (934, 585), (934, 586), (934, 586), (934, 586), (934, 586), (934, 586), (934, 586), (934, 586), (934, 586), (934, 586), (934, 586), (934, 586), (934, 586), (934, 587), (934, 587), (934, 587), (934, 587), (934, 587), (934, 587), (934, 587), (934, 587), (935, 588), (936, 588), (936, 588), (938, 589), (939, 590), (939, 590), (939, 590), (940, 590), (940, 590), (940, 590), (940, 590), (941, 591), (941, 591), (942, 591), (942, 591), (943, 591), (945, 591), (945, 591), (945, 591), (946, 591), (947, 591), (948, 591), (949, 590), (950, 590), (951, 589), (952, 589), (952, 589), (953, 587), (953, 587), (953, 587), (953, 587), (953, 587), (953, 587), (953, 587), (953, 587), (953, 587), (953, 587), (953, 587), (953, 587), (953, 587), (953, 587), (953, 587), (953, 587), (953, 587), (953, 587), (953, 587), (953, 587), (953, 587), (953, 587), (953, 587), (953, 587), (953, 587), (953, 587), (953, 587), (953, 587), (953, 587), (953, 587), (953, 587), (953, 587), (953, 587), (953, 587), (953, 587), (953, 587), (953, 587), (953, 587), (953, 587), (953, 587), (953, 587), (953, 587), (953, 587), (953, 587), (953, 587), (953, 587), (953, 587), (953, 587), (953, 587), (953, 587), (953, 587), (953, 587), (953, 587), (953, 587), (953, 587), (953, 587), (953, 587), (953, 587), (953, 587), (953, 587), (953, 587), (953, 587), (953, 587), (953, 587), (953, 587), (953, 587), (953, 587), (953, 587), (953, 587), (953, 587), (953, 587), (953, 587), (953, 587), (953, 587), (953, 587), (953, 587), (953, 587), (953, 587), (953, 587), (953, 587), (953, 587), (953, 587), (953, 587), (953, 587), (953, 587), (953, 587), (953, 587), (953, 587), (953, 587), (953, 587), (953, 587), (953, 587), (953, 587), (953, 587), (953, 587), (953, 587), (953, 587), (945, 598), (936, 613), (928, 632), (916, 678), (886, 784), (878, 827), (874, 867), (871, 901), (868, 961)]",102.32691050473939,"[5, 1, 9, 4, 7, 8, 2, 3, 6]","(0, 0.25)",CHN009D,CHN,D,English,Tue Sep 04 10:10:01 2018,Mouse
1,1,4,0,22,1,2,0,-2369,439,1930,133,0,500,200,8000,"[(960, 540), (960, 540), (960, 540), (960, 540), (960, 540), (960, 540), (960, 540), (960, 540), (960, 540), (960, 540), (960, 540), (960, 540), (960, 540), (960, 540), (960, 540), (960, 540), (960, 540), (960, 540), (960, 540), (960, 540), (960, 540), (960, 540), (960, 540), (960, 540), (960, 540), (960, 540), (960, 540), (960, 540), (960, 540), (960, 540), (960, 540), (960, 540), (960, 540), (960, 540), (960, 540), (960, 540), (960, 540), (960, 540), (960, 540), (960, 540), (960, 540), (960, 540), (960, 540), (960, 539), (960, 539), (960, 539), (960, 538), (960, 538), (960, 537), (960, 537), (960, 537), (960, 537), (961, 536), (961, 536), (961, 536), (961, 536), (961, 536), (961, 536), (961, 536), (961, 536), (961, 536), (961, 536), (961, 536), (961, 536), (961, 536), (961, 536), (961, 536), (961, 536), (961, 536), (961, 536), (961, 536), (961, 536), (961, 536), (961, 536), (961, 536), (961, 536), (961, 536), (961, 536), (961, 536), (961, 536), (961, 536), (961, 536), (961, 536), (961, 536), (961, 536), (961, 536), (961, 536), (961, 536), (961, 536), (961, 536), (961, 536), (961, 536), (961, 536), (961, 536), (961, 536), (961, 536), (961, 536), (961, 536), (961, 536), (961, 536), (961, 536), (961, 536), (961, 536), (960, 536), (958, 536), (956, 536), (953, 529), (953, 527), (953, 527), (953, 527), (953, 527), (953, 527), (953, 527), (954, 526), (954, 526), (954, 526), (954, 526), (954, 526), (954, 526), (954, 526), (954, 526), (954, 526), (954, 526), (954, 526), (954, 526), (954, 526), (954, 526), (954, 526), (954, 526), (954, 526), (954, 526), (954, 526), (954, 526), (954, 526), (954, 526), (954, 526), (954, 526), (954, 526), (954, 526), (954, 526), (954, 526), (954, 526), (954, 526), (954, 526), (954, 526), (954, 526), (954, 527), (954, 527), (954, 527), (954, 527), (954, 528), (954, 528), (954, 528), (954, 528), (954, 528), (954, 528), (954, 528), (954, 528), (954, 528), (954, 528), (954, 528), (954, 528), (954, 528), (954, 528), (954, 528), (954, 528), (954, 528), (954, 528), (954, 528), (954, 528), (954, 528), (954, 528), (954, 528), (954, 528), (954, 528), (954, 528), (954, 528), (954, 528), (954, 528), (954, 528), (954, 528), (954, 528), (954, 528), (954, 528), (954, 528), (954, 528), (954, 528), (954, 528), (954, 528), (954, 528), (954, 528), (954, 528), (954, 528), (954, 528), (954, 528), (954, 528), (954, 528), (954, 528), (954, 525), (954, 522), (953, 518), (953, 515), (951, 503), (949, 496), (948, 491), (946, 484), (940, 469), (936, 461), (932, 453), (930, 446), (921, 429), (918, 418), (914, 406), (908, 395), (898, 371), (893, 361), (890, 354), (888, 348), (886, 341), (885, 339), (885, 338), (885, 336), (885, 331), (885, 328), (885, 324), (885, 320), (887, 308), (889, 300), (890, 290), (891, 278), (894, 253), (897, 238), (898, 223), (902, 205), (907, 166), (910, 147), (911, 130)]",263.1847805813558,"[5, 1, 9, 4, 7, 8, 2, 3, 6]","(0, 0.25)",CHN009D,CHN,D,English,Tue Sep 04 10:10:01 2018,Mouse
1,1,4,0,23,8,8,1,971,521,450,134,0,500,200,8000,"[(960, 540), (960, 540), (960, 540), (960, 540), (960, 540), (960, 540), (960, 540), (960, 540), (960, 540), (960, 540), (960, 540), (960, 540), (960, 540), (960, 540), (960, 540), (960, 540), (960, 540), (960, 540), (960, 540), (960, 540), (960, 540), (960, 540), (960, 540), (960, 540), (960, 540), (960, 540), (960, 540), (960, 540), (960, 540), (960, 540), (960, 540), (960, 540), (960, 540), (960, 540), (960, 540), (960, 540), (960, 540), (960, 540), (960, 540), (960, 540), (960, 540), (960, 540), (960, 540), (960, 540), (960, 540), (960, 540), (960, 540), (960, 540), (960, 540), (960, 540), (960, 540), (960, 540), (960, 539), (960, 539), (960, 539), (960, 539), (960, 539), (960, 539), (960, 539), (960, 539), (960, 539), (962, 539), (963, 539), (965, 539), (966, 539), (969, 539), (970, 538), (970, 538), (970, 538), (970, 538), (970, 538), (970, 538), (970, 538), (970, 538), (970, 537), (970, 535), (970, 532), (957, 524), (950, 521), (937, 513), (926, 505), (884, 488), (862, 478), (842, 469), (821, 460), (790, 446), (777, 439), (768, 432), (759, 425), (743, 413), (734, 408), (724, 401), (714, 392), (684, 371), (666, 356), (650, 342), (635, 330), (601, 305)]",213.20860172014144,"[5, 1, 9, 4, 7, 8, 2, 3, 6]","(0, 0.25)",CHN009D,CHN,D,English,Tue Sep 04 10:10:01 2018,Mouse
1,1,4,0,24,3,3,1,470,80,390,134,0,500,200,8000,"[(960, 540), (960, 540), (960, 540), (960, 540), (960, 540), (960, 540), (960, 540), (961, 540), (966, 540), (976, 540), (990, 537), (1018, 529), (1031, 524), (1039, 521), (1048, 518), (1064, 510), (1067, 507), (1070, 506), (1070, 505), (1074, 504), (1074, 503), (1076, 502), (1078, 500), (1084, 494), (1089, 487), (1097, 477), (1102, 471), (1115, 456), (1122, 446), (1129, 437), (1137, 425), (1148, 399), (1154, 384), (1158, 365), (1160, 353), (1161, 328), (1162, 319), (1162, 309), (1162, 299), (1162, 282), (1162, 272), (1163, 261), (1167, 250), (1169, 229), (1172, 219), (1177, 209), (1178, 202)]",302.82081894747586,"[5, 1, 9, 4, 7, 8, 2, 3, 6]","(0, 0.25)",CHN009D,CHN,D,English,Tue Sep 04 10:10:01 2018,Mouse
1,1,4,0,25,2,2,1,471,221,250,133,0,500,200,8000,"[(960, 540), (960, 540), (960, 540), (960, 540), (960, 540), (960, 540), (960, 540), (960, 540), (960, 540), (960, 540), (960, 540), (960, 540), (960, 540), (960, 540), (960, 540), (960, 540), (960, 540), (960, 540), (960, 540), (960, 540), (960, 540), (960, 540), (959, 535), (959, 529), (957, 517), (957, 508), (953, 492), (951, 476), (935, 420), (929, 398), (921, 373), (915, 351), (905, 321), (901, 309), (896, 298), (892, 288), (886, 272), (885, 265), (884, 258), (884, 252), (881, 237), (880, 228), (876, 220), (873, 210), (867, 189), (864, 176), (861, 164), (858, 148)]",255.41483172725702,"[5, 1, 9, 4, 7, 8, 2, 3, 6]","(0, 0.25)",CHN009D,CHN,D,English,Tue Sep 04 10:10:01 2018,Mouse
1,1,4,0,26,9,2,0,-1210,260,950,132,0,500,200,8000,"[(960, 540), (960, 540), (960, 540), (960, 540), (960, 540), (960, 540), (960, 540), (960, 540), (960, 540), (960, 540), (960, 540), (960, 540), (960, 540), (960, 540), (960, 540), (960, 540), (960, 540), (960, 540), (960, 540), (960, 540), (960, 540), (960, 540), (960, 540), (960, 540), (960, 540), (960, 541), (958, 543), (958, 543), (958, 543), (958, 543), (958, 543), (958, 543), (958, 543), (958, 543), (958, 543), (958, 543), (958, 543), (958, 543), (958, 543), (958, 543), (958, 543), (958, 543), (958, 543), (958, 543), (958, 543), (958, 543), (958, 543), (958, 543), (958, 543), (958, 543), (958, 543), (958, 543), (958, 543), (958, 543), (958, 543), (958, 543), (958, 543), (958, 543), (958, 543), (958, 543), (958, 543), (958, 543), (958, 543), (958, 543), (958, 543), (958, 543), (958, 543), (958, 543), (958, 543), (958, 543), (958, 543), (958, 543), (958, 543), (958, 543), (958, 543), (958, 543), (958, 543), (958, 543), (958, 543), (958, 543), (958, 543), (958, 543), (958, 543), (958, 543), (958, 543), (958, 543), (958, 543), (958, 543), (958, 543), (958, 543), (958, 543), (958, 543), (958, 543), (958, 543), (958, 543), (958, 543), (958, 543), (958, 543), (958, 541), (959, 538), (960, 533), (963, 527), (970, 510), (970, 501), (971, 490), (972, 479), (972, 450), (972, 427), (972, 405), (972, 380), (968, 347), (965, 333), (963, 318), (962, 306), (958, 277), (955, 261), (954, 243), (949, 219), (943, 172), (940, 151), (939, 138)]",267.0096550248346,"[5, 1, 9, 4, 7, 8, 2, 3, 6]","(0, 0.25)",CHN009D,CHN,D,English,Tue Sep 04 10:10:01 2018,Mouse
1,1,4,0,27,6,9,0,-1240,140,1100,133,0,500,200,8000,"[(960, 540), (960, 540), (960, 540), (960, 540), (960, 540), (960, 540), (960, 540), (960, 540), (960, 540), (960, 540), (960, 540), (960, 540), (960, 540), (960, 543), (960, 545), (960, 547), (960, 550), (959, 551), (958, 554), (955, 558), (951, 564), (949, 566), (945, 570), (943, 572), (940, 578), (938, 580), (936, 582), (934, 586), (930, 593), (928, 595), (925, 598), (924, 600), (922, 605), (921, 607), (921, 607), (920, 608), (919, 612), (919, 613), (918, 614), (916, 618), (914, 625), (912, 631), (907, 640), (903, 647), (891, 665), (884, 675), (877, 685), (871, 693), (859, 711), (853, 718), (848, 726), (842, 733), (826, 749), (819, 758), (810, 766), (802, 773), (787, 789), (782, 795), (776, 803), (770, 809), (765, 817), (759, 826), (755, 831), (751, 836), (748, 843), (747, 845), (746, 847), (746, 849), (744, 850), (744, 850), (744, 850), (744, 850), (744, 850), (744, 850), (744, 850), (744, 850), (744, 850), (744, 850), (744, 850), (744, 850), (744, 850), (744, 850), (744, 850), (744, 850), (744, 850), (744, 850), (744, 850), (744, 850), (746, 849), (747, 848), (750, 847), (753, 845), (760, 843), (765, 843), (771, 841), (776, 840), (786, 839), (792, 839), (797, 839), (805, 838), (815, 835), (819, 834), (821, 833), (824, 832), (825, 832), (826, 832), (826, 831), (826, 831), (826, 831), (826, 831), (826, 831), (826, 831), (826, 831), (826, 831), (826, 831), (827, 831), (831, 845), (833, 852), (833, 862), (833, 872), (833, 889), (833, 899), (833, 910), (833, 921)]",108.43494882292202,"[5, 1, 9, 4, 7, 8, 2, 3, 6]","(0, 0.25)",CHN009D,CHN,D,English,Tue Sep 04 10:10:01 2018,Mouse
1,1,4,0,28,7,7,1,1562,132,1430,134,0,500,200,8000,"[(960, 540), (960, 540), (960, 540), (960, 540), (960, 540), (960, 540), (960, 540), (960, 540), (960, 540), (960, 540), (960, 540), (960, 540), (960, 540), (961, 538), (962, 537), (963, 537), (963, 536), (964, 535), (964, 534), (964, 533), (964, 527), (964, 524), (964, 520), (965, 515), (967, 512), (967, 512), (967, 512), (967, 512), (967, 512), (967, 512), (967, 512), (967, 512), (967, 512), (967, 512), (967, 512), (967, 512), (967, 512), (967, 512), (967, 512), (967, 512), (967, 512), (967, 512), (967, 512), (967, 512), (967, 512), (967, 512), (967, 512), (967, 512), (967, 512), (967, 512), (967, 512), (967, 512), (967, 512), (967, 513), (967, 513), (968, 513), (972, 513), (973, 513), (976, 513), (976, 513), (976, 513), (977, 513), (978, 512), (978, 512), (980, 512), (981, 511), (981, 511), (981, 511), (981, 511), (981, 511), (981, 511), (981, 511), (981, 511), (981, 511), (981, 511), (981, 511), (981, 511), (981, 511), (981, 511), (981, 511), (981, 511), (981, 511), (981, 511), (981, 511), (981, 511), (981, 513), (981, 513), (981, 515), (980, 520), (980, 522), (980, 524), (979, 528), (979, 533), (979, 534), (979, 535), (979, 535), (979, 536), (979, 536), (979, 536), (979, 536), (979, 536), (979, 536), (979, 536), (979, 536), (979, 536), (979, 536), (979, 536), (979, 536), (978, 537), (977, 537), (975, 537), (974, 537), (971, 537), (967, 536), (967, 536), (965, 535), (964, 535), (962, 535), (962, 535), (961, 534), (959, 533), (959, 533), (959, 533), (959, 533), (959, 533), (958, 533), (958, 532), (956, 532), (947, 531), (940, 530), (929, 528), (919, 527), (896, 525), (886, 523), (876, 522), (867, 521), (847, 517), (838, 516), (828, 516), (816, 516), (795, 515), (783, 515), (771, 515), (760, 515), (736, 515), (722, 516), (707, 518), (696, 520), (676, 523), (667, 524), (658, 525), (646, 528), (621, 534), (606, 535), (592, 536), (577, 540), (541, 542)]",179.72651386933313,"[5, 1, 9, 4, 7, 8, 2, 3, 6]","(0, 0.25)",CHN009D,CHN,D,English,Tue Sep 04 10:10:01 2018,Mouse
1,1,4,0,29,6,2,0,-538,38,500,134,0,500,200,8000,"[(960, 540), (960, 540), (960, 540), (959, 539), (959, 538), (960, 537), (962, 537), (966, 534), (971, 532), (973, 530), (978, 526), (985, 516), (988, 513), (991, 509), (995, 504), (1003, 496), (1007, 496), (1008, 494), (1009, 494), (1009, 494), (1009, 494), (1009, 494), (1009, 494), (1010, 494), (1011, 493), (1012, 492), (1017, 489), (1035, 476), (1042, 469), (1047, 464), (1051, 458), (1052, 441), (1052, 433), (1049, 420), (1043, 410), (1025, 380), (1017, 365), (1008, 348), (998, 332), (985, 306), (981, 295), (975, 282), (970, 268), (964, 248), (962, 240), (958, 230), (956, 219), (951, 200), (946, 192), (942, 183), (941, 174), (938, 158), (937, 147), (934, 134)]",266.33581567925927,"[5, 1, 9, 4, 7, 8, 2, 3, 6]","(0, 0.25)",CHN009D,CHN,D,English,Tue Sep 04 10:10:01 2018,Mouse
1,1,4,0,30,5,3,0,-339,19,320,135,0,500,200,8000,"[(960, 539), (960, 538), (963, 537), (965, 537), (974, 533), (984, 531), (990, 528), (997, 526), (1009, 519), (1013, 516), (1015, 514), (1021, 506), (1026, 493), (1029, 483), (1031, 477), (1033, 470), (1033, 460), (1033, 456), (1033, 455), (1033, 452), (1034, 447), (1035, 444), (1037, 437), (1040, 426), (1051, 400), (1059, 382), (1065, 366), (1078, 342), (1102, 304), (1116, 284), (1132, 261), (1145, 242), (1169, 201), (1177, 185)]",301.4360935605221,"[5, 1, 9, 4, 7, 8, 2, 3, 6]","(0, 0.25)",CHN009D,CHN,D,English,Tue Sep 04 10:10:01 2018,Mouse
1,1,4,0,31,9,9,1,1290,180,1110,136,0,500,200,8000,"[(960, 540), (960, 540), (960, 540), (960, 540), (960, 540), (960, 540), (960, 540), (960, 540), (960, 540), (960, 540), (960, 540), (960, 540), (960, 540), (960, 540), (960, 540), (960, 540), (960, 540), (960, 541), (960, 541), (960, 542), (960, 542), (960, 542), (960, 542), (960, 542), (960, 542), (960, 542), (960, 542), (960, 542), (960, 542), (960, 542), (960, 543), (960, 544), (959, 544), (958, 545), (958, 545), (958, 546), (958, 546), (958, 546), (958, 548), (958, 548), (958, 549), (958, 550), (956, 551), (956, 551), (956, 551), (956, 552), (956, 553), (956, 555), (956, 558), (956, 563), (956, 566), (956, 568), (956, 569), (958, 571), (959, 572), (959, 572), (959, 572), (959, 572), (959, 572), (959, 572), (959, 572), (959, 572), (959, 572), (959, 572), (959, 572), (959, 572), (959, 572), (959, 572), (959, 572), (959, 572), (959, 572), (959, 572), (959, 572), (959, 572), (957, 572), (956, 572), (955, 573), (953, 575), (953, 576), (953, 576), (952, 577), (951, 577), (951, 577), (951, 577), (951, 577), (951, 577), (951, 577), (951, 577), (951, 577), (951, 577), (951, 577), (951, 577), (951, 577), (951, 577), (951, 577), (951, 577), (951, 577), (951, 577), (951, 577), (951, 577), (951, 577), (951, 577), (951, 577), (951, 577), (951, 577), (951, 577), (951, 577), (951, 577), (951, 577), (951, 577), (951, 577), (951, 577), (950, 579), (949, 582), (948, 584), (946, 588), (945, 591), (944, 602), (943, 612), (941, 625), (935, 643), (922, 695), (913, 728), (904, 767), (891, 809), (874, 867), (866, 892), (863, 908), (859, 930)]",104.51915853035275,"[5, 1, 9, 4, 7, 8, 2, 3, 6]","(0, 0.25)",CHN009D,CHN,D,English,Tue Sep 04 10:10:01 2018,Mouse
1,1,4,0,32,1,6,0,-780,550,230,136,0,500,200,8000,"[(960, 540), (960, 540), (960, 540), (960, 540), (960, 540), (960, 540), (960, 540), (960, 540), (960, 540), (960, 540), (960, 540), (960, 540), (960, 540), (960, 540), (960, 540), (960, 540), (960, 540), (960, 540), (960, 540), (960, 540), (960, 540), (960, 540), (960, 540), (960, 540), (960, 540), (960, 540), (960, 540), (960, 540), (960, 540), (960, 540), (960, 540), (960, 540), (960, 540), (960, 540), (960, 540), (960, 540), (960, 540), (960, 540), (960, 540), (960, 540), (960, 540), (960, 540), (960, 540), (960, 540), (960, 540), (960, 540), (960, 540), (960, 540), (960, 540), (960, 540), (960, 540), (960, 540), (960, 540), (960, 540), (962, 539), (962, 538), (963, 536), (965, 534), (969, 532), (975, 530), (983, 529), (991, 527), (1015, 520), (1031, 515), (1054, 508), (1073, 504), (1110, 493), (1122, 488), (1133, 485), (1142, 480), (1158, 470), (1170, 463), (1188, 450), (1212, 438), (1262, 413), (1296, 401), (1330, 390), (1359, 378)]",337.9021078843113,"[5, 1, 9, 4, 7, 8, 2, 3, 6]","(0, 0.25)",CHN009D,CHN,D,English,Tue Sep 04 10:10:01 2018,Mouse
1,1,4,0,33,9,9,1,420,20,400,137,0,500,200,8000,"[(956, 543), (953, 544), (949, 546), (942, 550), (937, 553), (930, 557), (921, 560), (906, 569), (895, 575), (886, 581), (879, 585), (865, 595), (859, 599), (854, 605), (851, 607), (844, 617), (844, 624), (841, 630), (839, 639), (833, 649), (830, 656), (829, 663), (828, 670), (824, 690), (823, 701), (823, 714), (823, 727), (823, 759), (823, 771), (826, 792), (828, 818), (838, 850), (840, 863), (844, 874), (846, 881), (850, 893), (851, 900), (851, 906), (852, 911), (853, 919), (854, 923), (854, 926)]",105.35554941442184,"[5, 1, 9, 4, 7, 8, 2, 3, 6]","(0, 0.25)",CHN009D,CHN,D,English,Tue Sep 04 10:10:01 2018,Mouse
1,1,4,0,34,6,6,1,340,20,320,137,0,500,200,8000,"[(982, 533), (995, 530), (1005, 527), (1013, 523), (1024, 518), (1030, 515), (1031, 514), (1033, 514), (1035, 513), (1038, 511), (1041, 509), (1046, 506), (1058, 500), (1066, 496), (1076, 491), (1083, 489), (1101, 488), (1109, 486), (1116, 485), (1123, 484), (1137, 478), (1144, 475), (1153, 471), (1160, 467), (1184, 458), (1195, 457), (1210, 456), (1226, 452), (1256, 448), (1272, 445), (1289, 440), (1304, 435), (1337, 419), (1349, 413)]",341.9192709578924,"[5, 1, 9, 4, 7, 8, 2, 3, 6]","(0, 0.25)",CHN009D,CHN,D,English,Tue Sep 04 10:10:01 2018,Mouse
1,1,4,0,35,4,4,1,450,11,439,136,0,500,200,8000,"[(960, 540), (956, 543), (948, 545), (942, 547), (938, 549), (931, 550), (917, 557), (910, 560), (902, 565), (892, 569), (876, 579), (866, 584), (853, 592), (844, 597), (825, 608), (818, 614), (813, 617), (809, 625), (803, 633), (800, 638), (798, 642), (795, 645), (787, 656), (782, 662), (778, 667), (773, 674), (764, 686), (760, 692), (759, 694), (754, 702), (744, 717), (732, 734), (723, 744), (715, 754), (698, 772), (692, 781), (683, 789), (678, 794), (672, 800), (671, 800), (670, 801), (669, 802), (666, 805), (665, 807), (663, 811)]",137.62086463903208,"[5, 1, 9, 4, 7, 8, 2, 3, 6]","(0, 0.25)",CHN009D,CHN,D,English,Tue Sep 04 10:10:01 2018,Mouse
1,1,4,0,36,7,7,1,730,460,270,135,0,500,200,8000,"[(960, 540), (960, 540), (960, 540), (960, 540), (960, 540), (960, 540), (960, 540), (960, 540), (960, 540), (960, 540), (960, 540), (960, 540), (960, 540), (960, 540), (960, 540), (960, 540), (960, 540), (960, 540), (960, 540), (960, 540), (960, 540), (960, 540), (960, 540), (960, 540), (960, 540), (960, 540), (960, 540), (960, 540), (960, 540), (960, 540), (960, 540), (960, 540), (960, 540), (960, 540), (960, 540), (960, 540), (960, 540), (960, 540), (960, 540), (960, 540), (960, 540), (960, 540), (960, 540), (960, 540), (960, 540), (959, 540), (956, 540), (953, 540), (940, 540), (934, 540), (929, 540), (923, 540), (911, 540), (906, 540), (903, 540), (901, 540), (887, 544), (882, 545), (871, 547), (858, 548), (831, 550), (814, 550), (795, 550), (775, 550), (733, 550), (711, 550), (683, 550), (660, 550), (616, 550), (601, 550), (586, 550), (570, 553), (543, 554)]",178.0771229314837,"[5, 1, 9, 4, 7, 8, 2, 3, 6]","(0, 0.25)",CHN009D,CHN,D,English,Tue Sep 04 10:10:01 2018,Mouse
1,1,4,0,37,8,8,1,440,150,290,134,0,500,200,8000,"[(960, 540), (960, 540), (960, 540), (960, 540), (960, 540), (960, 540), (960, 540), (960, 540), (960, 540), (960, 540), (960, 540), (960, 540), (960, 540), (960, 540), (958, 539), (957, 537), (953, 535), (948, 530), (929, 516), (919, 509), (911, 505), (902, 501), (883, 493), (875, 489), (870, 486), (866, 483), (858, 475), (855, 469), (851, 465), (844, 456), (828, 439), (820, 429), (813, 416), (804, 399), (776, 369), (761, 351), (746, 333), (736, 323), (713, 301), (706, 295), (697, 288), (689, 280), (675, 270), (668, 264)]",223.3864610671188,"[5, 1, 9, 4, 7, 8, 2, 3, 6]","(0, 0.25)",CHN009D,CHN,D,English,Tue Sep 04 10:10:01 2018,Mouse
1,1,4,0,38,9,9,1,910,260,650,133,0,500,200,8000,"[(960, 540), (960, 540), (960, 540), (960, 540), (960, 540), (960, 540), (960, 540), (960, 540), (960, 540), (960, 540), (960, 540), (960, 540), (960, 540), (960, 540), (960, 540), (960, 540), (960, 540), (960, 540), (960, 540), (960, 540), (960, 540), (960, 540), (960, 540), (960, 540), (960, 540), (961, 542), (961, 542), (961, 543), (962, 544), (963, 546), (963, 546), (964, 547), (964, 547), (964, 547), (965, 548), (965, 548), (966, 549), (966, 549), (966, 549), (967, 549), (967, 549), (968, 550), (969, 550), (969, 551), (971, 554), (971, 555), (971, 558), (973, 559), (973, 563), (973, 564), (973, 565), (973, 566), (973, 568), (973, 568), (973, 569), (973, 569), (973, 571), (973, 571), (973, 571), (973, 571), (973, 572), (973, 572), (973, 572), (973, 572), (973, 572), (973, 574), (973, 574), (973, 574), (973, 574), (973, 574), (973, 574), (973, 574), (973, 574), (973, 574), (973, 574), (973, 575), (973, 578), (972, 582), (972, 583), (969, 589), (964, 613), (961, 627), (957, 646), (956, 669), (944, 766), (937, 810), (933, 844), (929, 866), (918, 912), (909, 935), (906, 949)]",97.52122257967359,"[5, 1, 9, 4, 7, 8, 2, 3, 6]","(0, 0.25)",CHN009D,CHN,D,English,Tue Sep 04 10:10:01 2018,Mouse
1,1,4,0,39,8,7,0,-1970,290,1680,132,0,500,200,8000,"[(960, 540), (960, 540), (960, 540), (960, 540), (960, 540), (960, 540), (960, 540), (960, 540), (960, 540), (960, 540), (960, 540), (960, 540), (960, 540), (960, 540), (960, 540), (960, 540), (960, 540), (960, 540), (960, 540), (960, 540), (960, 540), (960, 540), (960, 540), (960, 540), (960, 540), (960, 540), (960, 540), (960, 540), (960, 539), (960, 539), (960, 539), (960, 538), (960, 536), (963, 533), (973, 529), (978, 527), (978, 527), (978, 527), (978, 527), (978, 527), (978, 527), (978, 527), (978, 527), (978, 527), (978, 527), (978, 527), (978, 527), (978, 527), (978, 527), (978, 527), (978, 527), (978, 527), (978, 527), (978, 527), (980, 528), (980, 528), (980, 528), (980, 528), (980, 528), (979, 528), (974, 528), (970, 528), (967, 528), (967, 528), (966, 528), (966, 528), (966, 528), (966, 528), (966, 528), (966, 528), (966, 528), (966, 528), (966, 528), (966, 528), (966, 528), (966, 528), (966, 528), (966, 528), (966, 528), (966, 528), (966, 528), (966, 528), (966, 528), (966, 528), (966, 528), (966, 528), (966, 528), (966, 528), (966, 528), (966, 528), (966, 528), (966, 528), (966, 528), (966, 528), (966, 528), (966, 528), (966, 528), (966, 528), (966, 528), (966, 528), (966, 528), (966, 528), (966, 528), (966, 528), (966, 528), (966, 528), (966, 528), (966, 528), (966, 528), (966, 528), (966, 528), (966, 528), (966, 528), (966, 528), (966, 528), (966, 528), (966, 528), (966, 528), (966, 528), (966, 528), (966, 528), (966, 528), (966, 528), (966, 528), (966, 528), (966, 528), (966, 528), (966, 528), (966, 528), (966, 528), (966, 528), (966, 528), (966, 528), (966, 528), (966, 528), (966, 528), (966, 528), (966, 528), (966, 528), (966, 528), (966, 528), (966, 528), (966, 528), (966, 528), (966, 528), (966, 528), (966, 528), (966, 528), (966, 528), (966, 528), (966, 528), (966, 528), (966, 528), (966, 528), (966, 528), (966, 528), (966, 528), (966, 528), (966, 528), (966, 528), (966, 528), (966, 528), (966, 528), (966, 528), (966, 528), (966, 528), (966, 528), (966, 528), (963, 528), (958, 528), (948, 528), (939, 528), (917, 528), (906, 528), (894, 528), (880, 528), (855, 528), (840, 528), (826, 528), (810, 528), (773, 528), (756, 528), (734, 528), (717, 528), (686, 528), (673, 528), (662, 529), (652, 531), (638, 537), (630, 539), (622, 542), (615, 545), (597, 550), (588, 554), (577, 555), (564, 558), (538, 558)]",177.5575846893429,"[5, 1, 9, 4, 7, 8, 2, 3, 6]","(0, 0.25)",CHN009D,CHN,D,English,Tue Sep 04 10:10:01 2018,Mouse
1,1,4,0,40,1,6,0,-1261,271,990,133,0,500,200,8000,"[(960, 540), (960, 540), (960, 540), (960, 540), (960, 540), (960, 540), (960, 540), (960, 540), (960, 540), (960, 540), (960, 540), (960, 540), (960, 540), (960, 540), (960, 540), (960, 540), (960, 540), (960, 540), (960, 540), (960, 540), (960, 540), (960, 540), (960, 540), (960, 540), (960, 540), (960, 540), (960, 540), (961, 539), (961, 539), (961, 539), (962, 539), (962, 539), (962, 539), (962, 539), (962, 539), (962, 538), (962, 538), (962, 538), (962, 538), (962, 538), (962, 538), (962, 538), (962, 538), (962, 538), (962, 538), (962, 538), (962, 538), (962, 538), (962, 538), (964, 538), (965, 538), (967, 538), (969, 538), (969, 538), (969, 538), (969, 538), (969, 538), (969, 538), (969, 538), (970, 539), (971, 539), (972, 541), (974, 541), (979, 541), (979, 541), (979, 541), (980, 541), (980, 541), (980, 541), (980, 541), (980, 541), (980, 541), (980, 541), (980, 541), (980, 541), (987, 541), (991, 540), (999, 537), (1007, 536), (1025, 534), (1035, 530), (1048, 526), (1061, 524), (1088, 514), (1107, 510), (1120, 508), (1135, 504), (1163, 496), (1174, 494), (1183, 493), (1191, 490), (1202, 488), (1204, 486), (1205, 485), (1205, 485), (1206, 485), (1206, 485), (1206, 485), (1206, 485), (1206, 485), (1206, 485), (1206, 485), (1206, 485), (1206, 485), (1206, 485), (1206, 485), (1206, 485), (1206, 485), (1206, 485), (1206, 485), (1206, 485), (1206, 485), (1206, 485), (1206, 485), (1206, 485), (1206, 485), (1206, 485), (1206, 485), (1206, 485), (1210, 481), (1216, 478), (1223, 477), (1236, 473), (1285, 453), (1311, 441), (1340, 429), (1369, 419)]",343.5194899945681,"[5, 1, 9, 4, 7, 8, 2, 3, 6]","(0, 0.25)",CHN009D,CHN,D,English,Tue Sep 04 10:10:01 2018,Mouse
1,1,4,0,41,1,9,0,-1138,708,430,134,0,500,200,8000,"[(960, 540), (960, 540), (960, 540), (960, 540), (960, 540), (960, 540), (960, 540), (960, 540), (960, 540), (960, 540), (960, 540), (960, 540), (960, 540), (960, 540), (960, 540), (960, 540), (960, 540), (960, 540), (960, 540), (960, 540), (960, 540), (960, 540), (960, 540), (960, 540), (960, 540), (960, 540), (960, 540), (960, 540), (960, 540), (960, 540), (960, 540), (960, 540), (960, 540), (960, 540), (960, 540), (960, 540), (960, 540), (960, 540), (960, 540), (960, 540), (960, 540), (960, 540), (960, 540), (960, 540), (960, 540), (960, 540), (960, 540), (960, 540), (960, 540), (960, 540), (960, 540), (960, 540), (960, 540), (960, 540), (960, 540), (960, 540), (960, 540), (960, 540), (960, 540), (960, 540), (960, 540), (960, 540), (960, 540), (960, 540), (960, 540), (960, 540), (960, 540), (960, 540), (960, 540), (960, 540), (959, 541), (959, 543), (958, 544), (958, 546), (957, 548), (957, 548), (956, 551), (955, 553), (955, 554), (955, 555), (951, 564), (950, 568), (946, 577), (943, 583), (938, 595), (936, 600), (933, 607), (931, 613), (926, 624), (923, 630), (922, 633), (920, 637), (915, 653), (911, 663), (909, 672), (905, 680), (901, 692), (900, 697), (899, 701), (898, 704), (897, 711), (895, 715), (893, 724), (892, 736), (887, 761), (886, 776), (885, 791), (884, 808), (880, 841), (880, 856), (880, 873), (880, 892), (880, 921), (880, 932)]",101.53462065364472,"[5, 1, 9, 4, 7, 8, 2, 3, 6]","(0, 0.25)",CHN009D,CHN,D,English,Tue Sep 04 10:10:01 2018,Mouse
1,1,4,0,42,2,2,1,450,60,390,135,0,500,200,8000,"[(960, 540), (960, 540), (960, 540), (960, 540), (960, 540), (960, 539), (960, 539), (960, 538), (960, 538), (960, 537), (960, 535), (960, 534), (960, 533), (960, 529), (960, 526), (960, 521), (959, 513), (958, 497), (957, 492), (956, 486), (956, 482), (956, 472), (956, 466), (956, 459), (956, 450), (956, 427), (956, 413), (956, 402), (958, 391), (960, 373), (961, 366), (961, 360), (961, 352), (961, 336), (961, 325), (961, 311), (961, 297), (955, 268), (950, 255), (945, 237), (940, 220), (931, 187), (924, 167), (918, 147), (911, 129)]",263.201207219309,"[5, 1, 9, 4, 7, 8, 2, 3, 6]","(0, 0.25)",CHN009D,CHN,D,English,Tue Sep 04 10:10:01 2018,Mouse
1,1,4,0,43,7,7,1,350,80,270,135,0,500,200,8000,"[(960, 540), (960, 540), (960, 540), (960, 540), (960, 540), (960, 540), (960, 540), (955, 543), (951, 546), (948, 549), (932, 557), (922, 560), (912, 565), (899, 568), (865, 575), (850, 576), (835, 576), (820, 576), (793, 576), (781, 576), (771, 576), (762, 576), (744, 576), (733, 576), (722, 576), (710, 576), (680, 576), (667, 576), (650, 576), (635, 576), (619, 576), (590, 575), (577, 573), (563, 570), (534, 568)]",176.23948929424304,"[5, 1, 9, 4, 7, 8, 2, 3, 6]","(0, 0.25)",CHN009D,CHN,D,English,Tue Sep 04 10:10:01 2018,Mouse
1,1,4,0,44,7,7,1,389,49,340,134,0,500,200,8000,"[(960, 540), (960, 540), (960, 540), (960, 540), (959, 540), (956, 540), (952, 541), (948, 541), (939, 542), (931, 542), (917, 542), (912, 542), (908, 542), (903, 542), (892, 542), (888, 542), (886, 542), (883, 542), (876, 542), (871, 542), (866, 542), (856, 542), (833, 544), (818, 545), (803, 545), (785, 545), (745, 545), (717, 545), (695, 545), (675, 545), (642, 545), (627, 547), (615, 547), (604, 547), (582, 547), (573, 547), (567, 547), (563, 547), (560, 547)]",178.99742619623996,"[5, 1, 9, 4, 7, 8, 2, 3, 6]","(0, 0.25)",CHN009D,CHN,D,English,Tue Sep 04 10:10:01 2018,Mouse
1,1,4,0,45,8,5,0,-1930,239,1691,133,0,500,200,8000,"[(960, 540), (960, 540), (960, 540), (960, 540), (960, 540), (960, 540), (960, 540), (960, 540), (960, 540), (960, 540), (960, 540), (960, 540), (960, 540), (960, 540), (960, 540), (960, 540), (960, 540), (960, 540), (960, 540), (960, 540), (960, 540), (960, 540), (960, 540), (959, 540), (959, 540), (959, 540), (958, 540), (958, 540), (958, 540), (958, 540), (958, 540), (958, 540), (958, 540), (958, 540), (957, 540), (957, 540), (957, 540), (957, 540), (957, 540), (957, 540), (957, 540), (957, 540), (957, 540), (957, 540), (957, 540), (957, 540), (957, 540), (957, 540), (957, 540), (957, 540), (957, 540), (957, 540), (956, 540), (956, 540), (953, 543), (953, 543), (952, 546), (949, 548), (940, 550), (935, 550), (928, 549), (922, 546), (919, 544), (915, 539), (915, 539), (915, 539), (915, 539), (915, 539), (915, 539), (915, 539), (915, 539), (915, 539), (915, 539), (915, 539), (915, 539), (915, 539), (915, 539), (915, 539), (915, 539), (915, 539), (915, 539), (915, 539), (915, 539), (915, 539), (915, 539), (915, 539), (915, 539), (915, 539), (915, 539), (915, 539), (915, 539), (915, 539), (915, 539), (915, 539), (915, 539), (915, 539), (915, 539), (915, 539), (915, 539), (915, 539), (915, 539), (915, 539), (915, 539), (915, 539), (915, 539), (915, 540), (915, 540), (915, 540), (915, 540), (915, 540), (915, 540), (915, 540), (915, 540), (915, 540), (915, 540), (915, 540), (915, 540), (915, 540), (915, 540), (915, 541), (915, 541), (915, 542), (915, 543), (915, 543), (915, 543), (915, 543), (915, 543), (915, 543), (915, 544), (915, 544), (915, 544), (915, 544), (915, 544), (915, 544), (915, 544), (915, 544), (915, 544), (915, 544), (915, 544), (915, 544), (915, 544), (915, 544), (915, 544), (915, 544), (915, 544), (916, 546), (916, 546), (916, 546), (917, 547), (917, 547), (919, 549), (919, 549), (921, 550), (922, 550), (929, 550), (931, 550), (935, 552), (944, 553), (955, 554), (960, 555), (964, 555), (967, 557), (975, 559), (981, 562), (988, 565), (997, 569), (1017, 575), (1029, 581), (1039, 584), (1052, 588), (1074, 594), (1088, 598), (1104, 603), (1121, 608), (1166, 620), (1185, 625), (1202, 631), (1222, 636), (1245, 643), (1257, 646), (1266, 649), (1278, 652), (1295, 658), (1304, 663), (1307, 664), (1311, 664), (1317, 667), (1319, 668), (1322, 669), (1324, 671), (1330, 673), (1336, 676), (1343, 680)]",20.07913958430873,"[5, 1, 9, 4, 7, 8, 2, 3, 6]","(0, 0.25)",CHN009D,CHN,D,English,Tue Sep 04 10:10:01 2018,Mouse
1,1,4,0,46,5,3,0,-919,330,589,134,0,500,200,8000,"[(960, 540), (960, 540), (960, 540), (960, 540), (960, 540), (960, 540), (960, 540), (960, 540), (960, 540), (960, 540), (960, 540), (960, 540), (960, 540), (960, 540), (960, 540), (960, 540), (960, 540), (960, 540), (960, 540), (960, 540), (960, 540), (960, 540), (960, 540), (960, 540), (960, 540), (960, 540), (960, 540), (960, 540), (960, 540), (960, 540), (960, 540), (960, 540), (961, 540), (962, 540), (963, 539), (963, 538), (964, 532), (964, 528), (965, 524), (965, 522), (966, 516), (967, 512), (967, 508), (968, 506), (972, 494), (973, 489), (975, 483), (976, 477), (983, 461), (986, 454), (991, 445), (994, 438), (999, 429), (1010, 409), (1014, 402), (1020, 392), (1024, 386), (1031, 377), (1033, 374), (1034, 373), (1034, 373), (1034, 373), (1034, 373), (1034, 373), (1034, 373), (1034, 373), (1034, 373), (1034, 373), (1034, 373), (1034, 373), (1034, 373), (1034, 373), (1034, 373), (1034, 373), (1034, 373), (1034, 373), (1034, 373), (1034, 373), (1035, 370), (1037, 368), (1044, 360), (1057, 346), (1064, 342), (1071, 334), (1081, 325), (1108, 301), (1120, 291), (1137, 278), (1152, 264), (1184, 241), (1197, 230), (1209, 220)]",307.88737728696657,"[5, 1, 9, 4, 7, 8, 2, 3, 6]","(0, 0.25)",CHN009D,CHN,D,English,Tue Sep 04 10:10:01 2018,Mouse
1,1,4,0,47,3,3,1,599,59,540,135,0,500,200,8000,"[(960, 540), (960, 540), (960, 540), (960, 540), (960, 540), (960, 541), (960, 541), (960, 541), (960, 541), (960, 541), (960, 541), (960, 541), (960, 541), (960, 541), (960, 541), (960, 541), (960, 537), (960, 530), (962, 523), (964, 514), (968, 501), (969, 493), (972, 485), (973, 476), (978, 447), (978, 432), (979, 413), (981, 393), (983, 360), (984, 347), (985, 336), (989, 324), (992, 305), (995, 298), (997, 288), (1001, 278), (1008, 266), (1012, 258), (1016, 253), (1020, 248), (1027, 241), (1031, 238), (1036, 235), (1040, 232), (1051, 223), (1058, 220), (1064, 215), (1070, 211), (1081, 205), (1086, 202), (1089, 201), (1094, 198), (1098, 195), (1101, 194), (1104, 192), (1109, 189), (1116, 183), (1120, 179), (1123, 176), (1127, 172)]",294.4087536096378,"[5, 1, 9, 4, 7, 8, 2, 3, 6]","(0, 0.25)",CHN009D,CHN,D,English,Tue Sep 04 10:10:01 2018,Mouse
1,1,4,0,48,6,6,1,639,29,610,135,0,500,200,8000,"[(960, 540), (960, 540), (959, 542), (958, 542), (958, 544), (957, 544), (956, 545), (953, 548), (952, 549), (950, 551), (946, 553), (939, 558), (936, 560), (934, 561), (929, 562), (924, 567), (923, 567), (921, 570), (920, 570), (915, 571), (913, 573), (911, 573), (911, 574), (908, 575), (908, 575), (908, 575), (908, 575), (908, 575), (908, 575), (908, 575), (908, 575), (908, 575), (913, 570), (919, 562), (928, 555), (951, 538), (966, 531), (984, 524), (1003, 514), (1034, 507), (1047, 502), (1060, 500), (1076, 497), (1099, 494), (1110, 494), (1121, 494), (1127, 494), (1142, 494), (1150, 493), (1156, 491), (1162, 490), (1176, 486), (1184, 484), (1192, 481), (1200, 479), (1214, 473), (1221, 465), (1228, 457), (1235, 448), (1275, 424), (1294, 420), (1313, 415), (1330, 409), (1362, 403)]",341.1810941431657,"[5, 1, 9, 4, 7, 8, 2, 3, 6]","(0, 0.25)",CHN009D,CHN,D,English,Tue Sep 04 10:10:01 2018,Mouse
1,1,4,0,49,8,8,1,431,291,140,134,0,500,200,8000,"[(960, 540), (960, 540), (960, 540), (960, 540), (960, 540), (960, 540), (960, 540), (960, 540), (960, 540), (960, 540), (960, 540), (960, 540), (960, 540), (960, 540), (960, 540), (960, 540), (960, 540), (960, 540), (960, 540), (960, 540), (960, 540), (960, 540), (960, 540), (960, 540), (960, 540), (960, 540), (960, 540), (960, 540), (960, 540), (957, 542), (940, 541), (928, 537), (914, 535), (904, 530), (870, 518), (847, 509), (824, 495), (805, 481), (765, 440), (746, 417), (724, 384), (702, 358), (658, 321), (635, 303)]",216.10068178169178,"[5, 1, 9, 4, 7, 8, 2, 3, 6]","(0, 0.25)",CHN009D,CHN,D,English,Tue Sep 04 10:10:01 2018,Mouse
1,1,4,0,50,5,5,1,1118,258,860,133,0,500,200,8000,"[(960, 540), (960, 540), (960, 540), (960, 540), (960, 540), (960, 540), (960, 540), (960, 540), (960, 540), (960, 540), (960, 540), (960, 540), (960, 540), (960, 540), (960, 540), (960, 540), (960, 540), (960, 540), (960, 540), (960, 540), (960, 540), (960, 540), (960, 540), (960, 540), (960, 540), (964, 543), (967, 547), (970, 548), (973, 551), (982, 557), (989, 560), (991, 561), (994, 563), (999, 567), (1002, 569), (1008, 572), (1013, 574), (1027, 582), (1032, 584), (1039, 587), (1043, 589), (1051, 592), (1053, 593), (1054, 594), (1055, 594), (1055, 594), (1055, 594), (1055, 594), (1055, 594), (1055, 594), (1055, 594), (1055, 594), (1055, 594), (1055, 594), (1055, 594), (1055, 594), (1055, 594), (1055, 592), (1055, 589), (1055, 588), (1055, 586), (1055, 585), (1055, 585), (1056, 583), (1056, 583), (1058, 580), (1060, 578), (1062, 573), (1066, 566), (1075, 552), (1079, 545), (1083, 540), (1086, 535), (1093, 520), (1099, 508), (1103, 494), (1106, 478), (1119, 438), (1123, 422), (1128, 407), (1131, 396), (1134, 383), (1136, 379), (1137, 377), (1137, 375), (1138, 374), (1138, 374), (1138, 374), (1138, 374), (1138, 374), (1138, 374), (1138, 374), (1138, 378), (1138, 394), (1140, 405), (1140, 418), (1140, 428), (1140, 452), (1140, 461), (1140, 472), (1140, 480), (1141, 499), (1144, 512), (1148, 524), (1154, 539), (1184, 581), (1205, 607), (1224, 628), (1247, 646), (1293, 680), (1318, 697), (1342, 710)]",23.990315965840033,"[5, 1, 9, 4, 7, 8, 2, 3, 6]","(0, 0.25)",CHN009D,CHN,D,English,Tue Sep 04 10:10:01 2018,Mouse
1,1,4,0,51,4,6,0,-851,651,200,132,0,500,200,8000,"[(960, 540), (960, 540), (960, 540), (960, 540), (960, 540), (960, 540), (960, 540), (960, 540), (960, 540), (960, 540), (960, 540), (960, 540), (960, 540), (960, 540), (960, 540), (960, 540), (960, 540), (960, 540), (960, 540), (960, 540), (960, 540), (960, 540), (960, 540), (960, 540), (960, 540), (960, 540), (960, 540), (960, 540), (960, 540), (960, 540), (960, 540), (960, 540), (960, 540), (960, 540), (960, 540), (960, 540), (960, 540), (960, 540), (960, 540), (960, 540), (960, 540), (960, 540), (960, 540), (960, 540), (960, 540), (960, 540), (960, 540), (960, 540), (960, 540), (960, 540), (960, 540), (960, 540), (960, 540), (960, 540), (960, 540), (960, 540), (960, 540), (960, 540), (960, 540), (960, 540), (960, 540), (960, 540), (960, 540), (960, 540), (960, 540), (963, 540), (970, 539), (977, 539), (983, 537), (998, 533), (1008, 529), (1020, 523), (1041, 513), (1091, 488), (1121, 475), (1153, 461), (1184, 448), (1235, 432), (1257, 425), (1271, 421), (1281, 417), (1300, 411), (1307, 408), (1315, 405), (1323, 401), (1337, 395)]",338.9624889745782,"[5, 1, 9, 4, 7, 8, 2, 3, 6]","(0, 0.25)",CHN009D,CHN,D,English,Tue Sep 04 10:10:01 2018,Mouse
1,1,4,0,52,3,9,0,-558,138,420,133,0,500,200,8000,"[(960, 540), (960, 540), (960, 540), (960, 540), (960, 540), (960, 540), (960, 540), (960, 540), (960, 540), (960, 540), (960, 540), (960, 540), (960, 540), (959, 540), (959, 540), (958, 540), (957, 541), (957, 541), (957, 542), (953, 544), (953, 544), (951, 545), (950, 546), (947, 547), (946, 548), (944, 549), (943, 549), (940, 551), (939, 551), (939, 552), (938, 553), (936, 555), (935, 555), (934, 556), (932, 558), (926, 564), (921, 569), (919, 574), (915, 582), (906, 605), (903, 617), (898, 633), (894, 650), (884, 694), (881, 725), (876, 747), (871, 767), (865, 795), (864, 810), (861, 825), (859, 836), (857, 864), (853, 877), (852, 894), (849, 915), (847, 939)]",105.81254736238093,"[5, 1, 9, 4, 7, 8, 2, 3, 6]","(0, 0.25)",CHN009D,CHN,D,English,Tue Sep 04 10:10:01 2018,Mouse
1,1,4,0,53,7,6,0,-669,109,560,134,0,500,200,8000,"[(960, 540), (960, 540), (960, 540), (960, 540), (960, 540), (960, 540), (960, 540), (960, 540), (960, 540), (960, 540), (960, 539), (960, 538), (960, 538), (960, 537), (960, 537), (960, 536), (960, 536), (960, 535), (960, 534), (960, 534), (960, 534), (960, 533), (960, 531), (960, 529), (960, 528), (960, 525), (960, 524), (960, 522), (960, 521), (960, 519), (960, 517), (960, 516), (960, 515), (961, 513), (962, 510), (962, 509), (962, 508), (962, 508), (964, 506), (965, 505), (965, 504), (969, 502), (976, 500), (982, 500), (990, 496), (1001, 494), (1026, 486), (1039, 484), (1051, 480), (1061, 478), (1083, 473), (1090, 469), (1101, 465), (1111, 462), (1136, 453), (1149, 450), (1160, 445), (1169, 440), (1190, 433), (1204, 426), (1218, 423), (1234, 418), (1268, 409), (1288, 402), (1303, 397), (1322, 392), (1348, 382)]",337.8430361623618,"[5, 1, 9, 4, 7, 8, 2, 3, 6]","(0, 0.25)",CHN009D,CHN,D,English,Tue Sep 04 10:10:01 2018,Mouse
1,1,4,0,54,6,6,1,420,90,330,135,0,500,200,8000,"[(960, 540), (960, 540), (960, 540), (960, 540), (960, 540), (960, 540), (960, 540), (960, 540), (961, 539), (963, 539), (967, 542), (969, 542), (970, 542), (973, 543), (978, 543), (981, 543), (984, 541), (987, 541), (992, 537), (994, 536), (997, 533), (998, 531), (1002, 522), (1005, 517), (1008, 513), (1012, 508), (1018, 504), (1020, 503), (1023, 502), (1028, 499), (1043, 489), (1054, 482), (1067, 475), (1085, 468), (1125, 455), (1156, 454), (1189, 454), (1223, 454), (1280, 457), (1313, 464), (1340, 471), (1367, 475)]",350.92619527216317,"[5, 1, 9, 4, 7, 8, 2, 3, 6]","(0, 0.25)",CHN009D,CHN,D,English,Tue Sep 04 10:10:01 2018,Mouse
1,1,4,0,55,4,4,1,380,120,260,135,0,500,200,8000,"[(960, 540), (960, 540), (960, 540), (960, 540), (960, 540), (960, 540), (960, 540), (960, 540), (960, 540), (960, 540), (960, 540), (960, 538), (960, 536), (960, 534), (961, 530), (961, 528), (961, 527), (961, 525), (961, 523), (961, 522), (961, 522), (959, 520), (957, 520), (949, 520), (942, 520), (934, 520), (912, 520), (901, 522), (886, 529), (875, 537), (847, 563), (830, 582), (814, 604), (795, 632), (749, 697), (720, 733), (684, 773), (654, 813)]",138.26203347739676,"[5, 1, 9, 4, 7, 8, 2, 3, 6]","(0, 0.25)",CHN009D,CHN,D,English,Tue Sep 04 10:10:01 2018,Mouse
1,1,4,0,56,6,6,1,540,130,410,134,0,500,200,8000,"[(960, 540), (960, 540), (960, 540), (960, 540), (960, 540), (960, 540), (960, 540), (960, 540), (960, 540), (960, 540), (960, 540), (960, 540), (960, 538), (960, 538), (960, 537), (960, 535), (960, 535), (960, 533), (960, 532), (960, 530), (961, 528), (962, 527), (966, 521), (984, 508), (993, 502), (1000, 497), (1008, 494), (1026, 485), (1034, 483), (1043, 480), (1053, 479), (1073, 473), (1084, 470), (1095, 468), (1106, 463), (1134, 457), (1145, 455), (1157, 452), (1166, 450), (1182, 444), (1189, 441), (1194, 440), (1201, 436), (1212, 429), (1217, 425), (1222, 422), (1227, 420), (1243, 414), (1252, 411), (1265, 409), (1277, 404), (1307, 397), (1325, 392), (1338, 387)]",337.96377305985453,"[5, 1, 9, 4, 7, 8, 2, 3, 6]","(0, 0.25)",CHN009D,CHN,D,English,Tue Sep 04 10:10:01 2018,Mouse
1,1,4,0,57,1,1,1,911,451,460,133,0,500,200,8000,"[(960, 540), (960, 540), (960, 540), (960, 540), (960, 540), (960, 540), (960, 540), (960, 540), (960, 540), (960, 540), (960, 540), (960, 540), (960, 540), (960, 540), (960, 540), (960, 540), (960, 540), (960, 540), (960, 540), (960, 540), (960, 540), (960, 540), (960, 540), (960, 540), (960, 540), (960, 540), (960, 540), (960, 540), (960, 540), (960, 540), (960, 540), (960, 540), (960, 540), (960, 540), (960, 540), (960, 540), (960, 540), (960, 540), (960, 540), (960, 540), (960, 540), (960, 540), (960, 540), (960, 540), (960, 540), (960, 541), (960, 542), (960, 542), (960, 543), (960, 543), (960, 544), (960, 545), (960, 546), (961, 549), (961, 550), (962, 553), (966, 559), (975, 571), (978, 577), (982, 583), (985, 590), (988, 604), (992, 612), (992, 617), (993, 623), (997, 631), (1000, 635), (1000, 637), (1000, 638), (1003, 642), (1005, 644), (1006, 646), (1009, 651), (1019, 663), (1024, 672), (1030, 681), (1035, 691), (1048, 713), (1055, 724), (1062, 739), (1071, 753), (1090, 788), (1101, 802), (1109, 818), (1118, 832), (1129, 853), (1136, 865), (1139, 872), (1142, 881), (1146, 890), (1147, 893), (1148, 895)]",62.095313959450564,"[5, 1, 9, 4, 7, 8, 2, 3, 6]","(0, 0.25)",CHN009D,CHN,D,English,Tue Sep 04 10:10:01 2018,Mouse
1,1,4,0,58,3,1,0,-779,120,659,132,0,500,200,8000,"[(960, 540), (960, 540), (960, 540), (960, 540), (960, 540), (960, 540), (960, 540), (960, 540), (960, 540), (960, 540), (960, 540), (962, 540), (971, 540), (971, 540), (973, 540), (973, 540), (974, 540), (974, 540), (974, 540), (974, 540), (975, 540), (976, 539), (976, 539), (976, 539), (976, 539), (977, 539), (978, 539), (980, 539), (985, 539), (985, 539), (987, 539), (988, 539), (990, 539), (991, 539), (991, 539), (991, 539), (991, 538), (991, 538), (993, 538), (993, 538), (997, 536), (997, 536), (999, 534), (1001, 532), (1003, 530), (1008, 527), (1009, 527), (1011, 526), (1011, 526), (1011, 526), (1011, 526), (1011, 526), (1011, 526), (1011, 526), (1011, 526), (1012, 525), (1012, 525), (1013, 531), (1014, 537), (1015, 542), (1016, 547), (1018, 556), (1018, 563), (1021, 570), (1024, 580), (1032, 601), (1035, 612), (1039, 625), (1041, 634), (1051, 655), (1056, 669), (1063, 684), (1075, 708), (1101, 756), (1111, 780), (1128, 807), (1143, 837), (1171, 883)]",58.40181868737851,"[5, 1, 9, 4, 7, 8, 2, 3, 6]","(0, 0.25)",CHN009D,CHN,D,English,Tue Sep 04 10:10:01 2018,Mouse
1,1,4,0,59,2,7,0,-526,186,340,133,0,500,200,8000,"[(960, 540), (960, 540), (960, 540), (960, 540), (960, 540), (960, 540), (960, 540), (960, 540), (960, 540), (960, 540), (960, 540), (960, 540), (960, 540), (960, 540), (960, 540), (960, 540), (960, 540), (960, 540), (958, 537), (958, 537), (957, 536), (955, 533), (945, 529), (937, 525), (928, 522), (917, 518), (898, 511), (889, 508), (879, 506), (868, 502), (854, 500), (845, 499), (835, 496), (824, 494), (806, 491), (800, 491), (792, 491), (783, 491), (761, 491), (751, 491), (743, 493), (734, 496), (715, 499), (704, 501), (691, 504), (679, 505), (649, 509), (636, 509), (621, 509), (606, 509), (581, 509), (570, 509), (552, 509)]",184.34500735805295,"[5, 1, 9, 4, 7, 8, 2, 3, 6]","(0, 0.25)",CHN009D,CHN,D,English,Tue Sep 04 10:10:01 2018,Mouse
1,1,4,0,60,6,6,1,529,169,360,134,0,500,200,8000,"[(960, 540), (960, 540), (960, 540), (960, 540), (960, 540), (960, 540), (960, 540), (960, 540), (960, 540), (960, 540), (960, 540), (960, 540), (960, 540), (960, 540), (960, 540), (960, 540), (961, 540), (961, 540), (962, 540), (962, 540), (972, 540), (982, 540), (993, 540), (1004, 540), (1027, 540), (1038, 540), (1051, 540), (1066, 540), (1102, 540), (1123, 539), (1142, 535), (1155, 534), (1183, 528), (1200, 522), (1214, 517), (1232, 509), (1250, 498), (1255, 494), (1260, 489), (1263, 484), (1267, 476), (1269, 472), (1271, 466), (1274, 459), (1283, 440), (1289, 432), (1294, 423), (1299, 415), (1313, 399), (1318, 394), (1323, 389), (1326, 385), (1334, 374)]",336.0659456531187,"[5, 1, 9, 4, 7, 8, 2, 3, 6]","(0, 0.25)",CHN009D,CHN,D,English,Tue Sep 04 10:10:01 2018,Mouse
1,1,4,0,61,6,6,1,560,150,410,134,0,500,200,8000,"[(960, 540), (960, 540), (960, 540), (960, 540), (960, 540), (960, 540), (960, 540), (960, 540), (960, 540), (960, 540), (960, 540), (960, 540), (960, 540), (960, 540), (963, 539), (973, 539), (987, 539), (999, 539), (1027, 541), (1039, 542), (1048, 542), (1055, 542), (1060, 542), (1063, 542), (1064, 540), (1066, 536), (1067, 534), (1071, 530), (1077, 523), (1095, 507), (1108, 499), (1119, 490), (1128, 482), (1135, 476), (1149, 468), (1154, 464), (1159, 457), (1166, 448), (1167, 446), (1171, 443), (1173, 442), (1181, 437), (1188, 435), (1196, 434), (1207, 433), (1228, 432), (1238, 432), (1249, 429), (1260, 428), (1269, 427), (1289, 421), (1298, 418), (1306, 415), (1315, 410), (1328, 403), (1337, 398)]",339.3607244794116,"[5, 1, 9, 4, 7, 8, 2, 3, 6]","(0, 0.25)",CHN009D,CHN,D,English,Tue Sep 04 10:10:01 2018,Mouse
1,1,4,0,62,2,2,1,520,110,410,133,0,500,200,8000,"[(960, 540), (960, 540), (960, 540), (960, 540), (960, 540), (960, 540), (960, 540), (960, 540), (960, 540), (960, 540), (960, 541), (960, 541), (959, 544), (959, 546), (959, 547), (959, 548), (959, 550), (959, 550), (959, 550), (959, 550), (959, 550), (959, 550), (959, 550), (959, 550), (959, 550), (959, 550), (959, 550), (959, 550), (959, 549), (959, 547), (959, 546), (959, 545), (959, 541), (959, 539), (959, 537), (959, 533), (960, 516), (963, 506), (964, 493), (966, 479), (971, 448), (971, 433), (971, 416), (971, 397), (971, 352), (970, 326), (966, 302), (959, 272), (942, 213), (932, 185), (924, 157), (914, 131)]",263.5829424838463,"[5, 1, 9, 4, 7, 8, 2, 3, 6]","(0, 0.25)",CHN009D,CHN,D,English,Tue Sep 04 10:10:01 2018,Mouse
1,1,4,0,63,5,3,0,-452,282,170,132,0,500,200,8000,"[(960, 540), (960, 540), (960, 540), (960, 540), (960, 540), (960, 540), (960, 540), (960, 540), (960, 540), (960, 540), (960, 540), (960, 540), (960, 540), (960, 540), (960, 540), (960, 540), (960, 540), (960, 540), (960, 540), (960, 540), (960, 540), (960, 540), (960, 540), (960, 540), (960, 540), (960, 540), (960, 540), (960, 540), (961, 536), (961, 529), (964, 518), (965, 508), (971, 489), (980, 474), (988, 458), (996, 437), (1020, 389), (1036, 367), (1050, 347), (1068, 324), (1100, 281), (1115, 261), (1129, 246), (1141, 233), (1163, 210), (1173, 198)]",301.9149400637678,"[5, 1, 9, 4, 7, 8, 2, 3, 6]","(0, 0.25)",CHN009D,CHN,D,English,Tue Sep 04 10:10:01 2018,Mouse
1,1,4,0,64,1,5,0,-551,221,330,133,0,500,200,8000,"[(960, 540), (960, 540), (960, 540), (960, 540), (960, 540), (960, 540), (960, 540), (960, 540), (960, 540), (960, 540), (960, 540), (960, 540), (960, 540), (960, 540), (960, 540), (960, 540), (960, 540), (960, 540), (960, 540), (960, 540), (960, 540), (960, 540), (961, 547), (963, 550), (968, 556), (972, 560), (985, 571), (990, 575), (996, 579), (1003, 583), (1016, 592), (1021, 596), (1027, 600), (1033, 602), (1052, 611), (1061, 616), (1071, 619), (1081, 623), (1095, 628), (1102, 633), (1108, 635), (1116, 638), (1125, 641), (1132, 645), (1136, 646), (1140, 648), (1155, 652), (1166, 655), (1178, 659), (1194, 664), (1230, 673), (1247, 679), (1265, 684), (1289, 690), (1323, 699), (1343, 706)]",23.432890916849928,"[5, 1, 9, 4, 7, 8, 2, 3, 6]","(0, 0.25)",CHN009D,CHN,D,English,Tue Sep 04 10:10:01 2018,Mouse
1,1,4,0,65,5,3,0,-528,208,320,134,0,500,200,8000,"[(960, 540), (960, 540), (960, 540), (960, 540), (960, 540), (960, 540), (960, 540), (960, 540), (960, 540), (960, 540), (960, 540), (960, 540), (960, 540), (960, 540), (960, 540), (960, 540), (960, 540), (960, 540), (960, 540), (960, 540), (960, 530), (960, 519), (960, 498), (958, 488), (957, 477), (956, 466), (952, 445), (950, 435), (950, 427), (949, 420), (949, 406), (949, 399), (949, 395), (952, 389), (958, 377), (964, 371), (973, 364), (980, 356), (997, 342), (1007, 334), (1015, 326), (1024, 317), (1039, 299), (1049, 290), (1059, 278), (1072, 263), (1102, 231), (1114, 222), (1125, 215), (1137, 209), (1153, 202), (1161, 197), (1169, 193)]",301.06078570182933,"[5, 1, 9, 4, 7, 8, 2, 3, 6]","(0, 0.25)",CHN009D,CHN,D,English,Tue Sep 04 10:10:01 2018,Mouse
1,1,4,0,66,2,2,1,919,679,240,135,0,500,200,8000,"[(960, 540), (960, 540), (960, 540), (960, 540), (960, 540), (960, 540), (960, 540), (960, 540), (960, 540), (960, 540), (960, 540), (960, 540), (960, 540), (960, 540), (960, 540), (960, 540), (960, 540), (960, 540), (960, 540), (960, 540), (960, 540), (960, 540), (960, 540), (960, 540), (960, 540), (960, 540), (960, 540), (960, 540), (960, 540), (960, 540), (960, 540), (960, 540), (960, 540), (960, 540), (960, 540), (960, 540), (960, 540), (960, 540), (960, 540), (960, 540), (960, 540), (960, 540), (960, 540), (960, 540), (960, 540), (960, 540), (960, 540), (960, 540), (960, 540), (960, 540), (960, 540), (960, 540), (960, 540), (960, 540), (960, 540), (960, 540), (960, 540), (960, 540), (960, 540), (960, 540), (960, 540), (960, 540), (960, 540), (960, 540), (960, 540), (960, 540), (960, 540), (961, 540), (967, 529), (968, 527), (968, 524), (962, 519), (937, 499), (927, 488), (917, 482), (903, 472), (889, 455), (886, 447), (882, 435), (881, 428), (875, 407), (872, 397), (871, 388), (871, 376), (871, 348), (877, 330), (884, 310), (897, 286), (913, 232), (924, 194), (935, 155), (947, 126)]",268.2014481461346,"[5, 1, 9, 4, 7, 8, 2, 3, 6]","(0, 0.25)",CHN009D,CHN,D,English,Tue Sep 04 10:10:01 2018,Mouse
1,1,4,0,67,3,5,0,-890,150,740,135,0,500,200,8000,"[(960, 540), (960, 540), (960, 540), (960, 540), (960, 540), (960, 540), (960, 540), (960, 540), (960, 540), (960, 540), (960, 540), (960, 540), (960, 540), (960, 540), (960, 541), (959, 544), (957, 546), (956, 546), (956, 547), (955, 547), (953, 548), (953, 548), (953, 548), (953, 548), (953, 548), (953, 548), (953, 548), (953, 548), (953, 548), (953, 548), (953, 548), (953, 548), (953, 548), (953, 548), (953, 549), (953, 551), (953, 553), (953, 554), (955, 559), (959, 566), (964, 571), (972, 576), (979, 583), (993, 591), (1000, 598), (1005, 601), (1010, 604), (1022, 610), (1028, 614), (1036, 619), (1044, 621), (1070, 629), (1083, 632), (1097, 636), (1111, 641), (1134, 647), (1144, 649), (1151, 651), (1154, 653), (1162, 657), (1162, 657), (1162, 657), (1162, 657), (1162, 657), (1162, 657), (1162, 657), (1162, 657), (1162, 657), (1162, 657), (1164, 657), (1164, 657), (1164, 657), (1164, 657), (1166, 658), (1169, 660), (1180, 662), (1186, 665), (1194, 667), (1214, 672), (1224, 676), (1232, 678), (1243, 681), (1266, 687), (1277, 688), (1286, 689), (1296, 690), (1315, 695), (1324, 698), (1334, 701)]",23.290973180305773,"[5, 1, 9, 4, 7, 8, 2, 3, 6]","(0, 0.25)",CHN009D,CHN,D,English,Tue Sep 04 10:10:01 2018,Mouse
1,1,4,0,68,1,2,0,-1129,49,1080,136,0,500,200,8000,"[(960, 540), (960, 540), (960, 540), (960, 540), (959, 541), (954, 542), (948, 542), (939, 542), (921, 543), (911, 545), (904, 546), (897, 546), (880, 540), (872, 536), (865, 533), (862, 532), (860, 531), (860, 531), (860, 531), (860, 531), (859, 531), (859, 530), (859, 529), (859, 527), (864, 520), (870, 514), (877, 509), (886, 504), (906, 487), (916, 478), (930, 467), (940, 456), (974, 427), (990, 413), (1005, 399), (1025, 383), (1057, 358), (1067, 349), (1074, 339), (1080, 329), (1089, 309), (1090, 302), (1093, 293), (1094, 286), (1096, 272), (1096, 266), (1096, 259), (1096, 254), (1098, 242), (1098, 240), (1099, 236), (1099, 233), (1100, 231), (1100, 230), (1100, 230), (1100, 230), (1100, 230), (1100, 230), (1100, 230), (1100, 230), (1100, 230), (1100, 230), (1100, 230), (1100, 230), (1100, 230), (1100, 230), (1100, 230), (1100, 230), (1100, 230), (1100, 230), (1100, 230), (1100, 230), (1100, 230), (1100, 230), (1100, 230), (1099, 232), (1098, 233), (1097, 236), (1096, 237), (1095, 239), (1094, 241), (1094, 243), (1092, 244), (1092, 244), (1092, 245), (1092, 245), (1092, 245), (1092, 245), (1091, 246), (1091, 246), (1091, 246), (1091, 246), (1091, 246), (1091, 246), (1091, 246), (1091, 246), (1091, 246), (1091, 246), (1091, 246), (1091, 246), (1086, 246), (1079, 246), (1067, 243), (1053, 238), (1017, 223), (999, 213), (980, 202), (961, 191), (932, 171), (926, 166), (920, 160), (915, 151), (910, 134)]",262.97922085479877,"[5, 1, 9, 4, 7, 8, 2, 3, 6]","(0, 0.25)",CHN009D,CHN,D,English,Tue Sep 04 10:10:01 2018,Mouse
1,1,4,0,69,1,1,1,351,11,340,137,0,500,200,8000,"[(960, 540), (960, 542), (961, 545), (965, 551), (969, 555), (974, 560), (979, 565), (987, 573), (992, 577), (997, 582), (999, 585), (1008, 595), (1012, 601), (1017, 607), (1021, 615), (1029, 626), (1034, 633), (1038, 639), (1040, 644), (1045, 655), (1048, 662), (1050, 672), (1053, 684), (1060, 707), (1065, 721), (1068, 733), (1074, 748), (1091, 784), (1097, 800), (1105, 815), (1112, 829), (1128, 853), (1135, 866), (1140, 875), (1146, 885), (1154, 904)]",61.943855271209046,"[5, 1, 9, 4, 7, 8, 2, 3, 6]","(0, 0.25)",CHN009D,CHN,D,English,Tue Sep 04 10:10:01 2018,Mouse
1,1,4,0,70,7,7,1,370,70,300,137,0,500,200,8000,"[(960, 540), (960, 540), (960, 540), (960, 540), (960, 540), (960, 540), (959, 541), (958, 541), (956, 541), (956, 541), (950, 541), (949, 541), (946, 541), (943, 541), (937, 541), (933, 541), (929, 541), (925, 541), (910, 541), (899, 541), (885, 539), (871, 538), (843, 535), (823, 533), (811, 532), (794, 530), (771, 529), (761, 529), (749, 529), (740, 529), (714, 529), (699, 529), (682, 529), (651, 530), (593, 538), (565, 545), (535, 553)]",178.24796950197847,"[5, 1, 9, 4, 7, 8, 2, 3, 6]","(0, 0.25)",CHN009D,CHN,D,English,Tue Sep 04 10:10:01 2018,Mouse
1,1,4,0,71,5,5,1,338,68,270,136,0,500,200,8000,"[(960, 540), (960, 540), (960, 540), (960, 540), (960, 540), (960, 540), (962, 541), (969, 543), (975, 544), (990, 546), (998, 548), (1003, 549), (1010, 551), (1021, 554), (1025, 555), (1033, 557), (1040, 560), (1062, 564), (1076, 569), (1093, 572), (1115, 578), (1151, 588), (1167, 591), (1182, 598), (1197, 603), (1222, 609), (1234, 614), (1244, 616), (1255, 620), (1279, 626), (1293, 631), (1307, 634), (1323, 638), (1356, 653)]",15.926284567571226,"[5, 1, 9, 4, 7, 8, 2, 3, 6]","(0, 0.25)",CHN009D,CHN,D,English,Tue Sep 04 10:10:01 2018,Mouse
1,1,4,0,72,2,2,1,570,220,350,135,0,500,200,8000,"[(960, 540), (960, 540), (960, 540), (960, 540), (960, 540), (960, 540), (960, 540), (960, 540), (960, 540), (960, 540), (960, 540), (960, 540), (960, 540), (960, 540), (960, 540), (960, 540), (960, 540), (960, 540), (960, 540), (960, 540), (960, 540), (960, 538), (958, 525), (958, 518), (953, 506), (947, 494), (941, 476), (939, 467), (937, 463), (936, 460), (933, 451), (932, 444), (932, 437), (931, 428), (928, 409), (926, 398), (924, 387), (923, 381), (918, 366), (917, 361), (913, 353), (912, 346), (906, 330), (905, 325), (902, 315), (900, 305), (896, 282), (895, 268), (895, 254), (895, 242), (895, 218), (895, 204), (895, 191), (895, 178), (896, 155), (897, 145), (899, 134)]",261.455433166782,"[5, 1, 9, 4, 7, 8, 2, 3, 6]","(0, 0.25)",CHN009D,CHN,D,English,Tue Sep 04 10:10:01 2018,Mouse
1,1,4,0,73,4,4,1,499,69,430,134,0,500,200,8000,"[(960, 540), (960, 540), (960, 540), (960, 540), (960, 540), (960, 540), (959, 542), (958, 548), (954, 562), (952, 570), (948, 578), (943, 587), (937, 602), (934, 609), (932, 615), (928, 620), (924, 630), (921, 635), (918, 641), (916, 650), (907, 666), (903, 673), (901, 680), (897, 687), (891, 695), (889, 697), (888, 699), (884, 703), (876, 710), (870, 716), (863, 721), (848, 727), (811, 745), (790, 754), (772, 763), (754, 771), (728, 784), (715, 790), (704, 794), (695, 799), (682, 805), (680, 805), (677, 807), (677, 807), (676, 809), (675, 809), (674, 811), (673, 811), (671, 815), (669, 816)]",136.51540790002213,"[5, 1, 9, 4, 7, 8, 2, 3, 6]","(0, 0.25)",CHN009D,CHN,D,English,Tue Sep 04 10:10:01 2018,Mouse
1,1,4,0,74,5,5,1,1680,420,1260,133,0,500,200,8000,"[(960, 540), (960, 540), (960, 540), (960, 540), (960, 540), (960, 540), (960, 540), (960, 540), (960, 540), (960, 540), (960, 540), (960, 540), (960, 540), (960, 540), (960, 540), (960, 540), (960, 540), (960, 540), (960, 540), (960, 540), (960, 540), (960, 540), (960, 540), (960, 540), (960, 540), (960, 540), (960, 540), (960, 540), (960, 540), (960, 540), (960, 540), (960, 540), (960, 540), (960, 540), (960, 540), (960, 540), (960, 540), (960, 540), (960, 540), (960, 540), (960, 540), (961, 540), (964, 540), (968, 540), (973, 540), (975, 540), (976, 540), (977, 540), (977, 540), (977, 540), (977, 540), (977, 540), (977, 540), (977, 540), (977, 540), (977, 540), (977, 540), (977, 540), (977, 540), (977, 540), (977, 540), (977, 540), (977, 540), (977, 540), (977, 540), (977, 540), (977, 540), (977, 540), (977, 540), (977, 540), (977, 540), (977, 540), (977, 540), (977, 540), (977, 540), (977, 540), (977, 540), (977, 540), (977, 540), (977, 540), (977, 540), (977, 540), (977, 540), (977, 540), (977, 540), (977, 540), (977, 540), (977, 540), (977, 540), (977, 540), (977, 540), (977, 540), (977, 540), (977, 540), (977, 540), (977, 540), (977, 540), (977, 540), (977, 540), (977, 540), (977, 540), (977, 540), (980, 540), (984, 541), (994, 547), (999, 549), (1005, 552), (1007, 553), (1012, 555), (1015, 557), (1016, 557), (1019, 559), (1022, 560), (1025, 561), (1030, 564), (1037, 566), (1058, 572), (1072, 576), (1089, 582), (1100, 584), (1120, 589), (1127, 592), (1132, 594), (1132, 594), (1132, 594), (1132, 594), (1132, 594), (1132, 594), (1132, 594), (1132, 594), (1132, 594), (1132, 594), (1132, 594), (1132, 594), (1132, 594), (1132, 594), (1132, 594), (1132, 594), (1132, 594), (1132, 594), (1132, 594), (1132, 594), (1132, 594), (1132, 594), (1132, 594), (1132, 594), (1132, 594), (1132, 594), (1132, 594), (1132, 594), (1134, 596), (1135, 597), (1142, 602), (1149, 606), (1159, 612), (1171, 617), (1200, 634), (1214, 641), (1227, 648), (1240, 654), (1258, 663), (1266, 666), (1273, 670), (1282, 676), (1305, 688), (1312, 693), (1324, 699), (1334, 704)]",23.677579440692764,"[5, 1, 9, 4, 7, 8, 2, 3, 6]","(0, 0.25)",CHN009D,CHN,D,English,Tue Sep 04 10:10:01 2018,Mouse
1,1,4,0,75,4,4,1,470,60,410,132,0,500,200,8000,"[(960, 540), (960, 540), (960, 540), (960, 540), (960, 540), (958, 540), (955, 540), (944, 540), (936, 540), (932, 540), (928, 540), (926, 540), (926, 540), (926, 540), (926, 540), (926, 540), (926, 540), (926, 540), (926, 540), (926, 540), (923, 540), (923, 540), (919, 542), (900, 552), (890, 559), (882, 564), (871, 572), (847, 597), (828, 615), (811, 628), (790, 646), (766, 672), (757, 693), (749, 708), (744, 721), (739, 741), (737, 745), (735, 749), (734, 753), (731, 761), (728, 768), (722, 776), (717, 785), (701, 801), (693, 810), (682, 818), (669, 825)]",135.59680945122918,"[5, 1, 9, 4, 7, 8, 2, 3, 6]","(0, 0.25)",CHN009D,CHN,D,English,Tue Sep 04 10:10:01 2018,Mouse
1,1,4,0,76,3,3,1,2889,280,2609,131,0,500,200,8000,"[(960, 540), (960, 540), (960, 540), (960, 540), (960, 540), (960, 540), (960, 540), (960, 540), (960, 540), (960, 540), (960, 540), (960, 540), (960, 540), (960, 540), (960, 540), (960, 540), (960, 540), (960, 540), (960, 540), (960, 540), (960, 540), (960, 540), (960, 540), (960, 540), (960, 540), (960, 540), (960, 540), (960, 539), (960, 539), (961, 539), (962, 538), (964, 536), (964, 536), (964, 536), (964, 536), (965, 535), (965, 535), (965, 535), (965, 535), (965, 535), (965, 535), (965, 535), (965, 535), (965, 535), (965, 535), (965, 535), (965, 535), (965, 535), (965, 535), (965, 535), (965, 535), (965, 535), (965, 535), (965, 535), (965, 535), (965, 535), (965, 535), (965, 535), (965, 535), (965, 535), (965, 535), (965, 535), (965, 535), (965, 535), (965, 535), (965, 535), (965, 535), (965, 535), (965, 535), (965, 535), (965, 535), (965, 535), (965, 535), (965, 535), (965, 535), (965, 535), (965, 535), (965, 535), (965, 535), (965, 535), (965, 535), (965, 535), (965, 535), (965, 535), (965, 535), (965, 535), (965, 535), (965, 535), (965, 535), (965, 535), (965, 535), (965, 535), (965, 535), (965, 535), (965, 535), (965, 535), (965, 535), (965, 535), (965, 535), (965, 535), (965, 535), (965, 535), (965, 535), (965, 535), (965, 535), (965, 535), (965, 535), (966, 535), (971, 535), (974, 535), (978, 537), (981, 539), (991, 543), (997, 545), (1003, 548), (1006, 549), (1017, 554), (1021, 556), (1025, 558), (1025, 559), (1028, 563), (1029, 563), (1030, 564), (1031, 565), (1032, 566), (1032, 566), (1032, 566), (1033, 567), (1033, 567), (1033, 567), (1033, 567), (1033, 567), (1033, 567), (1033, 567), (1033, 567), (1033, 567), (1034, 567), (1034, 567), (1034, 567), (1035, 567), (1037, 565), (1037, 563), (1037, 560), (1037, 558), (1037, 552), (1037, 549), (1037, 546), (1037, 544), (1037, 541), (1037, 539), (1037, 539), (1037, 539), (1037, 539), (1037, 539), (1037, 539), (1037, 539), (1037, 539), (1037, 539), (1037, 539), (1037, 539), (1037, 539), (1037, 539), (1037, 539), (1037, 539), (1037, 539), (1037, 539), (1037, 539), (1037, 539), (1037, 539), (1037, 539), (1037, 539), (1037, 539), (1037, 539), (1037, 539), (1037, 539), (1037, 539), (1037, 539), (1037, 539), (1037, 539), (1037, 539), (1036, 540), (1036, 541), (1036, 542), (1036, 543), (1034, 546), (1034, 546), (1034, 547), (1034, 548), (1033, 549), (1033, 552), (1032, 556), (1032, 560), (1024, 580), (1021, 594), (1015, 614), (1009, 639), (1001, 697), (1001, 722), (1001, 745), (1001, 765), (1001, 820), (1001, 831), (1002, 836), (1002, 844), (1002, 867), (1002, 877), (1001, 885), (1001, 895), (1001, 908), (1001, 909), (1001, 909), (1001, 909), (1001, 909), (1001, 909), (1001, 909), (1001, 909), (1001, 909), (1001, 909), (1001, 909), (1001, 908), (1001, 904), (1001, 901), (1001, 898), (1001, 896), (1001, 893), (1001, 891), (1001, 889), (1001, 888), (1001, 887), (1001, 887), (1001, 887), (1001, 886), (1001, 885), (1001, 884), (1001, 883), (1001, 881), (1001, 877), (1001, 874), (1001, 870), (1001, 865), (1006, 850), (1009, 837), (1014, 821), (1024, 793), (1049, 707), (1059, 660), (1071, 608), (1080, 559), (1092, 478), (1095, 444), (1095, 427), (1095, 412), (1097, 386), (1098, 375), (1101, 363), (1103, 352), (1106, 332), (1108, 326), (1109, 326), (1109, 325), (1109, 325), (1109, 325), (1109, 325), (1109, 325), (1109, 325), (1109, 325), (1109, 325), (1110, 325), (1110, 330), (1110, 331), (1110, 332), (1110, 332), (1110, 332), (1110, 332), (1110, 332), (1110, 332), (1110, 330), (1111, 326), (1112, 319), (1115, 309), (1123, 288), (1129, 276), (1133, 266), (1138, 255), (1149, 233), (1154, 223), (1160, 213), (1163, 205), (1171, 189)]",301.0117429358562,"[5, 1, 9, 4, 7, 8, 2, 3, 6]","(0, 0.25)",CHN009D,CHN,D,English,Tue Sep 04 10:10:01 2018,Mouse
1,1,4,0,77,2,3,0,-949,429,520,130,0,500,200,8000,"[(960, 540), (960, 540), (960, 540), (960, 540), (960, 540), (960, 540), (960, 540), (960, 540), (960, 540), (960, 540), (960, 540), (960, 540), (960, 540), (960, 540), (960, 540), (960, 540), (960, 540), (960, 540), (960, 540), (960, 540), (960, 540), (960, 540), (960, 540), (960, 540), (960, 540), (960, 540), (960, 540), (960, 540), (960, 540), (960, 540), (960, 540), (960, 540), (960, 540), (960, 540), (960, 540), (960, 540), (960, 540), (960, 540), (960, 540), (960, 540), (960, 540), (960, 540), (962, 539), (968, 538), (971, 534), (976, 532), (980, 528), (982, 525), (985, 523), (986, 522), (993, 509), (995, 504), (998, 497), (1000, 489), (1007, 470), (1009, 463), (1012, 456), (1014, 451), (1018, 440), (1022, 433), (1025, 424), (1029, 414), (1038, 387), (1044, 372), (1051, 355), (1059, 336), (1073, 307), (1080, 291), (1087, 281), (1094, 270), (1105, 253), (1109, 246), (1113, 238), (1115, 235), (1119, 226), (1120, 224), (1120, 220), (1122, 216), (1125, 208), (1128, 204), (1129, 200), (1131, 197), (1133, 194), (1135, 191), (1135, 191), (1136, 190), (1136, 189), (1138, 188), (1138, 187), (1140, 186), (1141, 186), (1142, 185), (1144, 185), (1144, 185), (1145, 184)]",297.45922708540985,"[5, 1, 9, 4, 7, 8, 2, 3, 6]","(0, 0.25)",CHN009D,CHN,D,English,Tue Sep 04 10:10:01 2018,Mouse
1,1,4,0,78,5,5,1,730,280,450,131,0,500,200,8000,"[(960, 540), (960, 540), (960, 540), (960, 540), (960, 540), (960, 540), (960, 540), (960, 540), (960, 540), (960, 540), (960, 540), (960, 540), (960, 540), (960, 540), (960, 540), (960, 540), (960, 540), (960, 540), (960, 540), (960, 540), (960, 540), (960, 540), (960, 540), (960, 540), (960, 540), (960, 540), (960, 540), (962, 540), (969, 540), (975, 540), (986, 541), (993, 541), (999, 543), (1007, 544), (1020, 545), (1027, 546), (1032, 548), (1037, 548), (1049, 550), (1055, 551), (1062, 553), (1066, 553), (1073, 554), (1074, 555), (1076, 555), (1077, 555), (1080, 557), (1082, 558), (1085, 559), (1089, 561), (1096, 566), (1101, 570), (1104, 572), (1112, 577), (1124, 586), (1130, 592), (1135, 597), (1143, 604), (1159, 615), (1170, 623), (1180, 628), (1193, 635), (1220, 650), (1230, 655), (1242, 660), (1254, 665), (1272, 672), (1282, 677), (1292, 681), (1301, 686), (1318, 693), (1327, 696), (1336, 700)]",23.051300916473025,"[5, 1, 9, 4, 7, 8, 2, 3, 6]","(0, 0.25)",CHN009D,CHN,D,English,Tue Sep 04 10:10:01 2018,Mouse
1,1,4,0,79,9,5,0,-590,260,330,131,0,500,200,8000,"[(960, 540), (960, 540), (960, 540), (960, 540), (960, 540), (960, 540), (960, 540), (960, 540), (960, 540), (960, 540), (960, 540), (960, 540), (960, 540), (960, 540), (960, 540), (960, 540), (960, 540), (960, 540), (960, 540), (960, 540), (960, 540), (960, 540), (960, 540), (960, 540), (960, 540), (963, 540), (964, 540), (971, 542), (976, 542), (980, 544), (985, 545), (1000, 549), (1009, 552), (1016, 554), (1027, 558), (1040, 561), (1046, 563), (1053, 565), (1061, 568), (1086, 576), (1096, 581), (1115, 589), (1140, 596), (1175, 609), (1189, 614), (1206, 619), (1217, 620), (1237, 630), (1249, 633), (1256, 636), (1266, 637), (1280, 643), (1289, 646), (1297, 648), (1304, 649), (1323, 655), (1331, 658), (1338, 659), (1344, 660)]",17.35402463626132,"[5, 1, 9, 4, 7, 8, 2, 3, 6]","(0, 0.25)",CHN009D,CHN,D,English,Tue Sep 04 10:10:01 2018,Mouse
1,1,4,0,80,2,2,1,690,90,600,132,0,500,200,8000,"[(960, 540), (960, 540), (960, 540), (960, 540), (960, 540), (960, 540), (960, 540), (960, 540), (960, 541), (960, 541), (958, 540), (958, 535), (958, 532), (957, 529), (956, 527), (954, 523), (954, 520), (953, 517), (952, 515), (951, 511), (950, 509), (949, 506), (948, 503), (945, 491), (943, 483), (941, 475), (939, 467), (938, 454), (935, 446), (934, 436), (933, 424), (929, 402), (929, 391), (929, 374), (928, 362), (925, 331), (922, 313), (921, 296), (917, 277), (909, 245), (906, 234), (905, 225), (899, 213), (894, 194), (892, 187), (890, 181), (890, 179), (889, 171), (889, 169), (889, 167), (889, 164), (889, 161), (889, 158), (889, 157), (889, 156), (889, 155), (889, 155), (889, 155), (889, 155), (889, 155), (889, 155), (889, 155), (889, 155), (889, 153), (889, 151), (889, 151), (889, 149), (889, 147), (889, 145)]",259.8100769375367,"[5, 1, 9, 4, 7, 8, 2, 3, 6]","(0, 0.25)",CHN009D,CHN,D,English,Tue Sep 04 10:10:01 2018,Mouse
1,1,4,0,81,2,2,1,661,181,480,132,0,500,200,8000,"[(960, 540), (960, 540), (960, 540), (960, 540), (960, 540), (960, 540), (960, 540), (960, 540), (960, 540), (960, 540), (960, 540), (960, 540), (960, 540), (960, 540), (960, 540), (960, 540), (960, 540), (960, 540), (958, 540), (952, 538), (939, 526), (918, 506), (866, 459), (839, 432), (818, 413), (800, 392), (788, 375), (787, 369), (787, 362), (787, 356), (796, 334), (802, 322), (808, 312), (810, 306), (814, 298), (817, 292), (819, 286), (822, 282), (823, 278), (823, 275), (826, 272), (827, 269), (834, 260), (837, 257), (842, 254), (845, 251), (849, 249), (849, 249), (849, 249), (849, 249), (849, 249), (849, 249), (849, 249), (850, 247), (855, 242), (857, 241), (860, 237), (866, 229), (872, 217), (875, 212), (876, 206), (880, 199), (885, 186), (887, 176), (890, 167), (892, 154), (899, 131)]",261.51719210414103,"[5, 1, 9, 4, 7, 8, 2, 3, 6]","(0, 0.25)",CHN009D,CHN,D,English,Tue Sep 04 10:10:01 2018,Mouse
1,1,4,0,82,4,2,0,-518,228,290,131,0,500,200,8000,"[(960, 540), (960, 540), (960, 540), (960, 540), (960, 540), (960, 540), (960, 540), (960, 540), (960, 540), (960, 540), (960, 540), (960, 540), (960, 540), (960, 540), (960, 540), (960, 540), (960, 540), (960, 540), (960, 540), (960, 540), (960, 540), (960, 540), (960, 539), (960, 534), (960, 532), (960, 528), (960, 525), (963, 513), (963, 510), (963, 504), (963, 499), (964, 475), (967, 458), (971, 439), (972, 424), (976, 385), (976, 365), (976, 348), (976, 331), (975, 300), (970, 286), (965, 269), (961, 256), (953, 231), (951, 223), (947, 213), (942, 201), (935, 179), (934, 169), (931, 160), (929, 151), (925, 134)]",265.072890052351,"[5, 1, 9, 4, 7, 8, 2, 3, 6]","(0, 0.25)",CHN009D,CHN,D,English,Tue Sep 04 10:10:01 2018,Mouse
1,1,4,0,83,6,7,0,-2049,89,1960,132,0,500,200,8000,"[(960, 540), (960, 540), (960, 540), (960, 540), (960, 540), (960, 540), (960, 540), (960, 540), (960, 543), (960, 547), (960, 555), (960, 560), (960, 564), (960, 566), (960, 573), (960, 575), (960, 577), (960, 581), (961, 585), (962, 588), (962, 589), (963, 591), (964, 595), (965, 598), (967, 600), (967, 603), (969, 607), (971, 610), (972, 611), (973, 614), (976, 618), (979, 621), (979, 622), (982, 625), (985, 630), (986, 632), (988, 634), (989, 636), (994, 640), (996, 643), (998, 644), (1000, 647), (1005, 653), (1006, 654), (1008, 656), (1009, 658), (1011, 661), (1013, 663), (1014, 664), (1016, 666), (1018, 669), (1020, 670), (1021, 671), (1022, 672), (1024, 673), (1024, 674), (1025, 674), (1026, 675), (1028, 677), (1029, 677), (1029, 677), (1031, 678), (1032, 678), (1034, 678), (1036, 678), (1038, 678), (1041, 678), (1043, 678), (1046, 678), (1049, 678), (1060, 678), (1068, 678), (1073, 678), (1079, 678), (1088, 678), (1090, 677), (1093, 675), (1094, 674), (1096, 667), (1097, 661), (1099, 656), (1100, 650), (1101, 640), (1102, 633), (1102, 629), (1104, 624), (1107, 614), (1110, 608), (1110, 602), (1110, 594), (1110, 583), (1110, 576), (1110, 574), (1111, 569), (1115, 561), (1119, 555), (1120, 553), (1121, 551), (1123, 548), (1124, 548), (1125, 547), (1126, 545), (1126, 543), (1126, 541), (1127, 538), (1127, 535), (1129, 529), (1130, 525), (1131, 521), (1131, 518), (1134, 509), (1135, 503), (1135, 496), (1135, 490), (1135, 478), (1135, 472), (1135, 468), (1135, 463), (1133, 453), (1133, 450), (1133, 443), (1132, 435), (1129, 422), (1128, 415), (1127, 409), (1127, 405), (1127, 402), (1127, 401), (1127, 401), (1127, 401), (1127, 401), (1127, 401), (1127, 401), (1127, 401), (1125, 401), (1125, 401), (1125, 401), (1125, 401), (1122, 403), (1120, 405), (1118, 406), (1114, 407), (1105, 409), (1099, 411), (1093, 413), (1090, 414), (1087, 414), (1086, 414), (1085, 415), (1083, 415), (1076, 422), (1074, 426), (1073, 427), (1071, 433), (1069, 441), (1067, 445), (1065, 449), (1061, 454), (1054, 460), (1052, 462), (1043, 468), (1038, 470), (1023, 477), (1016, 480), (1007, 483), (1001, 486), (996, 490), (993, 490), (993, 491), (993, 491), (993, 491), (993, 491), (993, 491), (993, 491), (993, 491), (993, 491), (993, 491), (993, 491), (993, 491), (992, 492), (992, 492), (991, 492), (990, 493), (989, 493), (988, 494), (987, 495), (983, 498), (982, 498), (979, 500), (976, 501), (966, 504), (960, 506), (951, 507), (940, 508), (915, 508), (898, 509), (877, 512), (854, 514), (797, 517), (765, 520), (734, 520), (698, 522), (615, 529), (575, 535), (545, 541)]",179.86193814790315,"[5, 1, 9, 4, 7, 8, 2, 3, 6]","(0, 0.25)",CHN009D,CHN,D,English,Tue Sep 04 10:10:01 2018,Mouse
1,1,4,0,84,5,2,0,-580,370,210,133,0,500,200,8000,"[(960, 540), (960, 540), (960, 540), (960, 540), (960, 540), (960, 540), (960, 540), (960, 540), (960, 540), (960, 540), (960, 540), (960, 540), (960, 540), (960, 540), (960, 540), (960, 540), (960, 540), (960, 540), (960, 540), (960, 540), (960, 540), (960, 540), (960, 540), (960, 540), (960, 540), (960, 540), (960, 540), (960, 540), (960, 540), (960, 540), (960, 540), (960, 540), (960, 540), (960, 540), (960, 540), (960, 540), (964, 530), (966, 522), (969, 511), (975, 499), (981, 471), (983, 458), (985, 444), (989, 411), (993, 392), (993, 375), (993, 355), (993, 308), (993, 280), (993, 255), (993, 232), (990, 196), (989, 184), (986, 174), (984, 167), (977, 150), (973, 142), (969, 136)]",271.2761800436674,"[5, 1, 9, 4, 7, 8, 2, 3, 6]","(0, 0.25)",CHN009D,CHN,D,English,Tue Sep 04 10:10:01 2018,Mouse
1,1,4,0,85,6,7,0,-750,90,660,134,0,500,200,8000,"[(960, 540), (960, 540), (960, 540), (960, 540), (960, 540), (960, 540), (960, 540), (960, 540), (960, 544), (960, 547), (959, 553), (959, 555), (958, 560), (958, 562), (958, 564), (958, 564), (957, 566), (957, 566), (957, 566), (957, 566), (957, 567), (957, 567), (957, 567), (957, 567), (957, 567), (957, 567), (957, 567), (957, 567), (957, 567), (957, 567), (957, 567), (957, 567), (950, 567), (941, 567), (932, 565), (921, 562), (897, 553), (881, 548), (863, 541), (842, 532), (807, 511), (790, 500), (774, 490), (762, 482), (748, 468), (743, 459), (737, 447), (733, 434), (730, 413), (727, 405), (725, 400), (722, 395), (721, 393), (720, 392), (720, 392), (720, 392), (720, 392), (720, 392), (719, 392), (719, 392), (717, 392), (715, 392), (711, 394), (708, 396), (698, 403), (694, 407), (685, 412), (679, 416), (660, 430), (647, 438), (635, 445), (622, 452), (591, 468), (567, 479), (554, 485)]",187.71477950441593,"[5, 1, 9, 4, 7, 8, 2, 3, 6]","(0, 0.25)",CHN009D,CHN,D,English,Tue Sep 04 10:10:01 2018,Mouse
1,1,4,0,86,9,7,0,-321,11,310,135,0,500,200,8000,"[(960, 540), (958, 544), (954, 545), (947, 547), (940, 548), (926, 552), (921, 554), (916, 555), (912, 555), (900, 557), (893, 558), (889, 559), (887, 559), (881, 560), (879, 560), (875, 562), (871, 562), (852, 562), (841, 562), (829, 562), (816, 562), (789, 562), (773, 562), (760, 562), (742, 562), (713, 562), (697, 562), (677, 562), (658, 562), (613, 562), (588, 562), (568, 562), (548, 562)]",176.94341955185055,"[5, 1, 9, 4, 7, 8, 2, 3, 6]","(0, 0.25)",CHN009D,CHN,D,English,Tue Sep 04 10:10:01 2018,Mouse
1,1,4,0,87,1,1,1,328,39,289,136,0,500,200,8000,"[(960, 540), (960, 540), (960, 540), (961, 541), (965, 541), (971, 543), (978, 547), (992, 551), (998, 552), (1005, 554), (1011, 556), (1024, 561), (1030, 562), (1035, 563), (1036, 563), (1042, 566), (1047, 568), (1053, 571), (1059, 573), (1069, 578), (1084, 588), (1094, 595), (1104, 602), (1113, 612), (1127, 631), (1138, 648), (1147, 674), (1156, 704), (1171, 750), (1178, 772), (1185, 797), (1193, 825), (1200, 865)]",53.55555824341289,"[5, 1, 9, 4, 7, 8, 2, 3, 6]","(0, 0.25)",CHN009D,CHN,D,English,Tue Sep 04 10:10:01 2018,Mouse
1,1,4,0,88,5,5,1,450,30,420,136,0,500,200,8000,"[(960, 540), (960, 540), (960, 539), (960, 539), (960, 539), (960, 539), (960, 539), (960, 539), (960, 539), (960, 539), (960, 538), (960, 538), (960, 537), (960, 537), (960, 537), (960, 536), (961, 536), (961, 536), (961, 535), (962, 535), (963, 535), (965, 535), (975, 535), (982, 536), (989, 537), (999, 539), (1026, 547), (1045, 551), (1067, 559), (1090, 565), (1135, 580), (1160, 586), (1185, 594), (1211, 602), (1251, 616), (1266, 623), (1275, 627), (1286, 630), (1305, 639), (1312, 641), (1318, 645), (1327, 649), (1335, 653), (1339, 655), (1344, 658)]",17.08175686914232,"[5, 1, 9, 4, 7, 8, 2, 3, 6]","(0, 0.25)",CHN009D,CHN,D,English,Tue Sep 04 10:10:01 2018,Mouse
1,1,4,0,89,1,1,1,1040,90,950,135,0,500,200,8000,"[(960, 540), (960, 540), (960, 540), (960, 540), (960, 540), (960, 540), (960, 540), (960, 540), (959, 540), (959, 540), (959, 540), (959, 540), (957, 540), (957, 540), (957, 540), (957, 540), (957, 540), (957, 540), (957, 540), (957, 540), (957, 540), (957, 540), (957, 540), (957, 540), (956, 540), (955, 541), (955, 542), (955, 545), (955, 550), (955, 554), (955, 557), (955, 558), (956, 563), (958, 564), (959, 567), (961, 568), (962, 569), (964, 569), (968, 568), (969, 568), (969, 567), (969, 567), (969, 567), (969, 567), (969, 567), (969, 567), (969, 567), (969, 567), (969, 567), (969, 567), (969, 567), (969, 567), (969, 567), (969, 567), (969, 567), (969, 567), (969, 567), (969, 567), (969, 567), (969, 567), (969, 567), (969, 567), (969, 567), (969, 567), (969, 567), (969, 567), (969, 567), (969, 567), (969, 575), (970, 583), (972, 587), (975, 594), (984, 610), (990, 620), (997, 633), (1002, 643), (1013, 661), (1016, 668), (1020, 672), (1021, 673), (1026, 681), (1026, 685), (1029, 690), (1031, 696), (1039, 711), (1043, 718), (1048, 727), (1057, 736), (1067, 749), (1072, 756), (1078, 762), (1084, 770), (1097, 784), (1105, 794), (1111, 803), (1119, 812), (1133, 829), (1139, 834), (1145, 839), (1151, 844), (1163, 858), (1168, 866), (1175, 873), (1180, 882)]",57.24784235146058,"[5, 1, 9, 4, 7, 8, 2, 3, 6]","(0, 0.25)",CHN009D,CHN,D,English,Tue Sep 04 10:10:01 2018,Mouse
