NativeLangNumber,LanuageNumber,SessionNumber,Block,TrialNum,ConditionNumber,Response,Accuracy,RT,MovementOnsetTime,TimeInMotion,SignalContrast,SignalContrastNumber,StimDisplayTime,MaskTime,MaxResponseTime,MousePositionXY,MouseAngle,WheelOrder,NoiseMuSigma,ParticipantID,LanuageTested,SessionTested,NativeLanuage,Date,ResponseDevice
2,1,4,0,1,9,9,1,835,495,340,153,0,500,200,8000,"[(512, 384), (512, 384), (512, 384), (512, 384), (512, 384), (512, 384), (512, 384), (512, 384), (512, 384), (512, 384), (512, 384), (512, 384), (512, 384), (512, 384), (512, 384), (512, 384), (512, 384), (512, 384), (512, 384), (512, 384), (512, 384), (512, 384), (512, 384), (512, 384), (512, 384), (512, 384), (512, 384), (512, 384), (512, 384), (512, 384), (512, 384), (512, 384), (512, 384), (512, 384), (512, 384), (512, 384), (512, 384), (512, 384), (512, 384), (512, 384), (512, 384), (512, 384), (512, 384), (512, 384), (512, 384), (512, 384), (512, 384), (512, 384), (512, 384), (513, 384), (517, 386), (523, 391), (538, 396), (544, 399), (554, 401), (563, 402), (582, 407), (592, 410), (600, 412), (607, 413), (617, 416), (621, 417), (624, 417), (627, 417), (631, 417), (634, 419), (636, 419), (640, 420), (649, 423), (652, 424), (656, 425), (660, 426), (665, 429), (672, 432), (675, 434), (681, 435), (695, 442), (703, 445), (710, 450), (718, 454), (732, 461), (740, 465), (746, 469), (751, 471)]",20.002352668140524,"[9, 4, 6, 1, 5, 8, 2, 7, 3]","(0, 0.25)",CHN005D,CHN,D,Chinese,Mon Aug 20 18:59:38 2018,Mouse
2,1,4,0,2,4,4,1,1320,120,1200,153,0,500,200,8000,"[(512, 384), (512, 384), (512, 384), (512, 384), (512, 384), (512, 384), (512, 384), (512, 384), (512, 384), (512, 384), (512, 384), (511, 384), (511, 384), (511, 384), (511, 384), (511, 384), (511, 384), (511, 384), (511, 384), (511, 384), (511, 384), (511, 384), (511, 384), (511, 384), (511, 384), (511, 384), (511, 384), (511, 384), (511, 384), (511, 384), (511, 384), (511, 384), (511, 384), (511, 384), (511, 384), (511, 384), (511, 384), (511, 384), (511, 384), (511, 384), (511, 384), (511, 384), (511, 384), (511, 384), (511, 384), (511, 384), (511, 384), (510, 384), (508, 384), (508, 384), (508, 384), (507, 384), (506, 384), (505, 384), (504, 384), (504, 384), (504, 384), (504, 384), (503, 384), (503, 384), (503, 384), (502, 384), (501, 384), (501, 384), (499, 384), (499, 384), (498, 384), (498, 384), (497, 384), (497, 384), (497, 384), (497, 384), (497, 384), (497, 384), (497, 384), (497, 384), (495, 385), (495, 387), (495, 389), (495, 392), (495, 395), (495, 397), (495, 399), (495, 401), (497, 406), (499, 411), (499, 411), (500, 413), (503, 417), (505, 419), (508, 422), (510, 423), (514, 428), (515, 430), (519, 435), (522, 438), (527, 443), (532, 447), (537, 451), (542, 456), (550, 466), (556, 471), (559, 475), (563, 479), (569, 486), (572, 489), (574, 492), (576, 494), (581, 502), (584, 505), (585, 508), (588, 511), (593, 519), (596, 523), (597, 525), (601, 530), (606, 538), (606, 541), (610, 548), (610, 553), (614, 566), (615, 570), (617, 575), (620, 580), (624, 587), (625, 589), (626, 593), (628, 596), (629, 600), (630, 602), (630, 604), (631, 605)]",61.69924423399363,"[9, 4, 6, 1, 5, 8, 2, 7, 3]","(0, 0.25)",CHN005D,CHN,D,Chinese,Mon Aug 20 18:59:38 2018,Mouse
2,1,4,0,3,6,6,1,1923,13,1910,152,0,500,200,8000,"[(512, 384), (511, 383), (511, 383), (511, 383), (511, 383), (511, 383), (511, 383), (511, 383), (511, 383), (511, 381), (511, 380), (511, 380), (511, 380), (511, 379), (511, 379), (511, 378), (511, 378), (511, 378), (511, 377), (511, 377), (511, 377), (511, 377), (511, 377), (511, 377), (511, 377), (511, 377), (511, 377), (511, 377), (511, 377), (511, 377), (511, 377), (511, 377), (511, 377), (511, 377), (511, 377), (511, 377), (511, 377), (511, 377), (511, 377), (511, 377), (511, 377), (511, 377), (511, 377), (511, 377), (511, 377), (511, 377), (511, 377), (511, 377), (511, 377), (511, 377), (511, 377), (511, 377), (511, 376), (508, 372), (507, 372), (506, 371), (504, 370), (501, 368), (499, 366), (496, 364), (494, 364), (490, 361), (489, 361), (487, 359), (486, 358), (484, 357), (484, 357), (483, 355), (483, 355), (483, 355), (483, 355), (481, 355), (481, 355), (481, 355), (481, 355), (481, 355), (481, 355), (480, 355), (480, 355), (480, 355), (480, 355), (480, 355), (479, 355), (479, 355), (479, 355), (477, 355), (475, 355), (475, 356), (475, 356), (474, 357), (474, 358), (473, 359), (473, 359), (473, 360), (473, 360), (472, 362), (472, 362), (472, 363), (471, 363), (471, 364), (470, 365), (470, 366), (470, 366), (470, 367), (470, 368), (469, 371), (469, 371), (469, 373), (469, 374), (469, 378), (469, 380), (469, 381), (469, 382), (469, 387), (469, 389), (469, 392), (469, 395), (471, 401), (474, 407), (475, 412), (476, 419), (476, 429), (479, 437), (480, 446), (480, 452), (480, 465), (480, 473), (480, 479), (480, 487), (480, 499), (480, 508), (479, 515), (479, 523), (476, 538), (474, 546), (473, 554), (471, 560), (469, 570), (468, 573), (467, 576), (465, 580), (465, 585), (465, 589), (465, 592), (465, 596), (465, 601), (465, 603), (465, 605), (465, 607), (464, 611), (463, 615), (463, 616), (463, 619), (463, 622), (463, 623), (463, 623), (463, 624), (463, 625), (463, 625), (463, 626), (463, 626), (463, 626), (463, 626), (463, 626), (463, 626), (463, 626), (463, 626), (463, 626), (462, 626), (461, 625), (461, 623), (460, 622), (460, 620), (460, 619), (460, 619), (460, 619), (460, 619), (460, 619), (460, 619), (460, 619), (460, 619), (460, 619), (460, 619), (459, 619), (458, 620), (458, 623), (458, 624), (458, 625), (458, 626), (458, 628), (458, 628), (458, 628), (458, 629)]",102.42972301845447,"[9, 4, 6, 1, 5, 8, 2, 7, 3]","(0, 0.25)",CHN005D,CHN,D,Chinese,Mon Aug 20 18:59:38 2018,Mouse
2,1,4,0,4,7,7,1,1122,632,490,151,0,500,200,8000,"[(512, 384), (512, 384), (512, 384), (512, 384), (512, 384), (512, 384), (512, 384), (512, 384), (512, 384), (512, 384), (512, 384), (512, 384), (512, 384), (512, 384), (512, 384), (512, 384), (512, 384), (512, 384), (512, 384), (512, 384), (512, 384), (512, 384), (512, 384), (512, 384), (512, 384), (512, 384), (512, 384), (512, 384), (512, 384), (512, 384), (512, 384), (512, 384), (512, 384), (512, 384), (512, 384), (512, 384), (512, 384), (512, 384), (512, 384), (512, 384), (512, 384), (512, 384), (512, 384), (512, 384), (512, 384), (512, 384), (512, 384), (512, 384), (512, 384), (512, 384), (512, 384), (512, 384), (512, 384), (512, 384), (512, 384), (512, 384), (512, 384), (512, 384), (512, 384), (512, 384), (512, 384), (512, 384), (512, 384), (513, 380), (515, 372), (518, 364), (520, 361), (521, 360), (521, 360), (521, 355), (523, 350), (525, 343), (526, 336), (530, 321), (535, 313), (537, 306), (541, 301), (545, 294), (546, 291), (548, 288), (550, 286), (555, 279), (559, 274), (561, 269), (563, 266), (566, 261), (567, 259), (568, 257), (568, 256), (569, 255), (569, 255), (569, 252), (569, 251), (571, 242), (574, 235), (576, 232), (577, 227), (580, 219), (582, 216), (583, 215), (585, 210), (590, 204), (592, 201), (596, 197), (601, 192), (605, 186), (607, 184), (612, 178), (615, 173), (621, 166), (623, 164), (624, 162), (625, 159)]",296.6668197725653,"[9, 4, 6, 1, 5, 8, 2, 7, 3]","(0, 0.25)",CHN005D,CHN,D,Chinese,Mon Aug 20 18:59:38 2018,Mouse
2,1,4,0,5,1,1,1,932,472,460,150,0,500,200,8000,"[(512, 384), (512, 384), (512, 384), (512, 384), (512, 384), (512, 384), (512, 384), (512, 384), (512, 384), (512, 384), (512, 384), (512, 384), (512, 384), (512, 384), (512, 384), (512, 384), (512, 384), (512, 384), (512, 384), (512, 384), (512, 384), (512, 384), (512, 384), (512, 384), (512, 384), (512, 384), (512, 384), (512, 384), (512, 384), (512, 384), (512, 384), (512, 384), (512, 384), (512, 384), (512, 384), (512, 384), (512, 384), (512, 384), (512, 384), (512, 384), (512, 384), (512, 384), (512, 384), (512, 384), (512, 384), (512, 384), (512, 384), (511, 384), (511, 384), (507, 384), (507, 384), (505, 383), (502, 381), (500, 381), (499, 381), (496, 381), (496, 381), (495, 381), (495, 381), (495, 381), (494, 381), (494, 381), (492, 381), (489, 381), (487, 384), (484, 389), (481, 392), (478, 395), (475, 398), (467, 404), (463, 406), (460, 408), (459, 409), (451, 414), (445, 419), (438, 423), (431, 429), (418, 440), (411, 446), (403, 451), (397, 455), (386, 466), (379, 471), (373, 476), (369, 480), (357, 492), (352, 497), (346, 504), (341, 509), (330, 521), (325, 526), (321, 533), (317, 536), (310, 547)]",141.0988752085691,"[9, 4, 6, 1, 5, 8, 2, 7, 3]","(0, 0.25)",CHN005D,CHN,D,Chinese,Mon Aug 20 18:59:38 2018,Mouse
2,1,4,0,6,5,5,1,761,301,460,149,0,500,200,8000,"[(512, 384), (512, 384), (512, 384), (512, 384), (512, 384), (512, 384), (512, 384), (512, 384), (512, 384), (512, 384), (512, 384), (512, 384), (512, 384), (512, 384), (512, 384), (512, 384), (512, 384), (512, 384), (512, 384), (512, 384), (512, 384), (512, 384), (512, 384), (512, 384), (512, 384), (512, 384), (512, 384), (512, 384), (512, 384), (512, 384), (512, 383), (512, 382), (494, 378), (482, 375), (471, 374), (456, 372), (430, 369), (419, 366), (409, 365), (401, 364), (391, 363), (387, 363), (386, 363), (382, 363), (376, 363), (372, 363), (369, 363), (364, 362), (360, 362), (356, 361), (353, 361), (351, 361), (345, 361), (340, 361), (336, 361), (330, 361), (319, 361), (313, 361), (309, 361), (306, 361), (299, 361), (295, 361), (292, 361), (288, 361), (280, 361), (280, 361), (279, 361), (278, 361), (277, 361), (277, 361), (277, 361), (275, 361), (273, 361), (272, 361), (270, 361), (267, 361), (263, 361)]",185.2774060829072,"[9, 4, 6, 1, 5, 8, 2, 7, 3]","(0, 0.25)",CHN005D,CHN,D,Chinese,Mon Aug 20 18:59:38 2018,Mouse
2,1,4,0,7,8,8,1,932,282,650,148,0,500,200,8000,"[(512, 384), (512, 384), (512, 384), (512, 384), (512, 384), (512, 384), (512, 384), (512, 384), (512, 384), (512, 384), (512, 384), (512, 384), (512, 384), (512, 384), (512, 384), (512, 384), (512, 384), (512, 384), (512, 384), (512, 384), (512, 384), (512, 384), (512, 384), (512, 384), (512, 384), (512, 384), (512, 384), (512, 384), (512, 383), (513, 382), (513, 382), (513, 382), (513, 382), (514, 382), (515, 381), (515, 381), (515, 381), (515, 381), (515, 381), (515, 381), (515, 381), (515, 381), (515, 381), (515, 381), (515, 381), (515, 381), (515, 381), (515, 381), (515, 381), (515, 381), (515, 380), (515, 379), (513, 374), (510, 372), (506, 370), (500, 366), (486, 361), (480, 358), (472, 354), (464, 351), (454, 345), (449, 343), (447, 341), (443, 337), (441, 335), (438, 331), (435, 328), (433, 325), (428, 320), (423, 317), (418, 315), (414, 312), (407, 304), (403, 302), (401, 299), (399, 297), (391, 291), (389, 288), (387, 288), (383, 285), (375, 278), (372, 277), (367, 275), (362, 271), (353, 266), (349, 265), (345, 263), (342, 262), (333, 258), (326, 255), (322, 253), (317, 251), (306, 246), (303, 245)]",213.62675729814066,"[9, 4, 6, 1, 5, 8, 2, 7, 3]","(0, 0.25)",CHN005D,CHN,D,Chinese,Mon Aug 20 18:59:38 2018,Mouse
2,1,4,0,8,2,2,1,1624,354,1270,147,0,500,200,8000,"[(512, 384), (512, 384), (512, 384), (512, 384), (512, 384), (512, 384), (512, 384), (512, 384), (512, 384), (512, 384), (512, 384), (512, 384), (512, 384), (512, 384), (512, 384), (512, 384), (512, 384), (512, 384), (512, 384), (512, 384), (512, 384), (512, 384), (512, 384), (512, 384), (512, 384), (512, 384), (512, 384), (512, 384), (512, 384), (512, 384), (512, 384), (512, 384), (512, 384), (512, 384), (512, 384), (511, 384), (511, 384), (510, 384), (509, 384), (509, 384), (508, 384), (508, 384), (508, 384), (508, 384), (508, 384), (507, 385), (506, 385), (504, 387), (503, 388), (501, 389), (500, 391), (498, 394), (497, 395), (497, 395), (497, 396), (497, 396), (496, 397), (496, 397), (496, 398), (496, 398), (496, 398), (496, 398), (496, 398), (496, 398), (496, 399), (496, 400), (496, 401), (496, 401), (496, 401), (496, 401), (496, 401), (496, 401), (496, 401), (496, 401), (496, 401), (496, 401), (496, 401), (496, 401), (496, 401), (496, 401), (496, 401), (496, 401), (496, 401), (496, 401), (496, 401), (496, 401), (496, 401), (496, 401), (496, 401), (496, 401), (496, 401), (496, 401), (496, 401), (496, 401), (496, 401), (496, 401), (496, 401), (496, 401), (496, 401), (496, 401), (496, 401), (496, 401), (496, 401), (496, 401), (496, 401), (496, 401), (496, 401), (496, 400), (496, 400), (496, 400), (496, 400), (496, 400), (496, 400), (496, 400), (496, 400), (496, 400), (496, 400), (496, 400), (496, 400), (496, 400), (496, 400), (496, 400), (496, 400), (496, 400), (496, 400), (496, 400), (496, 400), (496, 400), (496, 400), (496, 400), (496, 400), (496, 400), (496, 400), (496, 400), (496, 400), (496, 400), (496, 400), (496, 400), (496, 400), (496, 400), (496, 400), (496, 400), (496, 398), (496, 393), (496, 387), (496, 380), (496, 364), (496, 354), (496, 343), (496, 330), (496, 304), (496, 293), (496, 281), (496, 267), (496, 242), (496, 231), (496, 219), (496, 206), (496, 185), (493, 171), (492, 160), (491, 152), (487, 125)]",264.48659997133245,"[9, 4, 6, 1, 5, 8, 2, 7, 3]","(0, 0.25)",CHN005D,CHN,D,Chinese,Mon Aug 20 18:59:38 2018,Mouse
2,1,4,0,9,2,2,1,572,282,290,146,0,500,200,8000,"[(512, 384), (512, 384), (512, 384), (512, 384), (512, 384), (512, 384), (512, 384), (512, 384), (512, 384), (512, 384), (512, 384), (512, 384), (512, 384), (512, 384), (512, 384), (512, 384), (512, 384), (512, 384), (512, 384), (512, 384), (512, 384), (512, 384), (512, 384), (512, 384), (512, 384), (512, 384), (512, 384), (512, 384), (512, 380), (512, 376), (509, 370), (508, 364), (506, 353), (505, 346), (505, 338), (505, 331), (504, 315), (503, 308), (502, 303), (500, 294), (498, 279), (497, 273), (494, 267), (493, 259), (489, 247), (487, 240), (485, 234), (484, 228), (480, 216), (478, 209), (476, 201), (473, 193), (468, 178), (468, 172), (466, 163), (465, 156), (463, 142), (463, 137)]",258.7793132162848,"[9, 4, 6, 1, 5, 8, 2, 7, 3]","(0, 0.25)",CHN005D,CHN,D,Chinese,Mon Aug 20 18:59:38 2018,Mouse
2,1,4,0,10,3,3,1,742,382,360,145,0,500,200,8000,"[(512, 384), (512, 384), (512, 384), (512, 384), (512, 384), (512, 384), (512, 384), (512, 384), (512, 384), (512, 384), (512, 384), (512, 384), (512, 384), (512, 384), (512, 384), (512, 384), (512, 384), (512, 384), (512, 384), (512, 384), (512, 384), (512, 384), (512, 384), (512, 384), (512, 384), (512, 384), (512, 384), (512, 384), (512, 384), (512, 384), (512, 384), (512, 384), (512, 384), (512, 384), (512, 384), (512, 384), (512, 384), (512, 384), (515, 384), (527, 380), (533, 375), (542, 372), (544, 372), (554, 367), (559, 365), (562, 363), (568, 361), (578, 357), (583, 354), (587, 351), (592, 348), (601, 344), (607, 342), (613, 341), (618, 340), (626, 337), (633, 335), (635, 334), (640, 334), (649, 332), (653, 332), (659, 330), (666, 330), (677, 329), (684, 329), (690, 329), (695, 329), (709, 328), (716, 328), (724, 328), (731, 328), (745, 328), (751, 328), (754, 328), (758, 326)]",346.7335191534163,"[9, 4, 6, 1, 5, 8, 2, 7, 3]","(0, 0.25)",CHN005D,CHN,D,Chinese,Mon Aug 20 18:59:38 2018,Mouse
2,1,4,0,11,1,1,1,701,11,690,144,0,500,200,8000,"[(512, 384), (502, 383), (496, 382), (493, 381), (489, 380), (485, 380), (485, 380), (484, 379), (482, 378), (480, 378), (480, 378), (477, 378), (474, 376), (469, 375), (464, 372), (462, 371), (458, 369), (449, 366), (444, 363), (441, 362), (437, 360), (433, 358), (430, 357), (428, 357), (428, 357), (425, 355), (424, 354), (423, 354), (423, 354), (423, 354), (423, 354), (422, 353), (422, 353), (422, 353), (422, 353), (422, 353), (422, 353), (422, 353), (422, 353), (422, 353), (422, 354), (418, 359), (417, 362), (414, 367), (412, 369), (405, 378), (400, 386), (395, 393), (393, 395), (387, 408), (384, 412), (381, 415), (380, 419), (376, 429), (374, 432), (373, 434), (371, 439), (368, 446), (367, 449), (366, 454), (364, 459), (362, 468), (359, 472), (357, 477), (353, 483), (341, 501), (334, 507), (328, 516), (321, 524), (314, 532), (311, 535)]",143.08452099582206,"[9, 4, 6, 1, 5, 8, 2, 7, 3]","(0, 0.25)",CHN005D,CHN,D,Chinese,Mon Aug 20 18:59:38 2018,Mouse
2,1,4,0,12,3,3,1,2075,25,2050,143,0,500,200,8000,"[(512, 384), (512, 384), (512, 383), (512, 382), (512, 382), (512, 382), (512, 382), (512, 382), (512, 382), (512, 382), (512, 382), (512, 381), (512, 381), (512, 380), (512, 378), (511, 376), (510, 376), (508, 375), (507, 374), (505, 374), (505, 374), (505, 374), (505, 374), (505, 374), (505, 374), (504, 374), (502, 374), (502, 374), (501, 374), (501, 374), (500, 374), (500, 374), (498, 374), (498, 374), (498, 374), (498, 374), (498, 374), (498, 374), (498, 374), (498, 374), (498, 374), (498, 374), (498, 374), (498, 374), (498, 374), (498, 374), (498, 374), (498, 374), (498, 374), (497, 374), (497, 374), (497, 374), (497, 374), (497, 374), (497, 375), (497, 376), (498, 378), (498, 378), (501, 383), (502, 384), (503, 385), (506, 388), (507, 389), (507, 389), (508, 390), (509, 390), (509, 391), (509, 391), (511, 392), (511, 393), (516, 396), (519, 397), (521, 399), (525, 401), (531, 404), (535, 405), (537, 406), (541, 408), (547, 411), (548, 411), (549, 412), (550, 412), (551, 413), (551, 413), (551, 413), (551, 413), (551, 413), (551, 413), (551, 413), (551, 413), (551, 413), (551, 413), (551, 413), (551, 413), (553, 413), (554, 413), (557, 413), (559, 412), (564, 409), (568, 406), (570, 405), (575, 404), (579, 401), (582, 399), (585, 397), (590, 395), (603, 387), (612, 383), (623, 378), (634, 373), (656, 365), (664, 361), (674, 356), (683, 353), (695, 345), (700, 341), (706, 338), (709, 335), (714, 333), (717, 331), (718, 330), (721, 327), (727, 325), (729, 323), (731, 322), (732, 322), (736, 320), (738, 319), (740, 318), (741, 317), (742, 316), (742, 316), (742, 316), (742, 316), (742, 316), (742, 316), (742, 316), (742, 316), (742, 316), (742, 316), (742, 316), (742, 316), (742, 316), (742, 316), (742, 316), (742, 316), (742, 316), (742, 316), (742, 316), (742, 316), (742, 316), (742, 316), (742, 316), (742, 316), (742, 316), (742, 316), (742, 316), (744, 316), (747, 314), (748, 313), (750, 312), (751, 312), (751, 312), (751, 312), (751, 312), (751, 312), (751, 312), (751, 312), (751, 312), (751, 312), (751, 312), (751, 312), (751, 312), (751, 312), (751, 312), (751, 312), (751, 312), (751, 312), (751, 312), (751, 312), (751, 312), (751, 312), (751, 312), (751, 312), (751, 312), (751, 312), (751, 312), (751, 312), (751, 312), (751, 312), (751, 312), (751, 312), (751, 312), (751, 312), (751, 312), (751, 312), (751, 312), (751, 312), (751, 312), (751, 312), (751, 312), (751, 312), (751, 312), (751, 312), (751, 311), (751, 311), (751, 311), (752, 310)]",342.863725496424,"[9, 4, 6, 1, 5, 8, 2, 7, 3]","(0, 0.25)",CHN005D,CHN,D,Chinese,Mon Aug 20 18:59:38 2018,Mouse
2,1,4,0,13,3,3,1,783,52,731,142,0,500,200,8000,"[(512, 384), (512, 384), (512, 384), (512, 384), (512, 384), (511, 384), (511, 384), (511, 384), (511, 384), (510, 384), (510, 384), (510, 384), (510, 384), (510, 384), (510, 384), (510, 384), (510, 384), (510, 384), (510, 384), (510, 384), (510, 384), (510, 384), (510, 383), (511, 382), (512, 382), (512, 382), (513, 380), (516, 379), (517, 378), (519, 376), (523, 375), (529, 370), (532, 369), (537, 365), (543, 363), (556, 359), (562, 358), (568, 355), (576, 354), (587, 350), (593, 349), (599, 346), (602, 346), (615, 344), (618, 341), (621, 340), (624, 340), (633, 336), (636, 335), (641, 332), (644, 330), (653, 327), (660, 326), (666, 323), (675, 322), (687, 317), (693, 317), (700, 314), (707, 312), (714, 311), (719, 309), (719, 309), (721, 308), (723, 308), (724, 308), (724, 308), (726, 307), (728, 307), (730, 305), (730, 305), (732, 305), (735, 305), (737, 305), (738, 305), (741, 305), (743, 304), (745, 304), (748, 303), (749, 303)]",341.13100054493856,"[9, 4, 6, 1, 5, 8, 2, 7, 3]","(0, 0.25)",CHN005D,CHN,D,Chinese,Mon Aug 20 18:59:38 2018,Mouse
2,1,4,0,14,1,1,1,1323,73,1250,141,0,500,200,8000,"[(512, 384), (512, 384), (512, 384), (512, 384), (512, 384), (512, 384), (512, 384), (510, 385), (498, 386), (488, 386), (476, 386), (464, 386), (441, 386), (431, 386), (422, 386), (415, 386), (406, 385), (404, 385), (403, 384), (403, 384), (403, 384), (402, 384), (401, 384), (399, 382), (396, 381), (392, 378), (391, 378), (389, 376), (385, 373), (385, 373), (385, 372), (384, 371), (383, 368), (383, 368), (383, 367), (383, 367), (383, 367), (383, 367), (383, 365), (383, 365), (383, 365), (383, 365), (383, 365), (383, 365), (383, 365), (383, 365), (383, 365), (383, 365), (383, 365), (383, 364), (383, 364), (383, 364), (384, 364), (384, 364), (384, 364), (384, 364), (384, 364), (384, 364), (384, 364), (384, 364), (384, 364), (385, 365), (385, 374), (383, 383), (378, 397), (376, 404), (371, 410), (368, 417), (366, 423), (366, 424), (364, 426), (364, 427), (364, 431), (363, 433), (362, 437), (360, 441), (359, 447), (358, 450), (358, 452), (356, 454), (355, 460), (354, 463), (352, 465), (349, 469), (342, 477), (338, 482), (336, 487), (332, 491), (324, 498), (323, 500), (321, 501), (320, 502), (320, 502), (320, 502), (320, 503), (319, 503), (317, 506), (316, 509), (313, 514), (312, 515), (309, 520), (308, 521), (308, 522), (306, 523), (306, 523), (306, 524), (306, 524), (306, 524), (306, 524), (306, 524), (306, 524), (306, 524), (306, 524), (306, 524), (306, 524), (306, 524), (306, 524), (306, 524), (306, 524), (306, 524), (306, 524), (306, 524), (306, 524), (306, 524), (306, 524), (306, 524), (306, 524), (306, 524), (306, 524), (306, 524), (306, 524), (306, 524), (305, 527)]",145.36245909843188,"[9, 4, 6, 1, 5, 8, 2, 7, 3]","(0, 0.25)",CHN005D,CHN,D,Chinese,Mon Aug 20 18:59:38 2018,Mouse
2,1,4,0,15,5,3,0,-2462,502,1960,140,0,500,200,8000,"[(512, 384), (512, 384), (512, 384), (512, 384), (512, 384), (512, 384), (512, 384), (512, 384), (512, 384), (512, 384), (512, 384), (512, 384), (512, 384), (512, 384), (512, 384), (512, 384), (512, 384), (512, 384), (512, 384), (512, 384), (512, 384), (512, 384), (512, 384), (512, 384), (512, 384), (512, 384), (512, 384), (512, 384), (512, 384), (512, 384), (512, 384), (512, 384), (512, 384), (512, 384), (512, 384), (512, 384), (512, 384), (512, 384), (512, 384), (512, 384), (512, 384), (512, 384), (512, 384), (512, 384), (512, 384), (512, 384), (512, 384), (512, 384), (512, 384), (512, 384), (512, 383), (511, 383), (507, 382), (507, 382), (505, 382), (505, 382), (504, 381), (504, 381), (504, 381), (504, 381), (504, 381), (504, 381), (504, 381), (504, 381), (504, 381), (504, 381), (504, 381), (504, 381), (504, 381), (504, 381), (504, 381), (504, 381), (504, 381), (504, 381), (504, 381), (504, 381), (504, 381), (504, 381), (504, 381), (504, 381), (504, 381), (504, 381), (504, 381), (504, 381), (504, 381), (504, 380), (504, 379), (504, 378), (504, 376), (504, 375), (504, 374), (504, 374), (504, 371), (504, 368), (504, 368), (504, 367), (504, 365), (504, 363), (504, 363), (504, 363), (504, 363), (504, 363), (504, 363), (504, 363), (504, 363), (504, 363), (504, 363), (504, 363), (504, 363), (504, 363), (504, 363), (504, 363), (504, 363), (504, 363), (504, 363), (504, 363), (504, 363), (504, 362), (504, 362), (504, 362), (507, 371), (507, 374), (509, 379), (509, 383), (511, 388), (511, 391), (511, 394), (511, 395), (512, 398), (512, 401), (512, 403), (513, 406), (513, 414), (513, 419), (513, 422), (513, 425), (513, 429), (513, 430), (513, 430), (513, 432), (513, 433), (513, 433), (513, 435), (513, 436), (514, 436), (514, 436), (514, 436), (514, 436), (514, 436), (514, 436), (514, 436), (514, 436), (514, 436), (514, 436), (514, 436), (514, 436), (514, 436), (514, 436), (514, 436), (514, 436), (514, 436), (514, 436), (514, 436), (514, 436), (514, 436), (514, 436), (514, 436), (514, 436), (514, 436), (514, 436), (514, 436), (514, 436), (514, 436), (514, 436), (514, 436), (514, 436), (514, 436), (514, 436), (514, 436), (514, 436), (514, 436), (514, 436), (514, 436), (514, 436), (514, 436), (513, 433), (512, 432), (510, 430), (508, 429), (507, 428), (507, 428), (507, 428), (507, 428), (507, 428), (507, 428), (507, 428), (506, 428), (506, 428), (506, 428), (506, 428), (506, 426), (506, 425), (506, 422), (506, 422), (506, 419), (506, 419), (506, 419), (506, 417), (507, 415), (507, 415), (510, 414), (510, 414), (512, 412), (514, 411), (514, 411), (515, 411), (517, 409), (519, 409), (522, 408), (523, 407), (530, 406), (534, 405), (539, 404), (544, 403), (556, 398), (566, 394), (573, 390), (583, 385), (595, 378), (603, 373), (612, 368), (623, 362), (644, 350), (655, 344), (665, 340), (676, 336), (692, 329), (700, 325), (708, 323), (712, 321), (720, 317), (724, 315), (726, 315), (729, 313), (740, 310), (747, 308), (754, 306)]",342.13513962207685,"[9, 4, 6, 1, 5, 8, 2, 7, 3]","(0, 0.25)",CHN005D,CHN,D,Chinese,Mon Aug 20 18:59:38 2018,Mouse
2,1,4,0,16,3,3,1,471,221,250,141,0,500,200,8000,"[(512, 384), (512, 384), (512, 384), (512, 384), (512, 384), (512, 384), (512, 384), (512, 384), (512, 384), (512, 384), (512, 384), (512, 384), (512, 384), (512, 384), (512, 384), (512, 384), (512, 384), (512, 384), (512, 384), (512, 384), (512, 384), (512, 384), (518, 381), (523, 378), (529, 375), (537, 372), (552, 365), (559, 362), (564, 360), (570, 357), (580, 352), (583, 352), (588, 350), (595, 348), (613, 341), (621, 339), (631, 336), (642, 335), (663, 329), (673, 326), (682, 325), (690, 323), (704, 319), (710, 318), (718, 314), (726, 312), (743, 307), (752, 304)]",341.565051177078,"[9, 4, 6, 1, 5, 8, 2, 7, 3]","(0, 0.25)",CHN005D,CHN,D,Chinese,Mon Aug 20 18:59:38 2018,Mouse
2,1,4,0,17,4,3,0,-841,591,250,141,0,500,200,8000,"[(512, 384), (512, 384), (512, 384), (512, 384), (512, 384), (512, 384), (512, 384), (512, 384), (512, 384), (512, 384), (512, 384), (512, 384), (512, 384), (512, 384), (512, 384), (512, 384), (512, 384), (512, 384), (512, 384), (512, 384), (512, 384), (512, 384), (512, 384), (512, 384), (512, 384), (512, 384), (512, 384), (512, 384), (512, 384), (512, 384), (512, 384), (512, 384), (512, 384), (512, 384), (512, 384), (512, 384), (512, 384), (512, 384), (512, 384), (512, 384), (512, 384), (512, 384), (512, 384), (512, 384), (512, 384), (512, 384), (512, 384), (512, 384), (512, 384), (512, 384), (512, 384), (512, 384), (512, 384), (512, 384), (512, 384), (512, 384), (512, 384), (512, 384), (512, 384), (518, 384), (523, 382), (528, 379), (536, 376), (551, 369), (558, 366), (566, 363), (573, 362), (584, 358), (590, 356), (597, 355), (605, 353), (623, 348), (630, 346), (640, 344), (648, 340), (666, 335), (674, 334), (684, 331), (690, 329), (708, 323), (717, 320), (725, 319), (735, 316), (747, 313), (753, 310)]",342.93068938791225,"[9, 4, 6, 1, 5, 8, 2, 7, 3]","(0, 0.25)",CHN005D,CHN,D,Chinese,Mon Aug 20 18:59:38 2018,Mouse
2,1,4,0,18,3,3,1,442,62,380,142,0,500,200,8000,"[(512, 384), (512, 384), (512, 384), (512, 384), (512, 384), (512, 384), (513, 383), (514, 382), (515, 381), (516, 380), (518, 378), (521, 376), (523, 375), (525, 374), (528, 372), (532, 369), (532, 369), (534, 368), (537, 367), (541, 363), (545, 361), (548, 359), (553, 356), (573, 350), (584, 344), (595, 341), (606, 338), (630, 331), (641, 327), (651, 324), (662, 322), (684, 317), (691, 316), (700, 315), (707, 313), (716, 312), (720, 311), (724, 311), (724, 311), (729, 308), (731, 308), (734, 308), (737, 307), (746, 304), (750, 303)]",341.20470511369075,"[9, 4, 6, 1, 5, 8, 2, 7, 3]","(0, 0.25)",CHN005D,CHN,D,Chinese,Mon Aug 20 18:59:38 2018,Mouse
2,1,4,0,19,1,1,1,853,93,760,142,0,500,200,8000,"[(512, 384), (512, 384), (512, 384), (512, 384), (512, 384), (512, 384), (512, 384), (512, 384), (512, 384), (511, 385), (511, 385), (511, 385), (511, 385), (509, 385), (505, 386), (499, 386), (495, 386), (491, 386), (484, 386), (476, 386), (471, 386), (469, 386), (467, 386), (464, 386), (464, 386), (463, 386), (463, 386), (460, 384), (457, 382), (454, 380), (450, 377), (442, 373), (437, 370), (435, 368), (433, 366), (428, 363), (428, 361), (426, 360), (426, 359), (424, 359), (423, 359), (423, 359), (423, 359), (423, 359), (423, 359), (423, 359), (423, 359), (423, 359), (423, 359), (423, 359), (423, 359), (422, 359), (422, 359), (422, 359), (421, 359), (418, 359), (415, 362), (414, 363), (413, 365), (408, 370), (406, 373), (405, 375), (403, 379), (397, 389), (394, 395), (390, 402), (388, 406), (383, 415), (381, 420), (379, 423), (375, 428), (370, 438), (368, 442), (367, 448), (365, 452), (361, 457), (359, 462), (356, 465), (354, 471), (346, 485), (339, 492), (334, 502), (330, 507), (319, 521), (315, 529), (310, 535)]",143.2209758378515,"[9, 4, 6, 1, 5, 8, 2, 7, 3]","(0, 0.25)",CHN005D,CHN,D,Chinese,Mon Aug 20 18:59:38 2018,Mouse
2,1,4,0,20,3,3,1,912,182,730,141,0,500,200,8000,"[(512, 384), (512, 384), (512, 384), (512, 384), (512, 384), (512, 384), (512, 384), (512, 384), (512, 384), (512, 384), (512, 384), (512, 384), (512, 384), (512, 384), (512, 384), (512, 384), (512, 384), (512, 384), (503, 390), (500, 393), (499, 394), (497, 395), (497, 395), (497, 395), (497, 395), (497, 395), (497, 395), (497, 395), (497, 395), (497, 395), (497, 395), (497, 395), (497, 395), (497, 395), (502, 393), (506, 393), (514, 392), (519, 391), (532, 386), (540, 383), (542, 383), (548, 382), (556, 377), (559, 376), (563, 375), (568, 373), (581, 368), (587, 365), (592, 363), (598, 360), (609, 357), (616, 355), (621, 353), (628, 350), (649, 344), (660, 342), (669, 339), (680, 337), (700, 333), (708, 331), (717, 328), (722, 327), (733, 323), (737, 322), (741, 322), (742, 322), (744, 321), (745, 320), (746, 320), (746, 320), (748, 319), (748, 319), (749, 319), (749, 319), (750, 318), (750, 318), (750, 318), (750, 318), (750, 318), (750, 318), (750, 318), (750, 318), (750, 318), (750, 318), (750, 318), (750, 318), (750, 318), (750, 318), (750, 318), (750, 318), (750, 318), (753, 316)]",344.2431797632418,"[9, 4, 6, 1, 5, 8, 2, 7, 3]","(0, 0.25)",CHN005D,CHN,D,Chinese,Mon Aug 20 18:59:38 2018,Mouse
2,1,4,0,21,3,3,1,852,152,700,140,0,500,200,8000,"[(512, 384), (512, 384), (512, 384), (512, 384), (512, 384), (512, 384), (512, 384), (512, 384), (512, 384), (512, 384), (512, 384), (512, 384), (512, 384), (512, 384), (512, 384), (513, 384), (513, 384), (514, 384), (514, 384), (516, 382), (516, 382), (516, 382), (517, 382), (517, 382), (517, 382), (517, 382), (518, 382), (520, 381), (522, 380), (524, 379), (528, 379), (536, 377), (542, 375), (545, 375), (550, 375), (559, 374), (565, 373), (572, 370), (579, 367), (593, 363), (601, 361), (607, 359), (615, 357), (626, 353), (631, 352), (635, 351), (638, 350), (644, 348), (647, 346), (648, 345), (650, 345), (654, 343), (654, 342), (655, 342), (656, 342), (658, 342), (659, 342), (659, 341), (660, 341), (663, 340), (665, 340), (669, 339), (670, 338), (674, 338), (678, 336), (680, 335), (684, 334), (693, 332), (699, 330), (703, 329), (711, 326), (719, 324), (724, 320), (727, 319), (727, 319), (730, 317), (730, 317), (730, 317), (731, 316), (733, 314), (736, 313), (737, 313), (740, 311), (746, 307), (749, 306), (751, 303)]",341.2778566925708,"[9, 4, 6, 1, 5, 8, 2, 7, 3]","(0, 0.25)",CHN005D,CHN,D,Chinese,Mon Aug 20 18:59:38 2018,Mouse
2,1,4,0,22,6,6,1,1431,291,1140,139,0,500,200,8000,"[(512, 384), (512, 384), (512, 384), (512, 384), (512, 384), (512, 384), (512, 384), (512, 384), (512, 384), (512, 384), (512, 384), (512, 384), (512, 384), (512, 384), (512, 384), (512, 384), (512, 384), (512, 384), (512, 384), (512, 384), (512, 384), (512, 384), (512, 384), (512, 384), (512, 384), (512, 384), (512, 384), (512, 384), (512, 384), (511, 382), (511, 382), (511, 382), (511, 382), (511, 382), (511, 382), (511, 382), (511, 382), (511, 382), (511, 382), (511, 382), (511, 382), (511, 382), (511, 382), (511, 382), (509, 382), (509, 382), (509, 382), (509, 382), (509, 382), (509, 382), (509, 382), (509, 382), (509, 382), (509, 382), (509, 382), (509, 382), (509, 382), (509, 382), (509, 382), (509, 382), (509, 382), (509, 382), (509, 382), (509, 382), (509, 382), (509, 382), (509, 382), (509, 382), (509, 382), (509, 382), (509, 382), (508, 382), (508, 382), (508, 382), (506, 382), (505, 382), (504, 383), (504, 383), (503, 385), (503, 385), (502, 386), (502, 386), (501, 388), (501, 388), (500, 389), (500, 389), (500, 390), (500, 390), (499, 390), (499, 390), (499, 391), (499, 391), (499, 391), (499, 391), (498, 392), (498, 393), (498, 394), (498, 394), (498, 395), (498, 395), (498, 395), (498, 396), (498, 396), (498, 397), (497, 398), (497, 400), (495, 403), (494, 405), (492, 406), (492, 407), (488, 413), (487, 415), (484, 419), (482, 424), (473, 441), (468, 453), (462, 464), (460, 472), (453, 488), (451, 494), (450, 498), (449, 500), (448, 503), (448, 506), (447, 507), (447, 507), (447, 511), (446, 514), (446, 519), (444, 530), (443, 552), (443, 563), (443, 572), (443, 582), (443, 593), (443, 596), (443, 598), (443, 600), (443, 606), (444, 608), (444, 611), (444, 614), (444, 624), (444, 627)]",105.63350034530703,"[9, 4, 6, 1, 5, 8, 2, 7, 3]","(0, 0.25)",CHN005D,CHN,D,Chinese,Mon Aug 20 18:59:38 2018,Mouse
2,1,4,0,23,6,6,1,802,412,390,138,0,500,200,8000,"[(512, 384), (512, 384), (512, 384), (512, 384), (512, 384), (512, 384), (512, 384), (512, 384), (512, 384), (512, 384), (512, 384), (512, 384), (512, 384), (512, 384), (512, 384), (512, 384), (512, 384), (512, 384), (512, 384), (512, 384), (512, 384), (512, 384), (512, 384), (512, 384), (512, 384), (512, 384), (512, 384), (512, 384), (512, 384), (512, 384), (512, 384), (512, 384), (512, 384), (512, 384), (512, 384), (512, 384), (512, 384), (512, 384), (512, 384), (512, 384), (512, 384), (510, 384), (509, 385), (505, 388), (500, 391), (496, 394), (494, 396), (488, 400), (487, 402), (484, 404), (484, 405), (481, 408), (480, 410), (480, 411), (478, 414), (477, 418), (477, 421), (476, 424), (476, 425), (474, 433), (474, 437), (473, 440), (473, 446), (472, 460), (471, 468), (471, 476), (471, 487), (468, 507), (466, 516), (461, 528), (460, 537), (451, 555), (449, 562), (447, 570), (447, 577), (446, 590), (446, 598), (446, 604), (446, 609), (446, 620), (446, 626)]",105.25511870305779,"[9, 4, 6, 1, 5, 8, 2, 7, 3]","(0, 0.25)",CHN005D,CHN,D,Chinese,Mon Aug 20 18:59:38 2018,Mouse
2,1,4,0,24,6,6,1,513,213,300,137,0,500,200,8000,"[(512, 384), (512, 384), (512, 384), (512, 384), (512, 384), (512, 384), (512, 384), (512, 384), (512, 384), (512, 384), (512, 384), (512, 384), (512, 384), (512, 384), (512, 384), (512, 384), (512, 384), (512, 384), (512, 384), (512, 384), (512, 384), (512, 387), (509, 394), (501, 409), (497, 418), (496, 425), (494, 432), (486, 448), (485, 452), (484, 459), (482, 465), (481, 479), (481, 486), (480, 495), (478, 503), (476, 517), (475, 524), (475, 531), (475, 538), (473, 553), (473, 559), (473, 564), (471, 570), (471, 578), (470, 581), (470, 586), (469, 593), (465, 604), (462, 611), (462, 617), (460, 623), (457, 632)]",102.50434324457804,"[9, 4, 6, 1, 5, 8, 2, 7, 3]","(0, 0.25)",CHN005D,CHN,D,Chinese,Mon Aug 20 18:59:38 2018,Mouse
2,1,4,0,25,7,6,0,-672,402,270,136,0,500,200,8000,"[(512, 384), (512, 384), (512, 384), (512, 384), (512, 384), (512, 384), (512, 384), (512, 384), (512, 384), (512, 384), (512, 384), (512, 384), (512, 384), (512, 384), (512, 384), (512, 384), (512, 384), (512, 384), (512, 384), (512, 384), (512, 384), (512, 384), (512, 384), (512, 384), (512, 384), (512, 384), (512, 384), (512, 384), (512, 384), (512, 384), (512, 384), (512, 384), (512, 384), (512, 384), (512, 384), (512, 384), (512, 384), (512, 384), (512, 384), (512, 384), (512, 385), (509, 391), (501, 398), (492, 407), (479, 423), (475, 428), (474, 430), (471, 433), (470, 442), (468, 450), (468, 457), (468, 467), (468, 484), (468, 495), (468, 505), (468, 514), (467, 535), (463, 546), (460, 555), (458, 563), (454, 580), (451, 590), (449, 596), (447, 604), (446, 616), (445, 620), (445, 623), (444, 626)]",105.69492414342002,"[9, 4, 6, 1, 5, 8, 2, 7, 3]","(0, 0.25)",CHN005D,CHN,D,Chinese,Mon Aug 20 18:59:38 2018,Mouse
2,1,4,0,26,1,1,1,692,182,510,137,0,500,200,8000,"[(512, 384), (512, 384), (512, 384), (512, 384), (512, 384), (512, 384), (512, 384), (512, 384), (512, 384), (512, 384), (512, 384), (512, 384), (512, 384), (512, 384), (512, 384), (512, 384), (512, 384), (512, 384), (512, 383), (509, 378), (505, 377), (498, 372), (494, 371), (490, 369), (485, 366), (481, 364), (480, 362), (479, 362), (479, 362), (479, 362), (479, 362), (478, 361), (478, 361), (476, 361), (476, 360), (476, 360), (475, 359), (475, 359), (473, 359), (472, 360), (471, 361), (461, 368), (456, 373), (451, 380), (446, 388), (436, 401), (431, 407), (426, 412), (422, 417), (408, 430), (399, 437), (390, 443), (382, 450), (366, 464), (361, 468), (355, 473), (349, 480), (336, 499), (333, 502), (331, 507), (330, 510), (329, 512), (329, 512), (327, 514), (326, 515), (322, 519), (319, 520), (315, 526), (311, 530), (308, 532)]",144.03948280335513,"[9, 4, 6, 1, 5, 8, 2, 7, 3]","(0, 0.25)",CHN005D,CHN,D,Chinese,Mon Aug 20 18:59:38 2018,Mouse
2,1,4,0,27,8,9,0,-1661,1371,290,137,0,500,200,8000,"[(512, 384), (512, 384), (512, 384), (512, 384), (512, 384), (512, 384), (512, 384), (512, 384), (512, 384), (512, 384), (512, 384), (512, 384), (512, 384), (512, 384), (512, 384), (512, 384), (512, 384), (512, 384), (512, 384), (512, 384), (512, 384), (512, 384), (512, 384), (512, 384), (512, 384), (512, 384), (512, 384), (512, 384), (512, 384), (512, 384), (512, 384), (512, 384), (512, 384), (512, 384), (512, 384), (512, 384), (512, 384), (512, 384), (512, 384), (512, 384), (512, 384), (512, 384), (512, 384), (512, 384), (512, 384), (512, 384), (512, 384), (512, 384), (512, 384), (512, 384), (512, 384), (512, 384), (512, 384), (512, 384), (512, 384), (512, 384), (512, 384), (512, 384), (512, 384), (512, 384), (512, 384), (512, 384), (512, 384), (512, 384), (512, 384), (512, 384), (512, 384), (512, 384), (512, 384), (512, 384), (512, 384), (512, 384), (512, 384), (512, 384), (512, 384), (512, 384), (512, 384), (512, 384), (512, 384), (512, 384), (512, 384), (512, 384), (512, 384), (512, 384), (512, 384), (512, 384), (512, 384), (512, 384), (512, 384), (512, 384), (512, 384), (512, 384), (512, 384), (512, 384), (512, 384), (512, 384), (512, 384), (512, 384), (512, 384), (512, 384), (512, 384), (512, 384), (512, 384), (512, 384), (512, 384), (512, 384), (512, 384), (512, 384), (512, 384), (512, 384), (512, 384), (512, 384), (512, 384), (512, 384), (512, 384), (512, 384), (512, 384), (512, 384), (512, 384), (512, 384), (512, 384), (512, 384), (512, 384), (512, 384), (512, 384), (512, 384), (512, 384), (512, 384), (512, 384), (512, 384), (512, 384), (512, 384), (512, 384), (512, 384), (512, 384), (512, 384), (512, 384), (512, 385), (512, 385), (514, 387), (515, 388), (515, 388), (515, 388), (515, 388), (517, 391), (517, 392), (518, 392), (520, 394), (526, 397), (530, 399), (536, 401), (545, 406), (561, 410), (569, 412), (576, 414), (586, 416), (604, 425), (612, 428), (622, 433), (635, 436), (658, 444), (670, 449), (684, 453), (706, 458), (732, 467), (745, 469), (757, 474)]",20.1706534118504,"[9, 4, 6, 1, 5, 8, 2, 7, 3]","(0, 0.25)",CHN005D,CHN,D,Chinese,Mon Aug 20 18:59:38 2018,Mouse
2,1,4,0,28,8,8,1,1765,735,1030,138,0,500,200,8000,"[(512, 384), (512, 384), (512, 384), (512, 384), (512, 384), (512, 384), (512, 384), (512, 384), (512, 384), (512, 384), (512, 384), (512, 384), (512, 384), (512, 384), (512, 384), (512, 384), (512, 384), (512, 384), (512, 384), (512, 384), (512, 384), (512, 384), (512, 384), (512, 384), (512, 384), (512, 384), (512, 384), (512, 384), (512, 384), (512, 384), (512, 384), (512, 384), (512, 384), (512, 384), (512, 384), (512, 384), (512, 384), (512, 384), (512, 384), (512, 384), (512, 384), (512, 384), (512, 384), (512, 384), (512, 384), (512, 384), (512, 384), (512, 384), (512, 384), (512, 384), (512, 384), (512, 384), (512, 384), (512, 384), (512, 384), (512, 384), (512, 384), (512, 384), (512, 384), (512, 384), (512, 384), (512, 384), (512, 384), (512, 384), (512, 384), (512, 384), (512, 384), (512, 384), (512, 384), (512, 384), (512, 384), (512, 384), (512, 384), (511, 384), (511, 384), (511, 384), (511, 384), (511, 384), (510, 384), (510, 384), (510, 384), (508, 384), (507, 384), (505, 384), (504, 383), (499, 382), (499, 382), (496, 382), (495, 381), (490, 379), (488, 379), (487, 378), (483, 377), (478, 374), (475, 373), (471, 371), (468, 370), (460, 366), (458, 365), (452, 363), (450, 362), (442, 358), (440, 356), (436, 353), (434, 352), (428, 348), (425, 345), (422, 344), (419, 340), (411, 335), (404, 331), (401, 328), (396, 326), (388, 321), (385, 318), (383, 317), (381, 314), (376, 312), (373, 309), (369, 306), (364, 302), (356, 296), (350, 291), (347, 290), (342, 286), (336, 282), (334, 280), (333, 280), (333, 279), (331, 278), (331, 278), (331, 278), (330, 277), (329, 275), (327, 272), (325, 269), (322, 268), (317, 264), (316, 263), (312, 261), (312, 260), (311, 259), (309, 257), (309, 257), (309, 257), (309, 254), (307, 253), (307, 253), (307, 252), (307, 250), (307, 250), (307, 249), (307, 249), (307, 248), (307, 247), (307, 245), (307, 245), (307, 244), (307, 243), (307, 243), (307, 242), (307, 242), (307, 242), (307, 242), (307, 242), (307, 242), (307, 242), (307, 242), (307, 242), (307, 242), (307, 242), (307, 242), (307, 242), (307, 242), (307, 242), (307, 241), (307, 239)]",215.27242144859838,"[9, 4, 6, 1, 5, 8, 2, 7, 3]","(0, 0.25)",CHN005D,CHN,D,Chinese,Mon Aug 20 18:59:38 2018,Mouse
2,1,4,0,29,6,6,1,692,262,430,138,0,500,200,8000,"[(512, 384), (512, 384), (512, 384), (512, 384), (512, 384), (512, 384), (512, 384), (512, 384), (512, 384), (512, 384), (512, 384), (512, 384), (512, 384), (512, 384), (512, 384), (512, 384), (512, 384), (512, 384), (512, 384), (512, 384), (512, 384), (512, 384), (512, 384), (512, 384), (512, 384), (512, 384), (512, 385), (512, 385), (512, 389), (512, 395), (512, 396), (512, 398), (512, 401), (511, 403), (511, 405), (511, 407), (511, 409), (511, 416), (511, 419), (509, 424), (508, 429), (506, 439), (504, 444), (503, 449), (502, 453), (498, 463), (497, 468), (497, 472), (495, 477), (494, 487), (493, 494), (490, 500), (488, 510), (477, 534), (475, 540), (471, 550), (469, 557), (465, 565), (463, 569), (463, 573), (463, 576), (462, 582), (462, 586), (461, 593), (459, 600), (457, 616), (457, 620), (457, 623), (457, 627), (457, 635)]",102.35950872673544,"[9, 4, 6, 1, 5, 8, 2, 7, 3]","(0, 0.25)",CHN005D,CHN,D,Chinese,Mon Aug 20 18:59:38 2018,Mouse
2,1,4,0,30,8,6,0,-1083,643,440,137,0,500,200,8000,"[(512, 384), (512, 384), (512, 384), (512, 384), (512, 384), (512, 384), (512, 384), (512, 384), (512, 384), (512, 384), (512, 384), (512, 384), (512, 384), (512, 384), (512, 384), (512, 384), (512, 384), (512, 384), (512, 384), (512, 384), (512, 384), (512, 384), (512, 384), (512, 384), (512, 384), (512, 384), (512, 384), (512, 384), (512, 384), (512, 384), (512, 384), (512, 384), (512, 384), (512, 384), (512, 384), (512, 384), (512, 384), (512, 384), (512, 384), (512, 384), (512, 384), (512, 384), (512, 384), (512, 384), (512, 384), (512, 384), (512, 384), (512, 384), (512, 384), (512, 384), (512, 384), (512, 384), (512, 384), (512, 384), (512, 384), (512, 384), (512, 384), (512, 384), (512, 384), (512, 384), (512, 384), (512, 384), (512, 384), (512, 384), (515, 385), (516, 389), (516, 391), (517, 394), (519, 401), (520, 403), (520, 406), (520, 409), (521, 413), (521, 414), (522, 419), (523, 419), (523, 420), (523, 420), (523, 421), (523, 422), (523, 427), (523, 429), (523, 433), (523, 440), (523, 451), (523, 459), (523, 466), (523, 474), (521, 498), (520, 510), (517, 522), (516, 533), (513, 553), (510, 561), (509, 570), (506, 577), (502, 589), (501, 595), (500, 598), (498, 601), (497, 605), (496, 607), (496, 609), (493, 613), (492, 617), (490, 623), (489, 626), (488, 632), (485, 640)]",96.02065617683643,"[9, 4, 6, 1, 5, 8, 2, 7, 3]","(0, 0.25)",CHN005D,CHN,D,Chinese,Mon Aug 20 18:59:38 2018,Mouse
2,1,4,0,31,7,1,0,-612,292,320,138,0,500,200,8000,"[(512, 384), (512, 384), (512, 384), (512, 384), (512, 384), (512, 384), (512, 384), (512, 384), (512, 384), (512, 384), (512, 384), (512, 384), (512, 384), (512, 384), (512, 384), (512, 384), (512, 384), (512, 384), (512, 384), (512, 384), (512, 384), (512, 384), (512, 384), (512, 384), (512, 384), (512, 384), (512, 384), (512, 384), (512, 384), (512, 383), (512, 382), (508, 380), (503, 378), (499, 378), (496, 378), (494, 378), (491, 378), (491, 378), (490, 378), (490, 378), (486, 383), (485, 385), (482, 389), (478, 393), (470, 402), (464, 408), (456, 416), (448, 423), (434, 441), (427, 450), (421, 459), (413, 468), (397, 485), (391, 493), (383, 504), (375, 511), (357, 524), (350, 529), (340, 535), (333, 539), (324, 545), (320, 547)]",139.67013035930097,"[9, 4, 6, 1, 5, 8, 2, 7, 3]","(0, 0.25)",CHN005D,CHN,D,Chinese,Mon Aug 20 18:59:38 2018,Mouse
2,1,4,0,32,7,5,0,-1142,882,260,139,0,500,200,8000,"[(512, 384), (512, 384), (512, 384), (512, 384), (512, 384), (512, 384), (512, 384), (512, 384), (512, 384), (512, 384), (512, 384), (512, 384), (512, 384), (512, 384), (512, 384), (512, 384), (512, 384), (512, 384), (512, 384), (512, 384), (512, 384), (512, 384), (512, 384), (512, 384), (512, 384), (512, 384), (512, 384), (512, 384), (512, 384), (512, 384), (512, 384), (512, 384), (512, 384), (512, 384), (512, 384), (512, 384), (512, 384), (512, 384), (512, 384), (512, 384), (512, 384), (512, 384), (512, 384), (512, 384), (512, 384), (512, 384), (512, 384), (512, 384), (512, 384), (512, 384), (512, 384), (512, 384), (512, 384), (512, 384), (512, 384), (512, 384), (512, 384), (512, 384), (512, 384), (512, 384), (512, 384), (512, 384), (512, 384), (512, 384), (512, 384), (512, 384), (512, 384), (512, 384), (512, 384), (512, 384), (512, 384), (512, 384), (512, 384), (512, 384), (512, 384), (512, 384), (512, 384), (512, 384), (512, 384), (512, 384), (512, 384), (512, 384), (512, 384), (512, 384), (512, 384), (512, 384), (512, 384), (512, 384), (511, 383), (509, 383), (507, 383), (500, 383), (495, 382), (491, 381), (485, 379), (473, 376), (467, 374), (463, 372), (456, 371), (440, 366), (429, 362), (418, 361), (403, 360), (375, 356), (362, 356), (349, 352), (337, 351), (317, 350), (307, 349), (301, 347), (293, 347), (279, 346), (272, 345), (267, 345), (263, 345)]",188.901716032892,"[9, 4, 6, 1, 5, 8, 2, 7, 3]","(0, 0.25)",CHN005D,CHN,D,Chinese,Mon Aug 20 18:59:38 2018,Mouse
2,1,4,0,33,2,2,1,971,371,600,140,0,500,200,8000,"[(512, 384), (512, 384), (512, 384), (512, 384), (512, 384), (512, 384), (512, 384), (512, 384), (512, 384), (512, 384), (512, 384), (512, 384), (512, 384), (512, 384), (512, 384), (512, 384), (512, 384), (512, 384), (512, 384), (512, 384), (512, 384), (512, 384), (512, 384), (512, 384), (512, 384), (512, 384), (512, 384), (512, 384), (512, 384), (512, 384), (512, 384), (512, 384), (512, 384), (512, 384), (512, 384), (512, 384), (512, 384), (517, 383), (518, 382), (518, 382), (518, 382), (519, 382), (519, 381), (520, 381), (520, 381), (522, 381), (523, 381), (525, 381), (526, 380), (527, 378), (527, 378), (527, 378), (527, 378), (527, 378), (528, 378), (528, 378), (528, 378), (528, 378), (528, 378), (528, 378), (529, 378), (529, 378), (529, 378), (529, 378), (529, 378), (529, 378), (529, 378), (529, 378), (529, 377), (529, 377), (529, 377), (529, 377), (529, 377), (529, 373), (529, 372), (529, 370), (528, 369), (528, 362), (526, 358), (524, 351), (524, 345), (521, 326), (521, 319), (520, 308), (518, 298), (517, 276), (514, 266), (514, 257), (514, 250), (510, 230), (509, 223), (508, 214), (507, 204), (503, 181), (502, 168), (499, 158), (497, 149), (493, 128)]",265.7553612039458,"[9, 4, 6, 1, 5, 8, 2, 7, 3]","(0, 0.25)",CHN005D,CHN,D,Chinese,Mon Aug 20 18:59:38 2018,Mouse
2,1,4,0,34,4,4,1,1872,172,1700,140,0,500,200,8000,"[(512, 384), (512, 384), (512, 384), (512, 384), (512, 384), (512, 384), (512, 384), (512, 384), (512, 384), (512, 384), (512, 384), (512, 384), (512, 384), (512, 384), (512, 384), (512, 384), (512, 384), (512, 385), (512, 385), (512, 385), (512, 385), (512, 385), (512, 385), (512, 385), (512, 385), (512, 385), (512, 385), (512, 385), (512, 385), (512, 385), (512, 385), (512, 385), (512, 385), (512, 385), (512, 385), (512, 385), (512, 385), (512, 385), (512, 385), (512, 385), (512, 385), (512, 385), (512, 385), (512, 385), (512, 385), (512, 385), (512, 385), (512, 385), (512, 385), (512, 385), (512, 385), (512, 385), (512, 385), (512, 385), (512, 385), (512, 385), (512, 385), (512, 385), (512, 385), (512, 385), (512, 385), (512, 385), (512, 385), (512, 385), (512, 385), (512, 385), (512, 385), (512, 385), (512, 386), (512, 387), (513, 389), (514, 391), (515, 391), (516, 393), (516, 393), (516, 393), (516, 393), (516, 393), (516, 393), (516, 393), (516, 393), (516, 393), (516, 393), (516, 393), (516, 393), (516, 393), (516, 393), (516, 393), (516, 393), (516, 393), (516, 393), (516, 393), (516, 393), (516, 393), (515, 394), (515, 395), (513, 397), (512, 401), (510, 411), (506, 421), (502, 446), (500, 461), (498, 472), (497, 480), (493, 493), (490, 498), (490, 499), (490, 502), (489, 502), (489, 503), (487, 503), (487, 504), (487, 504), (487, 504), (487, 504), (487, 504), (487, 504), (487, 504), (487, 504), (487, 504), (486, 505), (485, 505), (484, 506), (484, 506), (483, 507), (483, 507), (483, 507), (483, 507), (483, 507), (482, 507), (482, 507), (482, 507), (482, 507), (482, 507), (482, 507), (482, 507), (482, 512), (482, 516), (482, 518), (482, 518), (482, 521), (482, 521), (482, 521), (482, 521), (482, 521), (482, 521), (482, 521), (482, 521), (482, 521), (482, 521), (482, 521), (482, 521), (482, 521), (482, 522), (483, 525), (486, 527), (493, 534), (497, 537), (502, 541), (508, 544), (517, 550), (522, 553), (524, 553), (527, 554), (529, 555), (529, 555), (530, 555), (530, 555), (531, 555), (532, 555), (533, 555), (533, 555), (533, 555), (533, 555), (534, 555), (534, 555), (535, 555), (536, 555), (536, 555), (539, 555), (547, 559), (554, 563), (563, 570), (573, 579), (593, 594), (600, 602), (608, 608), (615, 615)]",65.96850771131658,"[9, 4, 6, 1, 5, 8, 2, 7, 3]","(0, 0.25)",CHN005D,CHN,D,Chinese,Mon Aug 20 18:59:38 2018,Mouse
2,1,4,0,35,4,4,1,467,27,440,139,0,500,200,8000,"[(511, 382), (511, 382), (510, 380), (510, 380), (509, 380), (509, 380), (509, 380), (509, 380), (509, 380), (509, 380), (509, 380), (509, 380), (509, 380), (509, 380), (509, 380), (509, 380), (509, 380), (509, 380), (509, 380), (509, 380), (509, 382), (509, 385), (509, 388), (509, 393), (509, 401), (510, 406), (512, 411), (514, 417), (523, 439), (531, 452), (538, 463), (545, 476), (558, 497), (563, 502), (567, 508), (572, 515), (575, 521), (577, 526), (580, 530), (582, 536), (591, 552), (597, 563), (605, 570), (612, 579), (628, 592), (636, 598), (641, 602)]",59.38536711965063,"[9, 4, 6, 1, 5, 8, 2, 7, 3]","(0, 0.25)",CHN005D,CHN,D,Chinese,Mon Aug 20 18:59:38 2018,Mouse
2,1,4,0,36,9,9,1,552,352,200,138,0,500,200,8000,"[(512, 384), (512, 384), (512, 384), (512, 384), (512, 384), (512, 384), (512, 384), (512, 384), (512, 384), (512, 384), (512, 384), (512, 384), (512, 384), (512, 384), (512, 384), (512, 384), (512, 384), (512, 384), (512, 384), (512, 384), (512, 384), (512, 384), (512, 384), (512, 384), (512, 384), (512, 384), (512, 384), (512, 384), (512, 384), (512, 384), (512, 384), (512, 384), (512, 384), (512, 384), (512, 384), (513, 384), (527, 386), (545, 389), (587, 400), (606, 406), (631, 412), (648, 417), (669, 423), (677, 426), (681, 428), (685, 430), (688, 431), (690, 432), (694, 434), (696, 435), (705, 440), (711, 443), (716, 446), (725, 449), (743, 454), (753, 455)]",16.415279676199535,"[9, 4, 6, 1, 5, 8, 2, 7, 3]","(0, 0.25)",CHN005D,CHN,D,Chinese,Mon Aug 20 18:59:38 2018,Mouse
2,1,4,0,37,2,2,1,1381,151,1230,137,0,500,200,8000,"[(512, 384), (512, 384), (512, 384), (512, 384), (512, 384), (512, 384), (512, 384), (512, 384), (512, 384), (512, 384), (512, 384), (512, 384), (512, 384), (512, 384), (512, 384), (509, 384), (506, 384), (504, 384), (500, 384), (494, 383), (489, 381), (483, 378), (477, 376), (466, 372), (460, 370), (454, 367), (446, 365), (433, 358), (428, 356), (419, 354), (414, 351), (406, 347), (405, 347), (403, 347), (403, 347), (402, 347), (402, 347), (402, 347), (402, 347), (402, 347), (402, 347), (402, 347), (402, 347), (402, 347), (400, 347), (398, 347), (397, 351), (395, 359), (394, 363), (394, 368), (394, 370), (394, 375), (394, 376), (394, 377), (394, 377), (394, 378), (394, 378), (394, 378), (394, 378), (394, 378), (394, 378), (394, 378), (394, 378), (394, 378), (394, 378), (394, 378), (394, 378), (394, 378), (394, 378), (394, 378), (394, 378), (394, 378), (394, 378), (394, 378), (394, 378), (394, 379), (397, 379), (398, 379), (401, 379), (410, 372), (415, 368), (420, 364), (426, 360), (435, 352), (436, 349), (439, 344), (440, 341), (442, 333), (444, 329), (446, 325), (448, 320), (450, 312), (450, 310), (452, 307), (453, 304), (454, 300), (455, 298), (456, 297), (456, 295), (457, 290), (457, 288), (457, 285), (457, 284), (457, 281), (458, 281), (458, 280), (458, 280), (458, 280), (458, 280), (458, 280), (458, 280), (458, 280), (458, 280), (458, 280), (458, 280), (458, 280), (458, 280), (458, 280), (458, 280), (458, 280), (458, 280), (458, 280), (458, 280), (462, 275), (464, 268), (466, 261), (471, 251), (480, 231), (482, 223), (482, 213), (486, 205), (487, 185), (491, 177), (491, 169), (491, 162), (490, 148), (488, 140), (486, 137), (484, 131)]",263.68466542368594,"[9, 4, 6, 1, 5, 8, 2, 7, 3]","(0, 0.25)",CHN005D,CHN,D,Chinese,Mon Aug 20 18:59:38 2018,Mouse
2,1,4,0,38,4,9,0,-1281,871,410,136,0,500,200,8000,"[(512, 384), (512, 384), (512, 384), (512, 384), (512, 384), (512, 384), (512, 384), (512, 384), (512, 384), (512, 384), (512, 384), (512, 384), (512, 384), (512, 384), (512, 384), (512, 384), (512, 384), (512, 384), (512, 384), (512, 384), (512, 384), (512, 384), (512, 384), (512, 384), (512, 384), (512, 384), (512, 384), (512, 384), (512, 384), (512, 384), (512, 384), (512, 384), (512, 384), (512, 384), (512, 384), (512, 384), (512, 384), (512, 384), (512, 384), (512, 384), (512, 384), (512, 384), (512, 384), (512, 384), (512, 384), (512, 384), (512, 384), (512, 384), (512, 384), (512, 384), (512, 384), (512, 384), (512, 384), (512, 384), (512, 384), (512, 384), (512, 384), (512, 384), (512, 384), (512, 384), (512, 384), (512, 384), (512, 384), (512, 384), (512, 384), (512, 384), (512, 384), (512, 384), (512, 384), (512, 384), (512, 384), (512, 384), (512, 384), (512, 384), (512, 384), (512, 384), (512, 384), (512, 384), (512, 384), (512, 384), (512, 384), (512, 384), (512, 384), (512, 384), (512, 384), (512, 384), (512, 384), (513, 386), (522, 390), (549, 398), (562, 402), (573, 406), (584, 407), (598, 410), (601, 410), (602, 411), (602, 411), (602, 411), (602, 411), (602, 411), (602, 411), (602, 411), (602, 411), (602, 411), (602, 411), (605, 411), (607, 413), (608, 413), (609, 413), (609, 413), (609, 413), (609, 413), (610, 413), (613, 414), (616, 415), (619, 415), (624, 418), (634, 420), (644, 425), (654, 429), (664, 435), (684, 447), (692, 454), (701, 459), (708, 466), (723, 474), (733, 480), (739, 485), (749, 488)]",23.692757991876714,"[9, 4, 6, 1, 5, 8, 2, 7, 3]","(0, 0.25)",CHN005D,CHN,D,Chinese,Mon Aug 20 18:59:38 2018,Mouse
2,1,4,0,39,5,5,1,922,52,870,137,0,500,200,8000,"[(512, 384), (512, 384), (512, 384), (512, 384), (512, 384), (511, 384), (511, 384), (511, 384), (511, 384), (511, 384), (511, 384), (511, 384), (511, 384), (511, 384), (511, 384), (511, 384), (511, 384), (509, 384), (508, 384), (508, 384), (507, 384), (505, 384), (504, 384), (504, 384), (503, 384), (502, 384), (502, 384), (502, 384), (502, 384), (501, 384), (501, 384), (501, 384), (501, 384), (500, 384), (500, 384), (500, 384), (499, 384), (499, 384), (499, 384), (499, 384), (499, 384), (499, 384), (499, 384), (499, 384), (499, 384), (499, 384), (499, 384), (499, 384), (498, 384), (496, 384), (492, 384), (492, 384), (489, 382), (484, 382), (480, 382), (478, 382), (476, 381), (472, 381), (470, 381), (469, 381), (468, 381), (467, 381), (467, 381), (467, 381), (466, 381), (464, 381), (464, 381), (463, 381), (462, 381), (457, 381), (456, 381), (453, 381), (450, 381), (442, 381), (437, 381), (434, 381), (430, 381), (423, 381), (417, 381), (411, 381), (401, 381), (381, 381), (368, 381), (356, 381), (344, 381), (323, 381), (314, 381), (306, 381), (299, 382), (283, 385), (275, 386), (266, 387), (257, 387)]",179.32596310201552,"[9, 4, 6, 1, 5, 8, 2, 7, 3]","(0, 0.25)",CHN005D,CHN,D,Chinese,Mon Aug 20 18:59:38 2018,Mouse
2,1,4,0,40,9,9,1,483,193,290,137,0,500,200,8000,"[(512, 384), (512, 384), (512, 384), (512, 384), (512, 384), (512, 384), (512, 384), (512, 384), (512, 384), (512, 384), (512, 384), (512, 384), (512, 384), (512, 384), (512, 384), (512, 384), (512, 384), (512, 384), (512, 384), (516, 384), (522, 385), (534, 388), (541, 390), (551, 394), (559, 397), (578, 401), (586, 403), (593, 406), (600, 409), (614, 413), (622, 415), (629, 418), (638, 420), (655, 425), (662, 427), (669, 429), (675, 430), (687, 433), (689, 434), (694, 436), (698, 437), (704, 442), (708, 444), (713, 448), (718, 452), (733, 462), (739, 464), (746, 467), (752, 469)]",19.50244850666222,"[9, 4, 6, 1, 5, 8, 2, 7, 3]","(0, 0.25)",CHN005D,CHN,D,Chinese,Mon Aug 20 18:59:38 2018,Mouse
2,1,4,0,41,7,6,0,-572,242,330,136,0,500,200,8000,"[(512, 384), (512, 384), (512, 384), (512, 384), (512, 384), (512, 384), (512, 384), (512, 384), (512, 384), (512, 384), (512, 384), (512, 384), (512, 384), (512, 384), (512, 384), (512, 384), (512, 384), (512, 384), (512, 384), (512, 384), (512, 384), (512, 384), (512, 384), (512, 384), (512, 385), (510, 387), (507, 388), (506, 388), (505, 389), (504, 390), (502, 392), (501, 394), (499, 395), (496, 401), (494, 403), (491, 409), (489, 411), (484, 424), (484, 428), (481, 438), (480, 445), (476, 466), (475, 474), (474, 484), (473, 491), (471, 506), (470, 516), (468, 528), (467, 539), (464, 558), (463, 567), (462, 573), (462, 584), (462, 602), (462, 610), (462, 620), (464, 627), (466, 640)]",100.18662975994478,"[9, 4, 6, 1, 5, 8, 2, 7, 3]","(0, 0.25)",CHN005D,CHN,D,Chinese,Mon Aug 20 18:59:38 2018,Mouse
2,1,4,0,42,8,9,0,-1782,822,960,137,0,500,200,8000,"[(512, 384), (512, 384), (512, 384), (512, 384), (512, 384), (512, 384), (512, 384), (512, 384), (512, 384), (512, 384), (512, 384), (512, 384), (512, 384), (512, 384), (512, 384), (512, 384), (512, 384), (512, 384), (512, 384), (512, 384), (512, 384), (512, 384), (512, 384), (512, 384), (512, 384), (512, 384), (512, 384), (512, 384), (512, 384), (512, 384), (512, 384), (512, 384), (512, 384), (512, 384), (512, 384), (512, 384), (512, 384), (512, 384), (512, 384), (512, 384), (512, 384), (512, 384), (512, 384), (512, 384), (512, 384), (512, 384), (512, 384), (512, 384), (512, 384), (512, 384), (512, 384), (512, 384), (512, 384), (512, 384), (512, 384), (512, 384), (512, 384), (512, 384), (512, 384), (512, 384), (512, 384), (512, 384), (512, 384), (512, 384), (512, 384), (512, 384), (512, 384), (512, 384), (512, 384), (512, 384), (512, 384), (512, 384), (512, 384), (512, 384), (512, 384), (512, 384), (512, 384), (512, 384), (512, 384), (512, 384), (512, 384), (512, 384), (512, 381), (509, 376), (507, 370), (506, 369), (505, 366), (503, 365), (502, 362), (500, 360), (500, 359), (497, 356), (497, 355), (496, 354), (495, 351), (494, 349), (491, 344), (488, 340), (484, 334), (481, 331), (472, 323), (467, 318), (461, 313), (455, 309), (443, 303), (438, 301), (434, 299), (431, 298), (430, 297), (430, 297), (430, 297), (430, 297), (430, 297), (430, 297), (430, 297), (430, 297), (430, 297), (430, 297), (430, 297), (430, 297), (430, 297), (430, 297), (430, 297), (430, 297), (432, 300), (439, 305), (446, 310), (454, 316), (475, 327), (486, 331), (499, 335), (510, 339), (530, 348), (538, 354), (549, 359), (558, 365), (573, 373), (580, 379), (585, 381), (588, 383), (598, 389), (600, 391), (603, 393), (603, 393), (604, 394), (604, 394), (604, 394), (604, 394), (604, 394), (604, 394), (604, 394), (604, 394), (604, 394), (604, 394), (604, 394), (601, 390), (581, 377), (567, 369), (550, 360), (535, 353), (507, 343), (498, 338), (490, 335), (486, 333), (484, 332), (484, 332), (484, 332), (484, 332), (484, 332), (484, 332), (484, 332), (490, 336), (517, 356), (540, 372), (568, 391), (605, 410), (685, 444), (722, 455), (758, 466)]",18.43494882292201,"[9, 4, 6, 1, 5, 8, 2, 7, 3]","(0, 0.25)",CHN005D,CHN,D,Chinese,Mon Aug 20 18:59:38 2018,Mouse
2,1,4,0,43,5,5,1,1131,541,590,138,0,500,200,8000,"[(512, 384), (512, 384), (512, 384), (512, 384), (512, 384), (512, 384), (512, 384), (512, 384), (512, 384), (512, 384), (512, 384), (512, 384), (512, 384), (512, 384), (512, 384), (512, 384), (512, 384), (512, 384), (512, 384), (512, 384), (512, 384), (512, 384), (512, 384), (512, 384), (512, 384), (512, 384), (512, 384), (512, 384), (512, 384), (512, 384), (512, 384), (512, 384), (512, 384), (512, 384), (512, 384), (512, 384), (512, 384), (512, 384), (512, 384), (512, 384), (512, 384), (512, 384), (512, 384), (512, 384), (512, 384), (512, 384), (512, 384), (512, 384), (512, 384), (512, 384), (512, 384), (512, 384), (512, 384), (512, 384), (511, 383), (511, 383), (511, 383), (510, 384), (510, 384), (510, 384), (510, 384), (510, 384), (510, 384), (510, 384), (510, 384), (510, 386), (510, 389), (510, 390), (510, 392), (510, 394), (512, 396), (513, 397), (514, 398), (515, 400), (515, 400), (515, 400), (515, 400), (515, 400), (515, 400), (515, 400), (515, 400), (515, 400), (515, 400), (515, 400), (515, 400), (515, 400), (515, 400), (515, 400), (515, 401), (514, 403), (502, 405), (495, 405), (486, 405), (476, 405), (460, 405), (450, 405), (439, 405), (428, 405), (413, 405), (408, 405), (402, 405), (398, 405), (384, 405), (377, 405), (368, 405), (358, 405), (341, 405), (328, 405), (319, 405), (308, 405), (286, 405), (277, 405), (263, 405), (252, 405)]",175.38228802750606,"[9, 4, 6, 1, 5, 8, 2, 7, 3]","(0, 0.25)",CHN005D,CHN,D,Chinese,Mon Aug 20 18:59:38 2018,Mouse
2,1,4,0,44,7,6,0,-562,242,320,138,0,500,200,8000,"[(512, 384), (512, 384), (512, 384), (512, 384), (512, 384), (512, 384), (512, 384), (512, 384), (512, 384), (512, 384), (512, 384), (512, 384), (512, 384), (512, 384), (512, 384), (512, 384), (512, 384), (512, 384), (512, 384), (512, 384), (512, 384), (512, 384), (512, 384), (512, 384), (512, 387), (512, 392), (512, 393), (512, 394), (512, 397), (512, 399), (512, 400), (512, 404), (512, 406), (512, 412), (511, 415), (511, 417), (510, 423), (510, 434), (510, 441), (510, 449), (510, 456), (510, 468), (510, 474), (510, 479), (510, 486), (510, 504), (507, 515), (505, 525), (503, 536), (495, 556), (491, 566), (487, 576), (481, 586), (472, 607), (466, 617), (463, 627), (460, 634)]",101.74998357177668,"[9, 4, 6, 1, 5, 8, 2, 7, 3]","(0, 0.25)",CHN005D,CHN,D,Chinese,Mon Aug 20 18:59:38 2018,Mouse
2,1,4,0,45,7,7,1,1272,1112,160,139,0,500,200,8000,"[(512, 384), (512, 384), (512, 384), (512, 384), (512, 384), (512, 384), (512, 384), (512, 384), (512, 384), (512, 384), (512, 384), (512, 384), (512, 384), (512, 384), (512, 384), (512, 384), (512, 384), (512, 384), (512, 384), (512, 384), (512, 384), (512, 384), (512, 384), (512, 384), (512, 384), (512, 384), (512, 384), (512, 384), (512, 384), (512, 384), (512, 384), (512, 384), (512, 384), (512, 384), (512, 384), (512, 384), (512, 384), (512, 384), (512, 384), (512, 384), (512, 384), (512, 384), (512, 384), (512, 384), (512, 384), (512, 384), (512, 384), (512, 384), (512, 384), (512, 384), (512, 384), (512, 384), (512, 384), (512, 384), (512, 384), (512, 384), (512, 384), (512, 384), (512, 384), (512, 384), (512, 384), (512, 384), (512, 384), (512, 384), (512, 384), (512, 384), (512, 384), (512, 384), (512, 384), (512, 384), (512, 384), (512, 384), (512, 384), (512, 384), (512, 384), (512, 384), (512, 384), (512, 384), (512, 384), (512, 384), (512, 384), (512, 384), (512, 384), (512, 384), (512, 384), (512, 384), (512, 384), (512, 384), (512, 384), (512, 384), (512, 384), (512, 384), (512, 384), (512, 384), (512, 384), (512, 384), (512, 384), (512, 384), (512, 384), (512, 384), (512, 384), (512, 384), (512, 384), (512, 384), (512, 384), (512, 384), (512, 384), (512, 384), (512, 384), (512, 384), (512, 384), (515, 379), (523, 370), (540, 349), (553, 336), (570, 325), (585, 313), (620, 292), (632, 284), (644, 274), (654, 267), (668, 254), (674, 248), (678, 242), (683, 233), (690, 220), (694, 214), (696, 205)]",315.7891481601458,"[9, 4, 6, 1, 5, 8, 2, 7, 3]","(0, 0.25)",CHN005D,CHN,D,Chinese,Mon Aug 20 18:59:38 2018,Mouse
2,1,4,0,46,3,3,1,1308,138,1170,139,0,500,200,8000,"[(512, 384), (512, 384), (512, 384), (512, 384), (512, 384), (512, 384), (512, 384), (512, 384), (512, 384), (512, 384), (512, 384), (512, 384), (512, 384), (512, 385), (511, 387), (510, 387), (510, 387), (510, 387), (510, 387), (509, 388), (509, 388), (509, 388), (509, 388), (509, 388), (509, 388), (509, 389), (509, 389), (509, 389), (509, 390), (508, 390), (508, 390), (507, 391), (507, 391), (507, 392), (507, 393), (507, 393), (507, 393), (507, 393), (507, 393), (507, 393), (507, 393), (507, 393), (507, 393), (507, 393), (507, 393), (507, 393), (507, 393), (507, 393), (507, 393), (507, 393), (507, 393), (507, 393), (507, 393), (507, 393), (507, 393), (507, 393), (507, 393), (507, 393), (507, 393), (507, 393), (507, 393), (507, 393), (507, 393), (507, 393), (507, 393), (507, 393), (507, 393), (507, 393), (507, 393), (507, 393), (507, 393), (507, 393), (507, 393), (507, 393), (507, 393), (507, 393), (507, 393), (507, 393), (507, 393), (507, 393), (507, 393), (507, 393), (507, 393), (507, 393), (507, 393), (507, 393), (507, 393), (507, 393), (507, 393), (507, 393), (507, 393), (507, 393), (507, 393), (507, 393), (507, 393), (507, 393), (507, 393), (507, 393), (507, 393), (507, 393), (508, 393), (523, 389), (533, 385), (543, 382), (554, 380), (575, 374), (583, 371), (591, 369), (598, 368), (606, 365), (611, 363), (613, 362), (617, 360), (622, 357), (625, 356), (629, 355), (631, 353), (642, 349), (648, 348), (655, 346), (661, 343), (676, 337), (683, 334), (692, 329), (699, 327), (718, 318), (724, 315), (732, 312), (738, 308), (748, 304), (751, 303)]",341.2778566925708,"[9, 4, 6, 1, 5, 8, 2, 7, 3]","(0, 0.25)",CHN005D,CHN,D,Chinese,Mon Aug 20 18:59:38 2018,Mouse
2,1,4,0,47,2,2,1,2661,11,2650,138,0,500,200,8000,"[(512, 384), (510, 385), (510, 386), (509, 386), (509, 386), (508, 387), (508, 387), (508, 387), (507, 387), (507, 387), (507, 387), (507, 387), (507, 387), (507, 387), (507, 387), (507, 387), (507, 387), (506, 387), (506, 387), (506, 388), (506, 388), (506, 388), (506, 388), (505, 388), (505, 388), (505, 388), (505, 388), (505, 388), (505, 388), (505, 388), (505, 388), (505, 388), (505, 388), (505, 388), (505, 388), (505, 388), (505, 388), (505, 388), (505, 388), (505, 388), (505, 388), (505, 388), (505, 388), (505, 388), (505, 388), (505, 388), (505, 388), (505, 388), (505, 388), (505, 388), (505, 388), (505, 388), (505, 388), (505, 388), (510, 387), (519, 382), (524, 379), (530, 377), (535, 374), (545, 371), (550, 369), (554, 366), (559, 364), (568, 360), (573, 359), (579, 357), (583, 356), (591, 354), (593, 352), (595, 352), (595, 352), (597, 351), (597, 351), (597, 351), (597, 351), (597, 351), (597, 351), (597, 351), (597, 351), (597, 351), (597, 351), (597, 351), (597, 351), (597, 351), (597, 351), (597, 351), (595, 351), (589, 354), (587, 356), (581, 360), (579, 362), (573, 366), (571, 367), (570, 369), (568, 370), (564, 372), (562, 372), (560, 374), (556, 377), (546, 381), (543, 383), (540, 385), (536, 385), (534, 387), (532, 387), (531, 388), (529, 389), (526, 390), (523, 393), (521, 394), (518, 397), (511, 402), (508, 404), (507, 405), (505, 406), (505, 406), (505, 406), (505, 406), (505, 406), (505, 406), (505, 406), (505, 406), (505, 406), (505, 406), (503, 408), (503, 408), (503, 408), (503, 408), (503, 408), (503, 408), (503, 408), (503, 408), (502, 408), (500, 408), (497, 409), (484, 412), (480, 412), (477, 412), (474, 412), (473, 412), (473, 412), (473, 412), (473, 412), (473, 412), (473, 412), (473, 412), (473, 412), (473, 412), (473, 412), (473, 412), (473, 412), (473, 412), (473, 412), (473, 412), (473, 412), (473, 412), (473, 412), (473, 412), (473, 412), (473, 412), (473, 412), (473, 412), (473, 412), (473, 412), (473, 412), (473, 412), (473, 412), (473, 412), (473, 412), (473, 412), (473, 412), (473, 412), (473, 412), (473, 412), (473, 412), (472, 413), (472, 416), (472, 417), (472, 417), (472, 417), (472, 417), (472, 417), (472, 417), (472, 417), (473, 417), (475, 419), (476, 419), (484, 423), (489, 425), (493, 425), (499, 428), (505, 430), (508, 430), (510, 431), (510, 431), (512, 432), (512, 432), (513, 432), (513, 432), (515, 432), (515, 433), (515, 433), (515, 433), (516, 433), (516, 433), (516, 433), (518, 433), (518, 433), (518, 433), (518, 433), (518, 433), (518, 433), (518, 433), (518, 433), (518, 433), (518, 433), (518, 433), (518, 433), (518, 433), (518, 433), (518, 433), (518, 433), (518, 433), (518, 433), (518, 431), (518, 428), (518, 425), (517, 417), (514, 411), (511, 405), (508, 399), (498, 384), (497, 378), (494, 371), (492, 365), (488, 348), (488, 342), (488, 336), (488, 330), (488, 320), (488, 316), (488, 313), (488, 312), (488, 305), (488, 304), (488, 303), (488, 302), (488, 298), (488, 296), (488, 295), (488, 291), (488, 286), (488, 282), (488, 277), (488, 270), (488, 252), (488, 241), (488, 231), (488, 221), (488, 199), (486, 189), (486, 177), (486, 167), (486, 150), (486, 141), (486, 136), (486, 130)]",264.15543412261314,"[9, 4, 6, 1, 5, 8, 2, 7, 3]","(0, 0.25)",CHN005D,CHN,D,Chinese,Mon Aug 20 18:59:38 2018,Mouse
2,1,4,0,48,8,6,0,-691,111,580,137,0,500,200,8000,"[(512, 384), (512, 384), (512, 384), (512, 384), (512, 384), (512, 384), (512, 384), (512, 384), (512, 384), (512, 384), (512, 384), (510, 386), (510, 387), (510, 391), (510, 393), (510, 393), (510, 394), (509, 398), (509, 399), (509, 401), (509, 403), (508, 406), (508, 408), (507, 411), (506, 412), (505, 418), (505, 419), (504, 422), (503, 424), (503, 429), (502, 430), (501, 434), (501, 438), (497, 448), (496, 454), (493, 461), (492, 468), (486, 482), (486, 488), (484, 493), (483, 496), (481, 504), (480, 506), (480, 508), (479, 510), (478, 515), (477, 517), (477, 520), (476, 522), (474, 529), (473, 531), (472, 533), (472, 536), (471, 538), (470, 540), (470, 542), (467, 545), (464, 552), (461, 562), (458, 568), (457, 571), (453, 581), (452, 586), (449, 592), (448, 598), (446, 608), (444, 614), (443, 621), (443, 622), (443, 626)]",105.91412091521184,"[9, 4, 6, 1, 5, 8, 2, 7, 3]","(0, 0.25)",CHN005D,CHN,D,Chinese,Mon Aug 20 18:59:38 2018,Mouse
2,1,4,0,49,4,6,0,-1331,21,1310,138,0,500,200,8000,"[(512, 384), (512, 384), (512, 383), (512, 383), (512, 383), (512, 383), (512, 383), (512, 383), (512, 383), (512, 383), (512, 383), (512, 383), (512, 383), (512, 383), (512, 383), (512, 383), (512, 383), (512, 383), (512, 383), (512, 383), (512, 383), (512, 383), (512, 383), (512, 383), (512, 383), (512, 383), (512, 383), (512, 383), (512, 383), (512, 383), (512, 383), (512, 383), (512, 383), (512, 383), (512, 383), (512, 383), (512, 383), (512, 383), (512, 383), (512, 383), (512, 383), (512, 383), (512, 383), (512, 383), (512, 383), (512, 383), (512, 383), (512, 383), (512, 383), (512, 383), (512, 383), (512, 383), (512, 383), (512, 383), (512, 383), (512, 383), (512, 383), (512, 383), (512, 383), (512, 383), (512, 383), (512, 383), (512, 383), (512, 383), (512, 383), (512, 383), (512, 383), (512, 383), (512, 383), (512, 383), (511, 387), (510, 388), (509, 390), (507, 391), (507, 392), (507, 393), (506, 394), (505, 396), (505, 396), (505, 397), (503, 399), (503, 399), (503, 400), (503, 400), (501, 403), (499, 404), (498, 406), (496, 407), (496, 408), (495, 408), (495, 409), (494, 410), (493, 411), (493, 412), (493, 412), (493, 415), (490, 423), (489, 431), (488, 442), (488, 448), (488, 459), (488, 464), (488, 469), (488, 472), (487, 481), (487, 484), (487, 489), (485, 493), (485, 498), (485, 502), (485, 505), (485, 506), (485, 509), (485, 512), (485, 517), (485, 521), (485, 528), (485, 534), (485, 538), (484, 544), (482, 559), (482, 563), (480, 571), (479, 575), (479, 585), (479, 590), (479, 595), (479, 599), (479, 606), (479, 609), (479, 613), (479, 619), (479, 628), (479, 634)]",97.51957032518949,"[9, 4, 6, 1, 5, 8, 2, 7, 3]","(0, 0.25)",CHN005D,CHN,D,Chinese,Mon Aug 20 18:59:38 2018,Mouse
2,1,4,0,50,1,7,0,-1937,1677,260,139,0,500,200,8000,"[(512, 384), (512, 384), (512, 384), (512, 384), (512, 384), (512, 384), (512, 384), (512, 384), (512, 384), (512, 384), (512, 384), (512, 384), (512, 384), (512, 384), (512, 384), (512, 384), (512, 384), (512, 384), (512, 384), (512, 384), (512, 384), (512, 384), (512, 384), (512, 384), (512, 384), (512, 384), (512, 384), (512, 384), (512, 384), (512, 384), (512, 384), (512, 384), (512, 384), (512, 384), (512, 384), (512, 384), (512, 384), (512, 384), (512, 384), (512, 384), (512, 384), (512, 384), (512, 384), (512, 384), (512, 384), (512, 384), (512, 384), (512, 384), (512, 384), (512, 384), (512, 384), (512, 384), (512, 384), (512, 384), (512, 384), (512, 384), (512, 384), (512, 384), (512, 384), (512, 384), (512, 384), (512, 384), (512, 384), (512, 384), (512, 384), (512, 384), (512, 384), (512, 384), (512, 384), (512, 384), (512, 384), (512, 384), (512, 384), (512, 384), (512, 384), (512, 384), (512, 384), (512, 384), (512, 384), (512, 384), (512, 384), (512, 384), (512, 384), (512, 384), (512, 384), (512, 384), (512, 384), (512, 384), (512, 384), (512, 384), (512, 384), (512, 384), (512, 384), (512, 384), (512, 384), (512, 384), (512, 384), (512, 384), (512, 384), (512, 384), (512, 384), (512, 384), (512, 384), (512, 384), (512, 384), (512, 384), (512, 384), (512, 384), (512, 384), (512, 384), (512, 384), (512, 384), (512, 384), (512, 384), (512, 384), (512, 384), (512, 384), (512, 384), (512, 384), (512, 384), (512, 384), (512, 384), (512, 384), (512, 384), (512, 384), (512, 384), (512, 384), (512, 384), (512, 384), (512, 384), (512, 384), (512, 384), (512, 384), (512, 384), (512, 384), (512, 384), (512, 384), (512, 384), (512, 384), (512, 384), (512, 384), (512, 384), (512, 384), (512, 384), (512, 384), (512, 384), (512, 384), (512, 384), (512, 384), (512, 384), (512, 384), (512, 384), (512, 384), (512, 384), (512, 384), (512, 384), (512, 384), (512, 384), (512, 384), (512, 384), (512, 384), (512, 384), (512, 384), (512, 384), (512, 384), (512, 384), (512, 384), (512, 383), (514, 381), (516, 379), (523, 372), (528, 367), (533, 363), (541, 356), (552, 343), (558, 337), (565, 328), (570, 322), (577, 312), (582, 304), (587, 297), (592, 289), (601, 276), (604, 268), (608, 261), (614, 251), (623, 232), (626, 226), (630, 216), (631, 208), (639, 191), (641, 183), (644, 172), (646, 165)]",301.46130256479415,"[9, 4, 6, 1, 5, 8, 2, 7, 3]","(0, 0.25)",CHN005D,CHN,D,Chinese,Mon Aug 20 18:59:38 2018,Mouse
2,1,4,0,51,2,2,1,1852,212,1640,140,0,500,200,8000,"[(512, 384), (512, 384), (512, 384), (512, 384), (512, 384), (512, 384), (512, 384), (512, 384), (512, 384), (512, 384), (512, 384), (512, 384), (512, 384), (512, 384), (512, 384), (512, 384), (512, 384), (512, 384), (512, 384), (512, 384), (512, 384), (511, 384), (511, 385), (510, 385), (507, 386), (505, 386), (503, 386), (503, 386), (500, 386), (496, 386), (493, 386), (492, 386), (490, 386), (485, 385), (480, 385), (477, 384), (476, 384), (470, 384), (468, 384), (466, 384), (466, 384), (464, 384), (464, 384), (464, 384), (463, 384), (463, 384), (463, 384), (463, 384), (463, 384), (462, 384), (462, 384), (462, 384), (462, 384), (462, 384), (462, 384), (462, 384), (462, 384), (462, 384), (462, 384), (462, 384), (462, 384), (462, 384), (462, 384), (462, 384), (461, 384), (461, 384), (461, 384), (461, 384), (461, 384), (461, 384), (461, 384), (461, 384), (461, 384), (461, 384), (461, 384), (461, 384), (461, 384), (461, 384), (461, 384), (461, 384), (461, 384), (461, 384), (461, 384), (461, 384), (461, 384), (461, 384), (462, 384), (462, 384), (462, 384), (463, 384), (463, 384), (463, 384), (463, 384), (465, 384), (466, 383), (466, 383), (466, 383), (467, 382), (467, 382), (467, 382), (467, 382), (467, 382), (467, 382), (467, 382), (468, 382), (468, 382), (468, 382), (469, 382), (469, 382), (469, 382), (469, 382), (469, 382), (469, 381), (469, 381), (469, 381), (469, 381), (469, 381), (469, 381), (469, 381), (469, 381), (469, 381), (469, 381), (469, 381), (470, 381), (472, 381), (473, 378), (473, 378), (473, 377), (473, 376), (475, 373), (475, 371), (476, 370), (476, 367), (476, 362), (477, 359), (477, 355), (477, 349), (480, 335), (480, 327), (481, 318), (481, 310), (481, 294), (481, 287), (481, 280), (481, 274), (481, 266), (481, 262), (481, 257), (481, 253), (481, 246), (481, 243), (481, 239), (481, 237), (481, 231), (481, 227), (481, 225), (481, 222), (481, 218), (481, 215), (481, 212), (481, 208), (482, 201), (482, 198), (482, 194), (484, 191), (484, 182), (484, 179), (484, 175), (484, 171), (484, 166), (484, 164), (484, 163), (484, 161), (484, 157), (484, 156), (484, 153), (484, 152), (484, 149), (484, 147), (484, 145), (484, 145), (483, 142), (483, 140), (482, 138), (482, 138), (481, 135)]",262.9033058334246,"[9, 4, 6, 1, 5, 8, 2, 7, 3]","(0, 0.25)",CHN005D,CHN,D,Chinese,Mon Aug 20 18:59:38 2018,Mouse
2,1,4,0,52,5,9,0,-741,421,320,140,0,500,200,8000,"[(512, 384), (512, 384), (512, 384), (512, 384), (512, 384), (512, 384), (512, 384), (512, 384), (512, 384), (512, 384), (512, 384), (512, 384), (512, 384), (512, 384), (512, 384), (512, 384), (512, 384), (512, 384), (512, 384), (512, 384), (512, 384), (512, 384), (512, 384), (512, 384), (512, 384), (512, 384), (512, 384), (512, 384), (512, 384), (512, 384), (512, 384), (512, 384), (512, 384), (512, 384), (512, 384), (512, 384), (512, 384), (512, 384), (512, 384), (512, 384), (512, 384), (512, 384), (512, 385), (512, 387), (512, 389), (512, 389), (512, 390), (512, 393), (512, 396), (512, 397), (514, 400), (519, 407), (520, 409), (523, 412), (526, 417), (532, 422), (539, 426), (546, 429), (555, 434), (572, 439), (582, 442), (592, 446), (603, 449), (621, 456), (630, 457), (639, 460), (648, 462), (668, 467), (677, 470), (688, 471), (698, 472), (720, 476), (730, 477), (740, 481), (748, 483)]",22.757636319453336,"[9, 4, 6, 1, 5, 8, 2, 7, 3]","(0, 0.25)",CHN005D,CHN,D,Chinese,Mon Aug 20 18:59:38 2018,Mouse
2,1,4,0,53,1,6,0,-741,401,340,141,0,500,200,8000,"[(512, 384), (512, 384), (512, 384), (512, 384), (512, 384), (512, 384), (512, 384), (512, 384), (512, 384), (512, 384), (512, 384), (512, 384), (512, 384), (512, 384), (512, 384), (512, 384), (512, 384), (512, 384), (512, 384), (512, 384), (512, 384), (512, 384), (512, 384), (512, 384), (512, 384), (512, 384), (512, 384), (512, 384), (512, 384), (512, 384), (512, 384), (512, 384), (512, 384), (512, 384), (512, 384), (512, 384), (512, 384), (512, 384), (512, 384), (512, 384), (508, 384), (502, 387), (495, 388), (494, 389), (494, 389), (494, 389), (494, 389), (494, 389), (494, 389), (494, 389), (494, 389), (494, 389), (493, 389), (492, 390), (488, 393), (487, 395), (487, 398), (485, 403), (481, 411), (480, 417), (478, 422), (477, 427), (472, 450), (468, 467), (467, 478), (465, 494), (461, 524), (460, 537), (459, 549), (459, 561), (459, 586), (459, 598), (459, 610), (459, 620), (459, 640)]",101.69676981857978,"[9, 4, 6, 1, 5, 8, 2, 7, 3]","(0, 0.25)",CHN005D,CHN,D,Chinese,Mon Aug 20 18:59:38 2018,Mouse
2,1,4,0,54,5,3,0,-1112,82,1030,142,0,500,200,8000,"[(512, 384), (512, 384), (512, 384), (512, 384), (512, 384), (512, 384), (512, 384), (512, 384), (511, 381), (510, 379), (509, 376), (507, 375), (504, 372), (503, 372), (502, 369), (500, 369), (498, 367), (495, 366), (495, 365), (493, 364), (490, 362), (489, 361), (487, 361), (485, 358), (481, 355), (480, 354), (477, 354), (475, 353), (471, 351), (469, 349), (467, 348), (464, 346), (457, 343), (454, 342), (452, 341), (451, 339), (449, 338), (449, 338), (449, 338), (449, 338), (449, 338), (449, 338), (449, 338), (449, 338), (449, 338), (449, 338), (449, 338), (449, 338), (449, 338), (449, 338), (449, 338), (449, 338), (449, 338), (449, 338), (448, 338), (448, 338), (448, 337), (448, 336), (448, 336), (448, 334), (448, 333), (448, 332), (448, 332), (448, 331), (449, 330), (449, 330), (449, 330), (450, 329), (452, 327), (453, 326), (453, 326), (454, 326), (455, 326), (455, 326), (455, 326), (456, 326), (459, 326), (460, 326), (463, 326), (466, 327), (478, 331), (485, 332), (491, 334), (500, 336), (517, 340), (522, 341), (529, 342), (535, 343), (544, 343), (547, 343), (548, 343), (551, 343), (561, 343), (569, 343), (581, 343), (592, 343), (618, 343), (630, 343), (641, 343), (652, 343), (668, 343), (674, 343), (681, 343), (685, 343), (697, 341), (702, 340), (708, 337), (718, 334), (734, 328), (742, 324), (749, 321), (758, 316)]",344.5479893588703,"[9, 4, 6, 1, 5, 8, 2, 7, 3]","(0, 0.25)",CHN005D,CHN,D,Chinese,Mon Aug 20 18:59:38 2018,Mouse
2,1,4,0,55,4,4,1,1193,132,1061,143,0,500,200,8000,"[(512, 384), (512, 384), (512, 384), (512, 384), (512, 384), (512, 384), (512, 384), (512, 384), (512, 384), (512, 384), (512, 384), (512, 384), (512, 384), (511, 384), (509, 385), (507, 385), (507, 385), (503, 387), (503, 387), (503, 387), (503, 387), (502, 388), (502, 388), (502, 388), (502, 388), (502, 389), (501, 389), (500, 390), (500, 391), (497, 399), (494, 403), (492, 408), (492, 411), (492, 421), (492, 425), (492, 429), (492, 433), (492, 441), (492, 443), (494, 446), (495, 449), (497, 453), (497, 454), (499, 457), (500, 457), (502, 462), (504, 463), (505, 465), (508, 468), (511, 471), (511, 471), (511, 471), (513, 472), (516, 475), (519, 476), (521, 479), (522, 480), (531, 489), (533, 492), (538, 497), (540, 501), (546, 506), (548, 507), (551, 510), (552, 511), (557, 515), (562, 517), (565, 521), (570, 525), (578, 532), (583, 536), (588, 541), (592, 547), (601, 558), (605, 567), (607, 570), (611, 575), (615, 580), (616, 582), (616, 583), (616, 584), (619, 588), (619, 591), (619, 593), (619, 596), (620, 603), (621, 604), (621, 604), (621, 606), (622, 607), (622, 607), (622, 607), (622, 607), (622, 607), (622, 607), (622, 607), (622, 607), (622, 607), (622, 607), (622, 607), (622, 607), (622, 607), (622, 607), (622, 607), (622, 607), (622, 607), (622, 607), (622, 607), (622, 607), (622, 607), (622, 607), (622, 607), (622, 607), (622, 607), (622, 607), (622, 607), (622, 607), (622, 608), (622, 608), (623, 610)]",63.84201678371174,"[9, 4, 6, 1, 5, 8, 2, 7, 3]","(0, 0.25)",CHN005D,CHN,D,Chinese,Mon Aug 20 18:59:38 2018,Mouse
2,1,4,0,56,9,9,1,512,192,320,143,0,500,200,8000,"[(512, 384), (512, 384), (512, 384), (512, 384), (512, 384), (512, 384), (512, 384), (512, 384), (512, 384), (512, 384), (512, 384), (512, 384), (512, 384), (512, 384), (512, 384), (512, 384), (512, 384), (512, 384), (512, 384), (513, 382), (513, 382), (515, 382), (522, 384), (528, 387), (533, 388), (539, 391), (556, 399), (565, 400), (572, 403), (579, 404), (591, 408), (597, 411), (600, 413), (606, 415), (615, 419), (621, 421), (625, 423), (631, 426), (639, 430), (641, 432), (647, 436), (651, 437), (663, 445), (669, 448), (677, 452), (687, 456), (702, 463), (712, 467), (720, 469), (728, 473), (740, 478), (746, 481)]",22.51546947380661,"[9, 4, 6, 1, 5, 8, 2, 7, 3]","(0, 0.25)",CHN005D,CHN,D,Chinese,Mon Aug 20 18:59:38 2018,Mouse
2,1,4,0,57,2,2,1,1262,62,1200,142,0,500,200,8000,"[(512, 384), (512, 384), (512, 384), (512, 384), (512, 384), (512, 384), (507, 385), (506, 386), (502, 386), (500, 388), (495, 388), (495, 388), (494, 388), (493, 388), (492, 388), (492, 388), (492, 388), (492, 388), (492, 388), (492, 388), (491, 388), (489, 388), (489, 388), (486, 388), (484, 388), (482, 388), (474, 388), (471, 387), (468, 387), (465, 387), (462, 387), (458, 387), (457, 387), (456, 387), (455, 387), (455, 387), (455, 387), (455, 387), (455, 387), (455, 387), (455, 387), (455, 387), (455, 387), (455, 387), (455, 387), (455, 387), (455, 387), (455, 387), (455, 387), (455, 387), (455, 387), (455, 387), (455, 387), (455, 387), (455, 387), (455, 387), (455, 387), (455, 387), (455, 387), (454, 386), (454, 386), (454, 386), (454, 385), (455, 383), (456, 383), (458, 380), (463, 376), (469, 372), (472, 370), (475, 367), (478, 363), (481, 360), (482, 358), (483, 356), (486, 352), (488, 349), (489, 345), (492, 342), (495, 336), (496, 332), (498, 327), (501, 323), (502, 318), (502, 315), (502, 311), (502, 308), (502, 302), (502, 299), (502, 296), (502, 292), (502, 286), (500, 282), (496, 279), (495, 276), (490, 270), (488, 266), (485, 261), (482, 259), (477, 253), (475, 249), (473, 247), (472, 246), (469, 241), (467, 238), (465, 235), (465, 232), (463, 228), (463, 225), (463, 221), (462, 218), (462, 210), (462, 206), (462, 202), (462, 198), (462, 192), (462, 188), (463, 184), (463, 180), (464, 171), (465, 167), (466, 162), (466, 159), (468, 151), (469, 146), (470, 142), (472, 138), (473, 133)]",261.1680913490307,"[9, 4, 6, 1, 5, 8, 2, 7, 3]","(0, 0.25)",CHN005D,CHN,D,Chinese,Mon Aug 20 18:59:38 2018,Mouse
2,1,4,0,58,2,2,1,884,435,449,141,0,500,200,8000,"[(512, 384), (512, 384), (512, 384), (512, 384), (512, 384), (512, 384), (512, 384), (512, 384), (512, 384), (512, 384), (512, 384), (512, 384), (512, 384), (512, 384), (512, 384), (512, 384), (512, 384), (512, 384), (512, 384), (512, 384), (512, 384), (512, 384), (512, 384), (512, 384), (512, 384), (512, 384), (512, 384), (512, 384), (512, 384), (512, 384), (512, 384), (512, 384), (512, 384), (512, 384), (512, 384), (512, 384), (512, 384), (512, 384), (512, 384), (512, 384), (512, 384), (512, 384), (512, 384), (507, 382), (501, 375), (496, 368), (491, 363), (479, 346), (475, 338), (470, 331), (467, 322), (464, 307), (461, 298), (461, 290), (459, 280), (459, 264), (455, 255), (455, 249), (455, 240), (455, 225), (455, 218), (455, 211), (455, 205), (456, 194), (458, 189), (458, 185), (460, 179), (460, 175), (461, 170), (462, 165), (462, 163), (462, 161), (463, 156), (464, 152), (464, 152), (464, 150), (465, 148), (465, 147), (465, 147), (465, 147), (465, 146), (465, 146), (465, 144), (465, 144), (465, 143), (465, 143), (465, 141), (464, 140), (464, 137)]",259.0026680536784,"[9, 4, 6, 1, 5, 8, 2, 7, 3]","(0, 0.25)",CHN005D,CHN,D,Chinese,Mon Aug 20 18:59:38 2018,Mouse
2,1,4,0,59,5,5,1,588,38,550,140,0,500,200,8000,"[(512, 384), (512, 384), (512, 384), (511, 384), (510, 384), (510, 384), (510, 384), (509, 384), (508, 385), (508, 385), (508, 385), (508, 385), (508, 385), (508, 385), (508, 385), (507, 386), (507, 386), (507, 386), (507, 386), (507, 386), (507, 386), (507, 386), (507, 386), (507, 386), (506, 386), (506, 386), (506, 386), (505, 386), (504, 386), (504, 386), (504, 386), (504, 386), (504, 386), (504, 386), (504, 386), (503, 386), (502, 387), (501, 387), (501, 387), (501, 387), (500, 387), (499, 387), (498, 388), (495, 388), (493, 388), (492, 388), (488, 388), (475, 388), (464, 388), (456, 388), (441, 388), (396, 382), (353, 377), (335, 374), (308, 369), (281, 368), (270, 368), (263, 368), (259, 368)]",183.61862948014434,"[9, 4, 6, 1, 5, 8, 2, 7, 3]","(0, 0.25)",CHN005D,CHN,D,Chinese,Mon Aug 20 18:59:38 2018,Mouse
2,1,4,0,60,3,3,1,1432,152,1280,139,0,500,200,8000,"[(512, 384), (512, 384), (512, 384), (512, 384), (512, 384), (512, 384), (512, 384), (512, 384), (512, 384), (512, 384), (512, 384), (512, 384), (512, 384), (512, 384), (512, 384), (513, 384), (513, 384), (513, 387), (513, 389), (513, 390), (513, 391), (513, 392), (511, 395), (509, 396), (508, 398), (504, 401), (503, 403), (500, 405), (499, 406), (497, 407), (497, 407), (497, 407), (497, 407), (497, 407), (497, 407), (497, 407), (497, 407), (497, 407), (497, 407), (497, 407), (497, 407), (497, 407), (497, 407), (497, 407), (497, 407), (497, 407), (497, 407), (497, 407), (497, 407), (497, 407), (497, 407), (497, 407), (497, 407), (497, 407), (497, 407), (497, 407), (497, 407), (497, 407), (497, 407), (497, 407), (497, 407), (497, 407), (497, 407), (497, 407), (497, 407), (497, 407), (497, 407), (497, 407), (497, 407), (497, 407), (497, 407), (497, 407), (497, 407), (497, 407), (497, 407), (497, 407), (496, 407), (495, 406), (495, 405), (495, 405), (495, 404), (494, 403), (494, 402), (494, 402), (494, 402), (494, 402), (494, 401), (494, 401), (494, 401), (494, 401), (494, 400), (494, 399), (494, 399), (494, 398), (494, 397), (494, 397), (494, 396), (494, 396), (494, 396), (494, 396), (494, 396), (494, 396), (494, 396), (494, 396), (494, 396), (494, 396), (494, 396), (494, 396), (494, 396), (494, 396), (494, 396), (494, 396), (494, 396), (494, 396), (494, 396), (494, 396), (494, 396), (494, 396), (494, 396), (494, 396), (494, 396), (494, 396), (494, 396), (494, 394), (497, 390), (513, 382), (523, 377), (538, 371), (550, 366), (580, 353), (596, 351), (608, 345), (630, 340), (650, 332), (659, 328), (667, 323), (676, 320), (693, 312), (703, 308), (709, 306), (717, 303), (734, 298), (742, 295), (752, 294)]",339.44395478041656,"[9, 4, 6, 1, 5, 8, 2, 7, 3]","(0, 0.25)",CHN005D,CHN,D,Chinese,Mon Aug 20 18:59:38 2018,Mouse
2,1,4,0,61,4,4,1,853,223,630,138,0,500,200,8000,"[(512, 384), (512, 384), (512, 384), (512, 384), (512, 384), (512, 384), (512, 384), (512, 384), (512, 384), (512, 384), (512, 384), (512, 384), (512, 384), (512, 384), (512, 384), (512, 384), (512, 384), (512, 384), (512, 384), (512, 384), (512, 384), (512, 384), (510, 386), (510, 386), (509, 387), (509, 387), (509, 387), (509, 387), (509, 387), (509, 387), (509, 387), (509, 387), (509, 387), (509, 387), (509, 387), (509, 387), (509, 387), (509, 387), (509, 387), (509, 387), (509, 387), (509, 387), (509, 387), (509, 387), (509, 387), (509, 388), (509, 389), (509, 390), (509, 390), (510, 391), (511, 393), (511, 394), (512, 397), (514, 398), (516, 406), (518, 414), (520, 423), (525, 431), (531, 447), (535, 455), (537, 459), (540, 465), (545, 474), (546, 477), (550, 482), (553, 484), (555, 489), (557, 491), (559, 493), (560, 495), (562, 497), (564, 498), (565, 500), (567, 502), (576, 510), (583, 517), (589, 526), (595, 534), (605, 549), (610, 556), (612, 561), (617, 567), (625, 581), (628, 588), (634, 597), (638, 606)]",60.42216131873867,"[9, 4, 6, 1, 5, 8, 2, 7, 3]","(0, 0.25)",CHN005D,CHN,D,Chinese,Mon Aug 20 18:59:38 2018,Mouse
2,1,4,0,62,7,9,0,-610,280,330,137,0,500,200,8000,"[(512, 384), (512, 384), (512, 384), (512, 384), (512, 384), (512, 384), (512, 384), (512, 384), (512, 384), (512, 384), (512, 384), (512, 384), (512, 384), (512, 384), (512, 384), (512, 384), (512, 384), (512, 384), (512, 384), (512, 384), (512, 384), (512, 384), (512, 384), (512, 384), (512, 384), (512, 384), (512, 384), (513, 384), (514, 384), (515, 385), (517, 386), (521, 389), (525, 391), (528, 394), (532, 394), (542, 398), (548, 399), (552, 401), (558, 403), (569, 407), (576, 410), (584, 413), (593, 418), (610, 427), (621, 433), (631, 439), (644, 443), (666, 453), (676, 457), (685, 459), (691, 461), (700, 463), (701, 465), (703, 466), (703, 466), (706, 468), (708, 470), (713, 473), (720, 475), (737, 483), (744, 485)]",23.52565160815107,"[9, 4, 6, 1, 5, 8, 2, 7, 3]","(0, 0.25)",CHN005D,CHN,D,Chinese,Mon Aug 20 18:59:38 2018,Mouse
2,1,4,0,63,4,4,1,515,105,410,138,0,500,200,8000,"[(512, 384), (512, 384), (512, 384), (512, 384), (512, 384), (512, 384), (512, 384), (512, 384), (512, 384), (512, 384), (512, 386), (512, 388), (512, 391), (512, 392), (513, 398), (513, 399), (513, 399), (515, 402), (518, 406), (520, 408), (522, 411), (526, 414), (535, 421), (540, 426), (543, 430), (546, 433), (554, 442), (557, 447), (559, 450), (562, 454), (567, 461), (568, 465), (572, 471), (575, 476), (581, 486), (583, 490), (585, 494), (586, 497), (590, 503), (591, 506), (594, 511), (596, 516), (601, 529), (603, 536), (605, 544), (608, 552), (611, 567), (614, 574), (614, 581), (615, 587), (616, 608), (617, 617)]",65.7415878984374,"[9, 4, 6, 1, 5, 8, 2, 7, 3]","(0, 0.25)",CHN005D,CHN,D,Chinese,Mon Aug 20 18:59:38 2018,Mouse
2,1,4,0,64,7,6,0,-631,361,270,138,0,500,200,8000,"[(512, 384), (512, 384), (512, 384), (512, 384), (512, 384), (512, 384), (512, 384), (512, 384), (512, 384), (512, 384), (512, 384), (512, 384), (512, 384), (512, 384), (512, 384), (512, 384), (512, 384), (512, 384), (512, 384), (512, 384), (512, 384), (512, 384), (512, 384), (512, 384), (512, 384), (512, 384), (512, 384), (512, 384), (512, 384), (512, 384), (512, 384), (512, 384), (512, 384), (512, 384), (512, 384), (512, 384), (506, 394), (498, 401), (492, 410), (489, 414), (482, 425), (479, 430), (478, 433), (477, 436), (477, 441), (477, 444), (477, 448), (477, 453), (477, 465), (477, 472), (478, 479), (480, 488), (485, 506), (489, 518), (492, 527), (494, 539), (498, 564), (498, 576), (498, 587), (498, 597), (498, 617), (497, 623), (495, 628), (494, 634)]",94.11818970398878,"[9, 4, 6, 1, 5, 8, 2, 7, 3]","(0, 0.25)",CHN005D,CHN,D,Chinese,Mon Aug 20 18:59:38 2018,Mouse
2,1,4,0,65,5,5,1,591,341,250,139,0,500,200,8000,"[(512, 384), (512, 384), (512, 384), (512, 384), (512, 384), (512, 384), (512, 384), (512, 384), (512, 384), (512, 384), (512, 384), (512, 384), (512, 384), (512, 384), (512, 384), (512, 384), (512, 384), (512, 384), (512, 384), (512, 384), (512, 384), (512, 384), (512, 384), (512, 384), (512, 384), (512, 384), (512, 384), (512, 384), (512, 384), (512, 384), (512, 384), (512, 384), (512, 384), (512, 384), (510, 382), (501, 379), (496, 378), (479, 373), (470, 371), (462, 368), (456, 368), (442, 366), (436, 365), (429, 365), (422, 363), (411, 363), (405, 363), (399, 363), (392, 363), (377, 363), (367, 363), (360, 363), (351, 363), (331, 363), (325, 363), (314, 363), (303, 365), (279, 368), (269, 369), (260, 370)]",183.17983011986425,"[9, 4, 6, 1, 5, 8, 2, 7, 3]","(0, 0.25)",CHN005D,CHN,D,Chinese,Mon Aug 20 18:59:38 2018,Mouse
2,1,4,0,66,8,8,1,542,302,240,139,0,500,200,8000,"[(512, 384), (512, 384), (512, 384), (512, 384), (512, 384), (512, 384), (512, 384), (512, 384), (512, 384), (512, 384), (512, 384), (512, 384), (512, 384), (512, 384), (512, 384), (512, 384), (512, 384), (512, 384), (512, 384), (512, 384), (512, 384), (512, 384), (512, 384), (512, 384), (512, 384), (512, 384), (512, 384), (512, 384), (512, 384), (512, 384), (509, 380), (497, 374), (487, 368), (472, 359), (453, 346), (443, 340), (436, 335), (430, 328), (420, 320), (415, 314), (410, 309), (405, 304), (392, 294), (386, 290), (381, 285), (378, 281), (369, 272), (365, 269), (360, 265), (354, 261), (343, 255), (334, 249), (327, 245), (320, 243), (305, 234)]",215.92850242282282,"[9, 4, 6, 1, 5, 8, 2, 7, 3]","(0, 0.25)",CHN005D,CHN,D,Chinese,Mon Aug 20 18:59:38 2018,Mouse
2,1,4,0,67,6,6,1,1082,632,450,138,0,500,200,8000,"[(512, 384), (512, 384), (512, 384), (512, 384), (512, 384), (512, 384), (512, 384), (512, 384), (512, 384), (512, 384), (512, 384), (512, 384), (512, 384), (512, 384), (512, 384), (512, 384), (512, 384), (512, 384), (512, 384), (512, 384), (512, 384), (512, 384), (512, 384), (512, 384), (512, 384), (512, 384), (512, 384), (512, 384), (512, 384), (512, 384), (512, 384), (512, 384), (512, 384), (512, 384), (512, 384), (512, 384), (512, 384), (512, 384), (512, 384), (512, 384), (512, 384), (512, 384), (512, 384), (512, 384), (512, 384), (512, 384), (512, 384), (512, 384), (512, 384), (512, 384), (512, 384), (512, 384), (512, 384), (512, 384), (512, 384), (512, 384), (512, 384), (512, 384), (512, 384), (512, 384), (512, 384), (512, 384), (512, 384), (512, 386), (512, 388), (512, 390), (512, 392), (512, 393), (512, 396), (512, 396), (512, 396), (512, 398), (512, 398), (512, 401), (512, 404), (508, 416), (507, 422), (504, 432), (504, 439), (503, 447), (502, 462), (502, 469), (502, 477), (502, 487), (502, 509), (502, 522), (502, 534), (502, 545), (502, 567), (502, 577), (498, 586), (498, 592), (497, 600), (495, 603), (494, 605), (493, 607), (493, 609), (493, 610), (492, 611), (492, 612), (490, 615), (488, 619), (487, 620), (487, 622), (487, 622), (487, 624), (486, 624), (483, 632), (479, 639)]",97.37376636133021,"[9, 4, 6, 1, 5, 8, 2, 7, 3]","(0, 0.25)",CHN005D,CHN,D,Chinese,Mon Aug 20 18:59:38 2018,Mouse
2,1,4,0,68,5,7,0,-2412,1502,910,137,0,500,200,8000,"[(512, 384), (512, 384), (512, 384), (512, 384), (512, 384), (512, 384), (512, 384), (512, 384), (512, 384), (512, 384), (512, 384), (512, 384), (512, 384), (512, 384), (512, 384), (512, 384), (512, 384), (512, 384), (512, 384), (512, 384), (512, 384), (512, 384), (512, 384), (512, 384), (512, 384), (512, 384), (512, 384), (512, 384), (512, 384), (512, 384), (512, 384), (512, 384), (512, 384), (512, 384), (512, 384), (512, 384), (512, 384), (512, 384), (512, 384), (512, 384), (512, 384), (512, 384), (512, 384), (512, 384), (512, 384), (512, 384), (512, 384), (512, 384), (512, 384), (512, 384), (512, 384), (512, 384), (512, 384), (512, 384), (512, 384), (512, 384), (512, 384), (512, 384), (512, 384), (512, 384), (512, 384), (512, 384), (512, 384), (512, 384), (512, 384), (512, 384), (512, 384), (512, 384), (512, 384), (512, 384), (512, 384), (512, 384), (512, 384), (512, 384), (512, 384), (512, 384), (512, 384), (512, 384), (512, 384), (512, 384), (512, 384), (512, 384), (512, 384), (512, 384), (512, 384), (512, 384), (512, 384), (512, 384), (512, 384), (512, 384), (512, 384), (512, 384), (512, 384), (512, 384), (512, 384), (512, 384), (512, 384), (512, 384), (512, 384), (512, 384), (512, 384), (512, 384), (512, 384), (512, 384), (512, 384), (512, 384), (512, 384), (512, 384), (512, 384), (512, 384), (512, 384), (512, 384), (512, 384), (512, 384), (512, 384), (512, 384), (512, 384), (512, 384), (512, 384), (512, 384), (512, 384), (512, 384), (512, 384), (512, 384), (512, 384), (512, 384), (512, 384), (512, 384), (512, 384), (512, 384), (512, 384), (512, 384), (512, 384), (512, 384), (512, 384), (512, 384), (512, 384), (512, 384), (512, 384), (512, 384), (512, 384), (512, 384), (512, 384), (512, 384), (512, 384), (512, 384), (512, 384), (512, 384), (512, 384), (512, 384), (512, 382), (512, 377), (514, 375), (516, 373), (517, 370), (522, 364), (523, 364), (524, 362), (524, 362), (526, 360), (527, 359), (527, 359), (528, 357), (530, 355), (533, 353), (533, 351), (536, 348), (539, 344), (540, 342), (542, 340), (543, 339), (545, 337), (545, 335), (547, 333), (547, 332), (548, 331), (548, 330), (548, 330), (548, 330), (548, 329), (548, 329), (548, 329), (548, 329), (548, 329), (548, 329), (548, 329), (548, 329), (548, 329), (548, 329), (548, 329), (548, 329), (548, 329), (548, 329), (548, 329), (548, 327), (554, 317), (557, 312), (559, 307), (561, 302), (566, 295), (568, 290), (569, 287), (570, 285), (573, 277), (574, 275), (575, 273), (576, 271), (579, 266), (579, 265), (581, 262), (583, 259), (585, 256), (586, 253), (586, 251), (587, 251), (590, 246), (591, 244), (593, 241), (594, 238), (597, 233), (598, 230), (599, 227), (600, 225), (602, 222), (602, 220), (602, 219), (604, 216), (604, 214), (605, 212), (605, 209), (606, 206), (609, 200), (609, 197), (610, 194), (613, 191), (616, 184), (617, 181), (619, 177), (620, 174), (623, 168), (626, 164), (627, 160)]",297.175640276794,"[9, 4, 6, 1, 5, 8, 2, 7, 3]","(0, 0.25)",CHN005D,CHN,D,Chinese,Mon Aug 20 18:59:38 2018,Mouse
2,1,4,0,69,9,9,1,642,12,630,138,0,500,200,8000,"[(512, 384), (511, 386), (511, 390), (510, 390), (510, 392), (510, 393), (510, 396), (510, 398), (510, 400), (510, 402), (510, 407), (510, 409), (512, 413), (513, 415), (515, 420), (516, 423), (517, 426), (518, 429), (520, 435), (522, 439), (522, 442), (524, 446), (527, 455), (529, 457), (530, 462), (532, 465), (538, 472), (540, 475), (542, 479), (544, 480), (547, 483), (551, 486), (553, 487), (556, 488), (563, 490), (566, 490), (570, 490), (575, 490), (586, 490), (592, 490), (596, 490), (603, 490), (613, 489), (619, 488), (621, 487), (627, 485), (634, 483), (638, 480), (643, 478), (648, 475), (657, 473), (660, 472), (665, 471), (669, 470), (681, 467), (689, 466), (695, 466), (700, 465), (714, 465), (720, 465), (726, 465), (732, 465), (742, 465), (746, 465), (749, 465)]",18.86899945506142,"[9, 4, 6, 1, 5, 8, 2, 7, 3]","(0, 0.25)",CHN005D,CHN,D,Chinese,Mon Aug 20 18:59:38 2018,Mouse
