NativeLangNumber,LanuageNumber,SessionNumber,Block,TrialNum,ConditionNumber,Response,Accuracy,RT,MovementOnsetTime,TimeInMotion,SignalContrast,SignalContrastNumber,StimDisplayTime,MaskTime,MaxResponseTime,MousePositionXY,MouseAngle,WheelOrder,NoiseMuSigma,ParticipantID,LanuageTested,SessionTested,NativeLanuage,Date,ResponseDevice
1,1,4,0,1,1,1,1,775,295,480,153,0,500,200,8000,"[(960, 540), (960, 540), (960, 540), (960, 540), (960, 540), (960, 540), (960, 540), (960, 540), (960, 540), (960, 540), (960, 540), (960, 540), (960, 540), (960, 540), (960, 540), (960, 540), (960, 540), (960, 540), (960, 540), (960, 540), (960, 540), (960, 540), (960, 540), (960, 540), (960, 540), (960, 540), (960, 540), (960, 540), (960, 540), (960, 542), (958, 545), (957, 547), (956, 550), (956, 557), (956, 563), (956, 571), (956, 577), (956, 588), (953, 596), (952, 602), (951, 613), (947, 635), (946, 646), (941, 658), (939, 669), (934, 688), (930, 697), (929, 705), (926, 714), (925, 734), (925, 747), (924, 760), (923, 774), (918, 800), (917, 812), (915, 823), (914, 834), (913, 858), (913, 869), (913, 878), (913, 884), (913, 903), (913, 910), (913, 914), (912, 917), (912, 924), (912, 928), (912, 931), (912, 933), (912, 935), (912, 935), (912, 936), (912, 936), (912, 936), (912, 936), (912, 936), (912, 936), (912, 938)]",96.87683073743679,"[3, 9, 1, 8, 7, 6, 4, 5, 2]","(0, 0.25)",CHN007D,CHN,D,English,Wed Aug 29 14:57:22 2018,Mouse
1,1,4,0,2,8,8,1,471,171,300,153,0,500,200,8000,"[(960, 540), (960, 540), (960, 540), (960, 540), (960, 540), (960, 540), (960, 540), (960, 540), (960, 540), (960, 540), (960, 540), (960, 540), (960, 540), (960, 540), (960, 540), (960, 540), (960, 540), (958, 541), (956, 543), (948, 552), (944, 557), (937, 564), (931, 572), (917, 587), (910, 595), (905, 600), (900, 606), (885, 625), (877, 634), (866, 648), (850, 664), (811, 700), (790, 717), (773, 732), (758, 744), (734, 762), (724, 770), (717, 775), (707, 782), (689, 794), (683, 797), (678, 800), (677, 801), (675, 803), (674, 806), (673, 807), (671, 811), (669, 815)]",136.6192374538742,"[3, 9, 1, 8, 7, 6, 4, 5, 2]","(0, 0.25)",CHN007D,CHN,D,English,Wed Aug 29 14:57:22 2018,Mouse
1,1,4,0,3,3,3,1,551,31,520,152,0,500,200,8000,"[(960, 540), (960, 540), (960, 540), (961, 540), (961, 540), (961, 540), (961, 540), (962, 540), (962, 540), (962, 540), (964, 540), (967, 541), (967, 541), (969, 543), (974, 545), (983, 552), (988, 557), (992, 561), (996, 566), (1000, 572), (1003, 575), (1003, 577), (1004, 580), (1011, 588), (1014, 593), (1019, 601), (1023, 605), (1033, 616), (1036, 618), (1040, 621), (1042, 622), (1046, 623), (1047, 624), (1048, 624), (1050, 624), (1054, 625), (1057, 625), (1061, 625), (1067, 625), (1077, 625), (1082, 625), (1089, 625), (1094, 624), (1102, 623), (1109, 623), (1118, 623), (1128, 623), (1154, 623), (1173, 623), (1194, 625), (1215, 628), (1257, 635), (1278, 638), (1299, 641), (1317, 646), (1355, 656)]",16.36597798600881,"[3, 9, 1, 8, 7, 6, 4, 5, 2]","(0, 0.25)",CHN007D,CHN,D,English,Wed Aug 29 14:57:22 2018,Mouse
1,1,4,0,4,9,9,1,950,170,780,151,0,500,200,8000,"[(960, 540), (960, 540), (960, 540), (960, 540), (960, 540), (960, 540), (960, 540), (960, 540), (960, 540), (960, 540), (960, 540), (960, 540), (960, 540), (960, 540), (960, 540), (960, 540), (958, 540), (956, 540), (953, 540), (952, 540), (950, 540), (949, 540), (949, 540), (949, 540), (949, 540), (949, 540), (949, 540), (949, 540), (949, 540), (948, 540), (946, 540), (946, 540), (945, 540), (943, 540), (938, 541), (935, 541), (932, 541), (930, 541), (927, 541), (925, 541), (925, 541), (925, 541), (925, 541), (925, 541), (925, 541), (925, 541), (925, 541), (925, 541), (925, 541), (925, 541), (925, 541), (925, 541), (924, 541), (924, 541), (924, 542), (924, 543), (924, 543), (924, 543), (924, 545), (924, 546), (924, 547), (924, 548), (924, 548), (924, 549), (924, 549), (924, 549), (924, 549), (924, 549), (924, 549), (924, 549), (924, 550), (924, 551), (924, 552), (925, 552), (925, 555), (926, 556), (926, 556), (927, 557), (929, 559), (930, 561), (934, 564), (939, 572), (960, 595), (971, 614), (990, 637), (1005, 664), (1034, 711), (1047, 735), (1060, 759), (1070, 778), (1091, 814), (1103, 833), (1122, 861), (1144, 892), (1200, 958)]",60.137165643724906,"[3, 9, 1, 8, 7, 6, 4, 5, 2]","(0, 0.25)",CHN007D,CHN,D,English,Wed Aug 29 14:57:22 2018,Mouse
1,1,4,0,5,6,6,1,381,111,270,150,0,500,200,8000,"[(960, 540), (960, 540), (960, 540), (960, 540), (960, 540), (960, 540), (960, 540), (960, 540), (960, 540), (960, 540), (960, 540), (958, 538), (955, 535), (953, 534), (953, 534), (950, 531), (949, 530), (945, 528), (943, 527), (935, 521), (931, 517), (925, 512), (919, 507), (904, 496), (892, 487), (878, 478), (860, 463), (813, 423), (794, 409), (774, 394), (753, 377), (718, 351), (706, 341), (691, 329), (681, 318), (667, 307), (660, 298), (654, 290), (646, 281)]",219.51720219272875,"[3, 9, 1, 8, 7, 6, 4, 5, 2]","(0, 0.25)",CHN007D,CHN,D,English,Wed Aug 29 14:57:22 2018,Mouse
1,1,4,0,6,3,3,1,440,90,350,149,0,500,200,8000,"[(960, 540), (960, 540), (960, 540), (960, 540), (960, 540), (960, 540), (960, 540), (960, 540), (961, 540), (962, 540), (962, 540), (963, 540), (965, 540), (965, 540), (966, 540), (966, 540), (968, 540), (969, 540), (972, 540), (977, 540), (979, 540), (982, 540), (984, 540), (987, 540), (989, 541), (991, 541), (993, 541), (998, 544), (1003, 545), (1009, 547), (1016, 549), (1034, 554), (1045, 556), (1062, 561), (1082, 569), (1135, 583), (1171, 594), (1204, 602), (1234, 611), (1288, 627), (1307, 633), (1321, 636), (1332, 639), (1352, 645)]",14.995079129175986,"[3, 9, 1, 8, 7, 6, 4, 5, 2]","(0, 0.25)",CHN007D,CHN,D,English,Wed Aug 29 14:57:22 2018,Mouse
1,1,4,0,7,4,4,1,432,12,420,148,0,500,200,8000,"[(960, 540), (960, 539), (959, 538), (958, 537), (958, 535), (958, 534), (957, 531), (954, 523), (953, 516), (950, 506), (948, 495), (941, 468), (938, 460), (936, 446), (933, 434), (930, 403), (926, 384), (924, 370), (923, 353), (919, 323), (917, 308), (915, 294), (914, 280), (914, 253), (914, 242), (914, 233), (914, 225), (913, 221), (912, 217), (912, 211), (910, 205), (907, 190), (905, 184), (904, 179), (902, 172), (899, 162), (899, 160), (899, 158), (899, 157), (898, 154), (896, 152), (896, 150), (896, 148), (893, 141)]",260.4678333168026,"[3, 9, 1, 8, 7, 6, 4, 5, 2]","(0, 0.25)",CHN007D,CHN,D,English,Wed Aug 29 14:57:22 2018,Mouse
1,1,4,0,8,7,7,1,370,20,350,147,0,500,200,8000,"[(960, 540), (959, 539), (954, 539), (951, 539), (947, 539), (942, 539), (929, 539), (922, 539), (917, 539), (910, 539), (901, 539), (897, 539), (894, 539), (892, 539), (887, 539), (885, 539), (882, 539), (879, 539), (871, 539), (866, 539), (859, 540), (852, 540), (833, 544), (822, 544), (810, 545), (795, 545), (763, 545), (746, 545), (726, 545), (706, 545), (675, 545), (658, 545), (638, 547), (618, 547), (579, 547), (564, 547), (550, 547)]",179.02187440575358,"[3, 9, 1, 8, 7, 6, 4, 5, 2]","(0, 0.25)",CHN007D,CHN,D,English,Wed Aug 29 14:57:22 2018,Mouse
1,1,4,0,9,2,2,1,431,11,420,146,0,500,200,8000,"[(960, 540), (961, 540), (962, 540), (962, 540), (964, 540), (968, 539), (973, 538), (974, 538), (975, 538), (977, 538), (979, 538), (980, 538), (982, 538), (986, 538), (987, 538), (989, 538), (990, 538), (992, 538), (994, 537), (997, 536), (998, 536), (1002, 536), (1004, 536), (1007, 536), (1011, 536), (1021, 536), (1026, 536), (1030, 536), (1036, 536), (1050, 536), (1059, 536), (1069, 536), (1076, 536), (1098, 532), (1116, 526), (1136, 519), (1159, 510), (1210, 486), (1234, 475), (1255, 464), (1271, 454), (1306, 435), (1320, 426), (1342, 414)]",341.7452259904462,"[3, 9, 1, 8, 7, 6, 4, 5, 2]","(0, 0.25)",CHN007D,CHN,D,English,Wed Aug 29 14:57:22 2018,Mouse
1,1,4,0,10,4,4,1,178,18,160,145,0,500,200,8000,"[(959, 540), (959, 538), (958, 535), (957, 530), (954, 520), (953, 510), (953, 495), (953, 479), (953, 434), (955, 416), (957, 387), (957, 365), (957, 303), (957, 270), (957, 237), (957, 200), (957, 147), (957, 122)]",269.58879333173263,"[3, 9, 1, 8, 7, 6, 4, 5, 2]","(0, 0.25)",CHN007D,CHN,D,English,Wed Aug 29 14:57:22 2018,Mouse
1,1,4,0,11,9,9,1,560,130,430,144,0,500,200,8000,"[(960, 540), (960, 540), (960, 540), (960, 540), (960, 540), (960, 540), (960, 540), (960, 540), (960, 540), (960, 540), (960, 540), (960, 540), (960, 541), (960, 542), (961, 544), (962, 545), (962, 545), (966, 547), (967, 547), (968, 548), (969, 548), (969, 549), (970, 549), (970, 550), (970, 550), (972, 551), (973, 551), (973, 552), (974, 552), (976, 554), (978, 555), (980, 557), (984, 560), (991, 567), (994, 571), (999, 576), (1003, 579), (1009, 589), (1013, 593), (1017, 600), (1023, 607), (1036, 628), (1042, 641), (1053, 658), (1063, 677), (1085, 717), (1097, 737), (1104, 750), (1111, 763), (1130, 793), (1138, 811), (1144, 824), (1150, 839), (1162, 866), (1166, 876), (1169, 882)]",58.57043438516149,"[3, 9, 1, 8, 7, 6, 4, 5, 2]","(0, 0.25)",CHN007D,CHN,D,English,Wed Aug 29 14:57:22 2018,Mouse
1,1,4,0,12,1,1,1,731,351,380,143,0,500,200,8000,"[(960, 540), (960, 540), (960, 540), (960, 540), (960, 540), (960, 540), (960, 540), (960, 540), (960, 540), (960, 540), (960, 540), (960, 540), (960, 540), (960, 540), (960, 540), (960, 540), (960, 540), (960, 540), (960, 540), (960, 540), (960, 540), (960, 540), (960, 540), (960, 540), (960, 540), (960, 540), (960, 540), (960, 540), (960, 540), (960, 540), (960, 540), (960, 540), (960, 540), (960, 540), (960, 540), (960, 542), (961, 543), (967, 545), (968, 545), (969, 545), (972, 546), (972, 547), (972, 547), (972, 547), (972, 547), (973, 547), (973, 547), (973, 547), (973, 547), (973, 547), (974, 548), (974, 548), (974, 550), (974, 561), (974, 573), (974, 589), (974, 606), (974, 648), (972, 667), (965, 690), (961, 703), (956, 733), (954, 746), (954, 765), (951, 789), (946, 828), (943, 849), (941, 865), (938, 880), (933, 909), (930, 920), (928, 930), (925, 938), (921, 954)]",95.38154705213194,"[3, 9, 1, 8, 7, 6, 4, 5, 2]","(0, 0.25)",CHN007D,CHN,D,English,Wed Aug 29 14:57:22 2018,Mouse
1,1,4,0,13,6,6,1,470,60,410,142,0,500,200,8000,"[(960, 540), (960, 540), (960, 540), (960, 540), (960, 540), (961, 540), (961, 540), (961, 539), (961, 538), (961, 536), (958, 533), (955, 529), (954, 528), (952, 526), (948, 520), (947, 518), (946, 517), (942, 512), (937, 503), (931, 494), (923, 485), (917, 480), (903, 466), (894, 457), (885, 449), (878, 443), (861, 428), (852, 419), (839, 406), (829, 396), (805, 375), (794, 367), (786, 361), (774, 354), (757, 344), (749, 340), (740, 333), (733, 327), (718, 311), (712, 302), (705, 295), (698, 287), (687, 274), (683, 268), (679, 265), (678, 261), (673, 255)]",224.79966592299215,"[3, 9, 1, 8, 7, 6, 4, 5, 2]","(0, 0.25)",CHN007D,CHN,D,English,Wed Aug 29 14:57:22 2018,Mouse
1,1,4,0,14,8,8,1,352,12,340,141,0,500,200,8000,"[(960, 540), (955, 544), (953, 546), (950, 552), (948, 553), (947, 556), (943, 562), (927, 585), (916, 599), (901, 619), (886, 637), (859, 670), (852, 680), (844, 690), (839, 699), (835, 706), (833, 709), (833, 712), (832, 715), (832, 720), (832, 723), (832, 726), (832, 729), (830, 736), (830, 739), (830, 742), (829, 748), (823, 758), (819, 763), (812, 772), (803, 781), (774, 803), (757, 815), (735, 829), (708, 844), (666, 863)]",132.30898595497092,"[3, 9, 1, 8, 7, 6, 4, 5, 2]","(0, 0.25)",CHN007D,CHN,D,English,Wed Aug 29 14:57:22 2018,Mouse
1,1,4,0,15,9,9,1,1461,181,1280,140,0,500,200,8000,"[(960, 540), (960, 540), (960, 540), (960, 540), (960, 540), (960, 540), (960, 540), (960, 540), (960, 540), (960, 540), (960, 540), (960, 540), (960, 540), (960, 540), (960, 540), (960, 540), (960, 540), (960, 540), (961, 540), (961, 540), (962, 540), (962, 539), (962, 539), (962, 536), (961, 534), (960, 532), (958, 530), (954, 526), (952, 524), (950, 523), (947, 519), (941, 515), (940, 514), (938, 512), (935, 511), (932, 508), (931, 508), (930, 508), (930, 507), (926, 505), (926, 505), (926, 504), (925, 504), (923, 504), (923, 504), (923, 504), (923, 504), (923, 504), (923, 504), (923, 504), (923, 504), (923, 504), (923, 504), (923, 504), (923, 504), (924, 505), (925, 505), (926, 507), (928, 508), (932, 514), (937, 520), (943, 526), (957, 536), (994, 576), (1017, 602), (1033, 622), (1044, 639), (1057, 658), (1062, 665), (1063, 670), (1066, 675), (1071, 685), (1073, 691), (1076, 697), (1076, 700), (1076, 704), (1076, 705), (1076, 706), (1076, 706), (1076, 707), (1076, 707), (1076, 707), (1076, 708), (1076, 708), (1076, 709), (1076, 710), (1076, 712), (1081, 722), (1083, 731), (1089, 741), (1092, 749), (1099, 761), (1105, 769), (1109, 774), (1114, 780), (1125, 796), (1130, 807), (1135, 817), (1138, 823), (1142, 831), (1143, 832), (1143, 834), (1144, 837), (1145, 846), (1145, 848), (1145, 849), (1145, 851), (1145, 853), (1145, 853), (1145, 854), (1145, 854), (1145, 856), (1145, 856), (1145, 857), (1145, 857), (1145, 859), (1145, 860), (1145, 860), (1145, 863), (1148, 871), (1150, 873), (1150, 874), (1151, 876), (1153, 879), (1155, 880), (1155, 881), (1155, 881), (1156, 882), (1156, 882), (1156, 883), (1156, 883), (1156, 883), (1156, 884), (1156, 884), (1157, 885), (1157, 885), (1157, 885), (1157, 885), (1157, 885), (1157, 885), (1157, 885), (1157, 885), (1157, 885), (1158, 885), (1158, 885), (1158, 887), (1159, 889)]",60.30818671460055,"[3, 9, 1, 8, 7, 6, 4, 5, 2]","(0, 0.25)",CHN007D,CHN,D,English,Wed Aug 29 14:57:22 2018,Mouse
1,1,4,0,16,7,7,1,559,139,420,139,0,500,200,8000,"[(960, 540), (960, 540), (960, 540), (960, 540), (960, 540), (960, 540), (960, 540), (960, 540), (960, 540), (960, 540), (960, 540), (960, 540), (960, 540), (960, 539), (960, 539), (960, 539), (960, 539), (960, 539), (960, 539), (959, 539), (959, 539), (959, 539), (959, 539), (959, 539), (958, 539), (958, 539), (958, 539), (956, 539), (955, 539), (952, 539), (949, 539), (934, 539), (926, 539), (915, 539), (905, 539), (893, 539), (886, 539), (876, 539), (867, 539), (835, 539), (807, 539), (782, 539), (756, 539), (703, 539), (687, 539), (670, 539), (657, 539), (636, 539), (626, 539), (617, 539), (608, 538), (590, 534), (582, 534), (572, 534), (564, 534), (549, 534)]",180.8363753254224,"[3, 9, 1, 8, 7, 6, 4, 5, 2]","(0, 0.25)",CHN007D,CHN,D,English,Wed Aug 29 14:57:22 2018,Mouse
1,1,4,0,17,2,2,1,480,30,450,138,0,500,200,8000,"[(961, 540), (961, 540), (962, 540), (964, 540), (965, 540), (968, 540), (973, 540), (976, 540), (980, 540), (984, 540), (993, 540), (995, 540), (998, 540), (1001, 540), (1008, 540), (1013, 540), (1018, 540), (1023, 540), (1036, 540), (1040, 540), (1045, 540), (1051, 540), (1063, 540), (1069, 540), (1074, 540), (1079, 540), (1090, 540), (1096, 537), (1106, 533), (1117, 527), (1137, 516), (1146, 512), (1155, 508), (1163, 506), (1175, 500), (1181, 498), (1190, 494), (1200, 489), (1223, 480), (1233, 475), (1246, 466), (1257, 459), (1279, 448), (1290, 442), (1299, 438), (1308, 435), (1333, 422), (1344, 417)]",342.2390880750625,"[3, 9, 1, 8, 7, 6, 4, 5, 2]","(0, 0.25)",CHN007D,CHN,D,English,Wed Aug 29 14:57:22 2018,Mouse
1,1,4,0,18,8,8,1,790,140,650,137,0,500,200,8000,"[(960, 540), (960, 540), (960, 540), (960, 540), (960, 540), (960, 540), (960, 540), (960, 540), (960, 540), (960, 540), (960, 540), (960, 540), (960, 540), (957, 541), (956, 543), (954, 544), (953, 545), (941, 551), (932, 556), (927, 560), (921, 563), (915, 567), (909, 569), (901, 574), (892, 580), (875, 590), (867, 595), (860, 600), (851, 606), (838, 613), (830, 617), (821, 623), (813, 627), (790, 636), (779, 642), (767, 648), (756, 654), (731, 668), (715, 680), (704, 686), (694, 693), (674, 708), (664, 713), (656, 719), (647, 726), (635, 735), (631, 738), (629, 740), (626, 742), (626, 742), (626, 742), (626, 742), (626, 742), (626, 742), (626, 742), (626, 742), (626, 742), (626, 742), (626, 743), (627, 743), (630, 743), (652, 734), (662, 730), (674, 724), (684, 719), (708, 711), (718, 707), (727, 703), (737, 699), (745, 696), (746, 695), (746, 695), (746, 695), (744, 696), (734, 701), (722, 711), (698, 724), (639, 765), (611, 784)]",145.04104777363338,"[3, 9, 1, 8, 7, 6, 4, 5, 2]","(0, 0.25)",CHN007D,CHN,D,English,Wed Aug 29 14:57:22 2018,Mouse
1,1,4,0,19,6,6,1,341,11,330,136,0,500,200,8000,"[(960, 540), (959, 539), (955, 533), (953, 531), (953, 531), (950, 529), (944, 524), (939, 523), (933, 518), (925, 514), (910, 506), (900, 500), (891, 494), (882, 490), (873, 484), (869, 482), (865, 479), (863, 477), (858, 472), (853, 468), (847, 464), (838, 457), (813, 439), (798, 431), (785, 422), (774, 414), (758, 402), (753, 398), (746, 391), (740, 384), (714, 354), (701, 341), (683, 326), (669, 314), (634, 288)]",217.7042432213908,"[3, 9, 1, 8, 7, 6, 4, 5, 2]","(0, 0.25)",CHN007D,CHN,D,English,Wed Aug 29 14:57:22 2018,Mouse
1,1,4,0,20,8,8,1,501,81,420,135,0,500,200,8000,"[(960, 540), (960, 540), (960, 540), (960, 540), (960, 540), (960, 540), (960, 540), (960, 540), (959, 540), (955, 539), (955, 538), (953, 537), (952, 537), (952, 537), (952, 537), (951, 535), (950, 535), (949, 535), (948, 535), (941, 536), (936, 540), (932, 544), (929, 546), (921, 554), (917, 559), (914, 563), (909, 568), (904, 572), (900, 576), (899, 577), (897, 579), (896, 581), (896, 582), (895, 583), (894, 584), (892, 589), (888, 593), (886, 598), (884, 601), (877, 611), (871, 615), (866, 620), (862, 624), (848, 636), (838, 642), (822, 654), (797, 671), (727, 720), (688, 749), (641, 780), (604, 807)]",143.13010235415598,"[3, 9, 1, 8, 7, 6, 4, 5, 2]","(0, 0.25)",CHN007D,CHN,D,English,Wed Aug 29 14:57:22 2018,Mouse
1,1,4,0,21,5,9,0,-1770,1570,200,134,0,500,200,8000,"[(960, 540), (960, 540), (960, 540), (960, 540), (960, 540), (960, 540), (960, 540), (960, 540), (960, 540), (960, 540), (960, 540), (960, 540), (960, 540), (960, 540), (960, 540), (960, 540), (960, 540), (960, 540), (960, 540), (960, 540), (960, 540), (960, 540), (960, 540), (960, 540), (960, 540), (960, 540), (960, 540), (960, 540), (960, 540), (960, 540), (960, 540), (960, 540), (960, 540), (960, 540), (960, 540), (960, 540), (960, 540), (960, 540), (960, 540), (960, 540), (960, 540), (960, 540), (960, 540), (960, 540), (960, 540), (960, 540), (960, 540), (960, 540), (960, 540), (960, 540), (960, 540), (960, 540), (960, 540), (960, 540), (960, 540), (960, 540), (960, 540), (960, 540), (960, 540), (960, 540), (960, 540), (960, 540), (960, 540), (960, 540), (960, 540), (960, 540), (960, 540), (960, 540), (960, 540), (960, 540), (960, 540), (960, 540), (960, 540), (960, 540), (960, 540), (960, 540), (960, 540), (960, 540), (960, 540), (960, 540), (960, 540), (960, 540), (960, 540), (960, 540), (960, 540), (960, 540), (960, 540), (960, 540), (960, 540), (960, 540), (960, 540), (960, 540), (960, 540), (960, 540), (960, 540), (960, 540), (960, 540), (960, 540), (960, 540), (960, 540), (960, 540), (960, 540), (960, 540), (960, 540), (960, 540), (960, 540), (960, 540), (960, 540), (960, 540), (960, 540), (960, 540), (960, 540), (960, 540), (960, 540), (960, 540), (960, 540), (960, 540), (960, 540), (960, 540), (960, 540), (960, 540), (960, 540), (960, 540), (960, 540), (960, 540), (960, 540), (960, 540), (960, 540), (960, 540), (960, 540), (960, 540), (960, 540), (960, 540), (960, 540), (960, 540), (960, 540), (960, 540), (960, 540), (960, 540), (960, 540), (960, 540), (960, 540), (960, 540), (960, 540), (960, 540), (960, 540), (960, 540), (960, 540), (960, 540), (960, 540), (960, 540), (960, 540), (960, 540), (960, 540), (960, 540), (960, 540), (962, 540), (963, 542), (966, 546), (967, 552), (970, 555), (973, 563), (981, 574), (1000, 608), (1013, 630), (1025, 652), (1037, 673), (1067, 725), (1080, 747), (1092, 766), (1101, 778), (1121, 804), (1130, 813), (1137, 823), (1150, 837), (1167, 863), (1178, 879)]",57.25623231777186,"[3, 9, 1, 8, 7, 6, 4, 5, 2]","(0, 0.25)",CHN007D,CHN,D,English,Wed Aug 29 14:57:22 2018,Mouse
1,1,4,0,22,3,3,1,869,59,810,135,0,500,200,8000,"[(960, 540), (960, 540), (960, 540), (960, 540), (960, 540), (962, 541), (962, 541), (962, 541), (962, 541), (962, 541), (962, 541), (962, 541), (962, 541), (962, 541), (962, 541), (963, 541), (963, 541), (963, 541), (964, 541), (964, 541), (965, 541), (965, 541), (966, 541), (966, 541), (967, 540), (968, 540), (969, 540), (969, 540), (970, 540), (973, 540), (974, 540), (975, 540), (976, 540), (978, 540), (979, 540), (982, 540), (985, 540), (991, 541), (996, 544), (999, 544), (1004, 544), (1009, 545), (1011, 545), (1015, 547), (1015, 547), (1018, 547), (1018, 547), (1020, 547), (1022, 547), (1025, 547), (1028, 547), (1031, 547), (1033, 547), (1039, 547), (1040, 547), (1042, 547), (1045, 547), (1050, 547), (1054, 547), (1058, 547), (1064, 548), (1078, 553), (1084, 554), (1090, 556), (1094, 558), (1106, 562), (1111, 564), (1117, 566), (1122, 568), (1131, 573), (1137, 577), (1144, 580), (1146, 582), (1151, 585), (1152, 586), (1154, 587), (1155, 588), (1169, 596), (1182, 605), (1198, 614), (1215, 627), (1247, 643), (1260, 649), (1273, 656), (1285, 662), (1323, 680), (1349, 689)]",20.958509655958665,"[3, 9, 1, 8, 7, 6, 4, 5, 2]","(0, 0.25)",CHN007D,CHN,D,English,Wed Aug 29 14:57:22 2018,Mouse
1,1,4,0,23,8,8,1,310,20,290,135,0,500,200,8000,"[(950, 543), (929, 552), (923, 555), (921, 557), (918, 558), (915, 560), (914, 560), (912, 561), (911, 562), (908, 565), (905, 567), (899, 570), (894, 574), (877, 586), (865, 594), (858, 599), (847, 607), (826, 622), (816, 629), (807, 635), (798, 640), (779, 652), (772, 658), (761, 664), (748, 674), (720, 693), (704, 702), (685, 714), (663, 725), (625, 747), (612, 756)]",148.17255342332692,"[3, 9, 1, 8, 7, 6, 4, 5, 2]","(0, 0.25)",CHN007D,CHN,D,English,Wed Aug 29 14:57:22 2018,Mouse
1,1,4,0,24,1,1,1,900,60,840,134,0,500,200,8000,"[(960, 540), (960, 540), (960, 540), (960, 540), (960, 540), (960, 539), (960, 539), (962, 538), (965, 537), (973, 535), (980, 534), (987, 532), (993, 531), (1001, 530), (1003, 530), (1005, 530), (1007, 530), (1009, 530), (1011, 530), (1011, 530), (1013, 530), (1016, 530), (1016, 530), (1018, 530), (1019, 531), (1020, 531), (1021, 531), (1023, 531), (1023, 531), (1029, 531), (1034, 531), (1041, 531), (1050, 531), (1061, 530), (1068, 529), (1073, 529), (1076, 529), (1079, 526), (1081, 526), (1081, 526), (1081, 526), (1081, 526), (1081, 526), (1081, 526), (1081, 526), (1081, 526), (1081, 526), (1081, 526), (1081, 526), (1081, 526), (1081, 526), (1081, 526), (1081, 526), (1081, 526), (1081, 526), (1081, 526), (1081, 526), (1081, 526), (1081, 526), (1081, 526), (1082, 526), (1082, 526), (1082, 526), (1082, 526), (1082, 528), (1081, 528), (1080, 530), (1080, 530), (1080, 530), (1078, 532), (1077, 533), (1077, 533), (1074, 536), (1063, 550), (1056, 563), (1046, 589), (1033, 618), (1006, 697), (997, 735), (987, 766), (979, 791), (971, 829), (967, 842), (966, 853), (964, 861), (961, 877), (961, 892), (961, 905), (961, 922), (961, 956)]",89.86227002607525,"[3, 9, 1, 8, 7, 6, 4, 5, 2]","(0, 0.25)",CHN007D,CHN,D,English,Wed Aug 29 14:57:22 2018,Mouse
1,1,4,0,25,3,5,0,-2462,812,1650,133,0,500,200,8000,"[(960, 540), (960, 540), (960, 540), (960, 540), (960, 540), (960, 540), (960, 540), (960, 540), (960, 540), (960, 540), (960, 540), (960, 540), (960, 540), (960, 540), (960, 540), (960, 540), (960, 540), (960, 540), (960, 540), (960, 540), (960, 540), (960, 540), (960, 540), (960, 540), (960, 540), (960, 540), (960, 540), (960, 540), (960, 540), (960, 540), (960, 540), (960, 540), (960, 540), (960, 540), (960, 540), (960, 540), (960, 540), (960, 540), (960, 540), (960, 540), (960, 540), (960, 540), (960, 540), (960, 540), (960, 540), (960, 540), (960, 540), (960, 540), (960, 540), (960, 540), (960, 540), (960, 540), (960, 540), (960, 540), (960, 540), (960, 540), (960, 540), (960, 540), (960, 540), (960, 540), (960, 540), (960, 540), (960, 540), (960, 540), (960, 540), (960, 540), (960, 540), (960, 540), (960, 540), (960, 540), (960, 540), (960, 540), (960, 540), (960, 540), (960, 540), (960, 540), (960, 540), (960, 540), (960, 540), (960, 540), (960, 540), (960, 541), (961, 543), (961, 543), (962, 544), (962, 545), (963, 546), (964, 547), (964, 548), (965, 549), (965, 549), (965, 549), (965, 549), (965, 549), (965, 549), (965, 550), (966, 551), (966, 551), (967, 552), (968, 553), (969, 554), (970, 555), (971, 555), (974, 557), (974, 557), (976, 558), (978, 560), (979, 562), (981, 563), (983, 566), (984, 567), (988, 571), (990, 573), (993, 576), (994, 578), (997, 581), (997, 581), (997, 583), (997, 583), (997, 583), (997, 583), (999, 585), (999, 585), (999, 585), (999, 585), (999, 585), (999, 585), (999, 585), (999, 585), (999, 585), (999, 585), (1000, 585), (1001, 585), (1002, 585), (1005, 585), (1008, 583), (1009, 582), (1011, 579), (1011, 576), (1014, 571), (1015, 569), (1015, 566), (1015, 565), (1017, 563), (1017, 561), (1017, 559), (1017, 558), (1018, 554), (1019, 551), (1019, 550), (1019, 547), (1019, 540), (1019, 538), (1019, 537), (1019, 536), (1019, 530), (1019, 528), (1019, 524), (1019, 522), (1019, 520), (1019, 519), (1020, 518), (1020, 518), (1021, 517), (1021, 517), (1021, 517), (1021, 516), (1021, 516), (1021, 516), (1021, 516), (1021, 516), (1021, 516), (1021, 516), (1021, 515), (1021, 515), (1022, 515), (1022, 515), (1022, 514), (1023, 514), (1023, 513), (1023, 513), (1023, 512), (1023, 512), (1023, 512), (1023, 512), (1023, 512), (1023, 512), (1023, 511), (1023, 511), (1023, 510), (1023, 510), (1024, 509), (1024, 508), (1024, 508), (1024, 508), (1024, 508), (1024, 508), (1025, 507), (1025, 507), (1027, 504), (1027, 504), (1027, 503), (1029, 501), (1031, 497), (1032, 495), (1032, 495), (1032, 493), (1034, 489), (1034, 488), (1035, 488), (1036, 486), (1036, 485), (1037, 484), (1038, 481), (1038, 481), (1038, 481), (1038, 481), (1039, 479), (1039, 477), (1039, 476), (1040, 474), (1041, 472), (1041, 471), (1041, 466), (1041, 464), (1042, 461), (1042, 459), (1042, 451), (1042, 443), (1042, 435), (1042, 427), (1042, 405), (1042, 391), (1042, 375), (1042, 355), (1044, 312), (1050, 290), (1051, 270), (1055, 253), (1060, 231), (1062, 221), (1065, 213), (1068, 203), (1077, 182), (1084, 171), (1090, 163), (1098, 152)]",289.57895212482913,"[3, 9, 1, 8, 7, 6, 4, 5, 2]","(0, 0.25)",CHN007D,CHN,D,English,Wed Aug 29 14:57:22 2018,Mouse
1,1,4,0,26,2,2,1,460,120,340,134,0,500,200,8000,"[(960, 540), (960, 540), (960, 540), (960, 540), (960, 540), (960, 540), (960, 540), (960, 540), (960, 540), (960, 540), (960, 540), (965, 541), (967, 543), (970, 546), (973, 547), (977, 549), (979, 549), (982, 552), (983, 552), (986, 553), (987, 553), (988, 553), (990, 553), (991, 553), (991, 553), (993, 553), (994, 553), (995, 553), (997, 553), (999, 553), (1002, 553), (1018, 551), (1026, 549), (1035, 548), (1047, 542), (1082, 522), (1094, 512), (1116, 496), (1136, 482), (1170, 458), (1190, 445), (1204, 436), (1225, 423), (1277, 395), (1304, 378), (1326, 366)]",334.57312583041016,"[3, 9, 1, 8, 7, 6, 4, 5, 2]","(0, 0.25)",CHN007D,CHN,D,English,Wed Aug 29 14:57:22 2018,Mouse
1,1,4,0,27,4,2,0,-559,399,160,134,0,500,200,8000,"[(960, 540), (960, 540), (960, 540), (960, 540), (960, 540), (960, 540), (960, 540), (960, 540), (960, 540), (960, 540), (960, 540), (960, 540), (960, 540), (960, 540), (960, 540), (960, 540), (960, 540), (960, 540), (960, 540), (960, 540), (960, 540), (960, 540), (960, 540), (960, 540), (960, 540), (960, 540), (960, 540), (960, 540), (960, 540), (960, 540), (960, 540), (960, 540), (960, 540), (960, 540), (960, 540), (960, 540), (960, 540), (960, 540), (960, 540), (963, 540), (980, 537), (992, 533), (1002, 532), (1013, 529), (1036, 526), (1050, 524), (1064, 521), (1080, 518), (1117, 504), (1142, 489), (1172, 469), (1206, 445), (1267, 407), (1291, 395), (1314, 383), (1338, 374)]",336.29115521972625,"[3, 9, 1, 8, 7, 6, 4, 5, 2]","(0, 0.25)",CHN007D,CHN,D,English,Wed Aug 29 14:57:22 2018,Mouse
1,1,4,0,28,4,1,0,-580,320,260,135,0,500,200,8000,"[(960, 540), (960, 540), (960, 540), (960, 540), (960, 540), (960, 540), (960, 540), (960, 540), (960, 540), (960, 540), (960, 540), (960, 540), (960, 540), (960, 540), (960, 540), (960, 540), (960, 540), (960, 540), (960, 540), (960, 540), (960, 540), (960, 540), (960, 540), (960, 540), (960, 540), (960, 540), (960, 540), (960, 540), (960, 540), (960, 540), (960, 540), (960, 544), (960, 549), (960, 556), (960, 563), (960, 587), (959, 598), (957, 612), (955, 625), (951, 649), (949, 660), (947, 671), (943, 681), (936, 705), (929, 722), (921, 737), (916, 754), (903, 790), (894, 810), (886, 826), (877, 844), (865, 869), (858, 880), (852, 891), (849, 900), (843, 913), (842, 918), (839, 923)]",107.53272766139185,"[3, 9, 1, 8, 7, 6, 4, 5, 2]","(0, 0.25)",CHN007D,CHN,D,English,Wed Aug 29 14:57:22 2018,Mouse
1,1,4,0,29,5,5,1,968,58,910,136,0,500,200,8000,"[(960, 540), (960, 540), (960, 540), (960, 540), (960, 540), (961, 539), (961, 539), (961, 539), (961, 539), (962, 539), (962, 539), (962, 539), (963, 537), (964, 537), (964, 537), (965, 536), (966, 536), (966, 536), (967, 536), (969, 535), (969, 534), (971, 534), (973, 534), (974, 534), (981, 532), (984, 531), (987, 530), (992, 529), (997, 525), (1005, 523), (1011, 519), (1017, 517), (1021, 514), (1025, 512), (1027, 512), (1029, 510), (1036, 507), (1042, 504), (1048, 502), (1056, 498), (1068, 493), (1073, 491), (1080, 488), (1085, 486), (1092, 482), (1094, 481), (1095, 480), (1095, 479), (1095, 479), (1095, 479), (1095, 479), (1096, 479), (1097, 479), (1098, 478), (1098, 478), (1102, 475), (1103, 474), (1105, 474), (1106, 473), (1107, 473), (1109, 472), (1109, 471), (1112, 470), (1114, 468), (1118, 465), (1120, 465), (1122, 464), (1124, 463), (1131, 458), (1133, 456), (1134, 456), (1135, 456), (1136, 454), (1138, 453), (1139, 452), (1141, 450), (1142, 450), (1144, 449), (1144, 449), (1145, 448), (1150, 444), (1152, 443), (1153, 442), (1154, 440), (1156, 434), (1158, 431), (1158, 425), (1159, 417), (1162, 399), (1163, 391), (1166, 378), (1169, 360), (1180, 317), (1184, 295), (1192, 270), (1196, 251), (1201, 217)]",306.72772478748703,"[3, 9, 1, 8, 7, 6, 4, 5, 2]","(0, 0.25)",CHN007D,CHN,D,English,Wed Aug 29 14:57:22 2018,Mouse
1,1,4,0,30,2,2,1,410,100,310,136,0,500,200,8000,"[(960, 540), (960, 540), (960, 540), (960, 540), (960, 540), (960, 540), (960, 540), (960, 540), (960, 540), (960, 542), (960, 543), (961, 545), (961, 545), (962, 545), (964, 546), (964, 546), (965, 546), (968, 546), (972, 546), (975, 546), (979, 546), (983, 546), (993, 546), (996, 545), (1004, 542), (1006, 541), (1016, 540), (1020, 540), (1028, 540), (1039, 540), (1064, 540), (1082, 540), (1102, 540), (1123, 537), (1174, 529), (1200, 524), (1233, 517), (1261, 509), (1311, 495), (1339, 487), (1368, 475)]",350.94806632934194,"[3, 9, 1, 8, 7, 6, 4, 5, 2]","(0, 0.25)",CHN007D,CHN,D,English,Wed Aug 29 14:57:22 2018,Mouse
1,1,4,0,31,4,1,0,-2092,12,2080,135,0,500,200,8000,"[(960, 540), (959, 540), (959, 540), (959, 540), (958, 539), (958, 539), (958, 539), (958, 538), (958, 537), (958, 534), (958, 533), (958, 532), (958, 530), (958, 528), (958, 527), (958, 527), (958, 525), (958, 524), (958, 522), (958, 521), (960, 517), (965, 505), (967, 497), (968, 493), (970, 485), (972, 478), (973, 474), (974, 471), (975, 469), (978, 460), (982, 453), (987, 447), (992, 438), (998, 424), (1001, 420), (1002, 419), (1003, 416), (1005, 412), (1006, 412), (1006, 410), (1008, 409), (1011, 405), (1012, 404), (1014, 402), (1015, 401), (1019, 399), (1020, 398), (1021, 397), (1022, 397), (1023, 395), (1024, 395), (1025, 394), (1025, 394), (1027, 392), (1027, 392), (1029, 390), (1029, 390), (1029, 389), (1030, 387), (1030, 387), (1030, 386), (1030, 385), (1030, 383), (1030, 382), (1030, 382), (1030, 376), (1030, 375), (1030, 375), (1030, 375), (1029, 371), (1028, 369), (1028, 368), (1027, 367), (1027, 367), (1027, 367), (1027, 366), (1026, 366), (1025, 366), (1024, 366), (1024, 366), (1023, 366), (1023, 366), (1023, 366), (1023, 366), (1023, 366), (1023, 366), (1023, 366), (1023, 366), (1023, 366), (1022, 366), (1022, 366), (1022, 366), (1022, 366), (1022, 366), (1022, 366), (1021, 366), (1021, 366), (1021, 366), (1021, 366), (1021, 366), (1020, 366), (1020, 366), (1020, 366), (1020, 366), (1019, 366), (1018, 366), (1018, 366), (1018, 366), (1017, 366), (1017, 367), (1017, 367), (1015, 368), (1015, 368), (1014, 369), (1014, 369), (1013, 370), (1013, 370), (1010, 371), (1009, 372), (1008, 372), (1008, 372), (1008, 373), (1007, 374), (1007, 374), (1007, 374), (1007, 374), (1007, 374), (1007, 374), (1007, 374), (1007, 374), (1007, 374), (1007, 374), (1007, 374), (1007, 374), (1007, 374), (1007, 374), (1006, 374), (1006, 374), (1005, 376), (1004, 376), (1003, 376), (1002, 377), (1001, 377), (1001, 377), (1001, 378), (998, 383), (997, 384), (996, 386), (993, 389), (990, 393), (989, 394), (988, 396), (988, 398), (985, 401), (985, 404), (984, 406), (982, 410), (981, 416), (980, 418), (978, 422), (977, 427), (973, 437), (971, 443), (969, 450), (967, 455), (961, 468), (960, 475), (958, 480), (957, 485), (954, 491), (953, 494), (953, 498), (952, 502), (948, 515), (947, 525), (947, 532), (944, 543), (942, 561), (941, 571), (938, 582), (937, 593), (930, 615), (927, 622), (926, 631), (925, 635), (921, 647), (921, 649), (920, 652), (919, 656), (919, 663), (919, 668), (918, 674), (918, 678), (916, 694), (916, 702), (913, 709), (913, 715), (910, 732), (908, 743), (907, 756), (907, 770), (905, 805), (900, 826), (898, 845), (893, 866), (889, 897), (886, 911), (885, 922), (885, 931), (885, 942)]",100.56801420900933,"[3, 9, 1, 8, 7, 6, 4, 5, 2]","(0, 0.25)",CHN007D,CHN,D,English,Wed Aug 29 14:57:22 2018,Mouse
1,1,4,0,32,6,6,1,1180,290,890,136,0,500,200,8000,"[(960, 540), (960, 540), (960, 540), (960, 540), (960, 540), (960, 540), (960, 540), (960, 540), (960, 540), (960, 540), (960, 540), (960, 540), (960, 540), (960, 540), (960, 540), (960, 540), (960, 540), (960, 540), (960, 540), (960, 540), (960, 540), (960, 540), (960, 540), (960, 540), (960, 540), (960, 540), (960, 540), (960, 540), (960, 541), (960, 542), (960, 545), (959, 546), (959, 546), (959, 547), (958, 548), (958, 549), (958, 549), (958, 549), (958, 550), (958, 550), (957, 550), (957, 550), (956, 552), (955, 553), (955, 553), (954, 556), (951, 560), (950, 562), (947, 566), (944, 568), (939, 572), (936, 574), (934, 576), (932, 579), (930, 580), (928, 580), (927, 581), (927, 581), (926, 582), (926, 582), (926, 582), (926, 582), (926, 582), (926, 582), (926, 582), (926, 582), (926, 582), (926, 582), (926, 582), (926, 582), (926, 582), (926, 582), (926, 582), (926, 582), (926, 582), (925, 580), (925, 580), (924, 578), (921, 572), (918, 566), (911, 558), (906, 548), (894, 531), (887, 523), (877, 515), (869, 508), (857, 499), (851, 494), (846, 491), (842, 488), (833, 482), (828, 479), (820, 472), (815, 466), (803, 452), (799, 447), (794, 442), (793, 439), (787, 433), (786, 431), (783, 428), (782, 426), (776, 415), (771, 407), (763, 398), (755, 388), (738, 371), (728, 365), (719, 357), (713, 350), (699, 339), (690, 332), (685, 325), (678, 317), (666, 302), (660, 293), (653, 287), (649, 282)]",219.6784894069347,"[3, 9, 1, 8, 7, 6, 4, 5, 2]","(0, 0.25)",CHN007D,CHN,D,English,Wed Aug 29 14:57:22 2018,Mouse
1,1,4,0,33,4,5,0,-2679,69,2610,136,0,500,200,8000,"[(960, 540), (960, 540), (960, 540), (960, 540), (960, 540), (960, 540), (960, 541), (960, 541), (960, 541), (960, 541), (960, 541), (960, 541), (960, 541), (960, 541), (961, 541), (961, 541), (961, 541), (962, 542), (962, 542), (962, 542), (962, 542), (962, 542), (962, 542), (962, 542), (962, 542), (962, 542), (962, 542), (962, 542), (962, 542), (962, 542), (962, 542), (962, 542), (962, 542), (962, 542), (962, 542), (962, 542), (962, 542), (962, 542), (962, 542), (962, 542), (962, 542), (962, 542), (962, 542), (962, 542), (962, 542), (962, 542), (962, 542), (962, 542), (962, 542), (962, 542), (962, 542), (963, 543), (963, 543), (963, 543), (963, 543), (963, 543), (963, 543), (963, 543), (963, 543), (963, 543), (963, 543), (963, 543), (963, 543), (963, 543), (963, 543), (963, 543), (963, 543), (963, 543), (963, 543), (963, 543), (963, 543), (963, 543), (963, 543), (963, 543), (963, 543), (963, 543), (963, 543), (963, 543), (963, 543), (963, 543), (963, 543), (963, 543), (963, 543), (963, 543), (963, 543), (963, 543), (963, 543), (963, 543), (963, 543), (963, 543), (964, 543), (965, 543), (967, 543), (968, 543), (969, 543), (975, 544), (979, 544), (983, 545), (989, 545), (1000, 547), (1005, 547), (1009, 548), (1012, 549), (1017, 549), (1019, 549), (1020, 549), (1024, 551), (1028, 552), (1029, 552), (1030, 552), (1031, 552), (1032, 552), (1032, 552), (1032, 552), (1032, 552), (1032, 552), (1033, 553), (1033, 553), (1033, 553), (1033, 553), (1033, 553), (1033, 553), (1033, 553), (1033, 553), (1033, 553), (1033, 553), (1033, 553), (1033, 553), (1034, 553), (1034, 553), (1034, 553), (1034, 553), (1034, 553), (1034, 553), (1034, 553), (1034, 553), (1034, 553), (1035, 553), (1036, 553), (1037, 554), (1039, 555), (1039, 555), (1039, 555), (1040, 555), (1040, 555), (1040, 555), (1042, 555), (1044, 555), (1046, 556), (1046, 556), (1046, 556), (1046, 556), (1046, 556), (1047, 556), (1047, 556), (1047, 556), (1047, 556), (1047, 556), (1048, 556), (1048, 556), (1049, 556), (1049, 556), (1049, 556), (1049, 556), (1049, 556), (1049, 556), (1049, 556), (1049, 556), (1049, 556), (1049, 556), (1049, 556), (1049, 556), (1049, 556), (1049, 556), (1049, 556), (1049, 556), (1049, 556), (1049, 556), (1049, 556), (1049, 556), (1049, 556), (1049, 556), (1049, 556), (1049, 556), (1049, 556), (1049, 556), (1049, 556), (1049, 556), (1049, 556), (1049, 556), (1049, 556), (1049, 556), (1049, 556), (1049, 556), (1049, 556), (1049, 556), (1049, 556), (1049, 556), (1049, 556), (1049, 556), (1049, 556), (1049, 556), (1049, 556), (1049, 556), (1049, 556), (1049, 556), (1049, 556), (1049, 556), (1049, 556), (1049, 556), (1049, 556), (1049, 556), (1049, 556), (1049, 556), (1049, 556), (1049, 556), (1049, 556), (1049, 556), (1049, 556), (1049, 556), (1049, 556), (1049, 556), (1049, 556), (1049, 556), (1049, 556), (1049, 556), (1049, 556), (1049, 556), (1049, 556), (1049, 556), (1049, 556), (1049, 556), (1049, 556), (1049, 556), (1049, 556), (1049, 556), (1049, 556), (1049, 556), (1049, 556), (1049, 556), (1049, 556), (1049, 556), (1049, 556), (1049, 556), (1049, 556), (1049, 556), (1049, 556), (1049, 556), (1050, 556), (1051, 556), (1051, 556), (1056, 552), (1059, 547), (1061, 545), (1063, 538), (1067, 514), (1067, 500), (1067, 476), (1066, 455), (1063, 398), (1063, 370), (1063, 342), (1063, 314), (1063, 247), (1063, 222), (1063, 194), (1061, 171), (1052, 138)]",282.8904806297514,"[3, 9, 1, 8, 7, 6, 4, 5, 2]","(0, 0.25)",CHN007D,CHN,D,English,Wed Aug 29 14:57:22 2018,Mouse
1,1,4,0,34,6,6,1,371,71,300,137,0,500,200,8000,"[(960, 540), (960, 540), (960, 540), (960, 540), (960, 540), (960, 540), (960, 540), (960, 542), (958, 543), (957, 543), (953, 545), (945, 545), (939, 545), (934, 545), (928, 545), (918, 545), (915, 545), (911, 545), (907, 544), (897, 538), (892, 534), (886, 531), (878, 526), (861, 518), (851, 514), (842, 509), (834, 506), (816, 497), (809, 493), (801, 489), (794, 482), (771, 465), (759, 455), (743, 444), (722, 424), (660, 365), (629, 345), (607, 331)]",210.62841717001103,"[3, 9, 1, 8, 7, 6, 4, 5, 2]","(0, 0.25)",CHN007D,CHN,D,English,Wed Aug 29 14:57:22 2018,Mouse
1,1,4,0,35,5,3,0,-371,41,330,137,0,500,200,8000,"[(960, 540), (960, 540), (960, 540), (960, 540), (961, 541), (961, 541), (962, 542), (962, 542), (964, 543), (968, 545), (971, 546), (976, 549), (982, 551), (1002, 561), (1015, 567), (1027, 571), (1038, 575), (1049, 579), (1058, 583), (1065, 585), (1072, 588), (1085, 590), (1091, 593), (1098, 595), (1105, 598), (1123, 603), (1131, 604), (1141, 608), (1148, 609), (1166, 613), (1176, 615), (1187, 618), (1201, 622), (1244, 634), (1272, 642), (1308, 651), (1341, 661), (1408, 679)]",17.237436666410385,"[3, 9, 1, 8, 7, 6, 4, 5, 2]","(0, 0.25)",CHN007D,CHN,D,English,Wed Aug 29 14:57:22 2018,Mouse
1,1,4,0,36,8,8,1,389,19,370,138,0,500,200,8000,"[(955, 539), (949, 537), (934, 533), (929, 532), (921, 530), (914, 529), (906, 528), (903, 528), (899, 528), (894, 528), (885, 528), (879, 529), (869, 532), (859, 535), (840, 544), (833, 548), (825, 553), (817, 557), (802, 567), (794, 571), (787, 577), (779, 585), (763, 602), (757, 608), (748, 617), (741, 629), (725, 651), (718, 664), (712, 674), (705, 687), (691, 710), (686, 720), (680, 729), (674, 737), (664, 755), (658, 761), (653, 769), (649, 775), (641, 785)]",142.47483359535173,"[3, 9, 1, 8, 7, 6, 4, 5, 2]","(0, 0.25)",CHN007D,CHN,D,English,Wed Aug 29 14:57:22 2018,Mouse
1,1,4,0,37,8,8,1,349,19,330,138,0,500,200,8000,"[(957, 540), (956, 541), (948, 544), (941, 549), (935, 553), (926, 561), (908, 575), (899, 583), (893, 587), (886, 591), (878, 599), (872, 602), (867, 607), (860, 612), (850, 618), (845, 622), (839, 625), (835, 628), (827, 635), (822, 639), (819, 642), (815, 647), (811, 651), (808, 655), (803, 659), (795, 662), (775, 672), (762, 679), (749, 688), (737, 694), (706, 710), (689, 721), (668, 732), (651, 743), (624, 759)]",146.90426571549173,"[3, 9, 1, 8, 7, 6, 4, 5, 2]","(0, 0.25)",CHN007D,CHN,D,English,Wed Aug 29 14:57:22 2018,Mouse
1,1,4,0,38,7,7,1,1089,110,979,137,0,500,200,8000,"[(960, 540), (960, 540), (960, 540), (960, 540), (960, 540), (960, 540), (960, 540), (960, 540), (960, 540), (960, 540), (961, 540), (961, 540), (961, 540), (961, 540), (961, 540), (962, 540), (962, 540), (962, 540), (962, 540), (962, 540), (963, 540), (964, 539), (968, 536), (969, 536), (970, 535), (971, 534), (972, 533), (973, 532), (974, 531), (974, 531), (974, 531), (974, 531), (974, 531), (974, 531), (974, 531), (974, 530), (974, 530), (974, 530), (974, 528), (974, 527), (973, 526), (973, 525), (972, 524), (971, 524), (970, 522), (970, 522), (968, 520), (966, 518), (965, 517), (962, 516), (953, 511), (949, 509), (944, 504), (940, 501), (938, 499), (936, 498), (936, 498), (935, 497), (935, 496), (935, 496), (935, 496), (934, 496), (933, 495), (932, 494), (932, 493), (930, 492), (928, 490), (927, 489), (927, 489), (927, 489), (926, 489), (925, 488), (925, 488), (925, 488), (924, 488), (924, 487), (924, 487), (923, 487), (917, 487), (915, 486), (912, 486), (909, 485), (900, 485), (896, 484), (890, 483), (884, 482), (867, 482), (858, 482), (847, 482), (839, 482), (821, 483), (813, 485), (804, 488), (796, 490), (775, 496), (763, 499), (750, 503), (736, 505), (707, 508), (691, 511), (676, 513), (669, 513), (648, 513), (637, 513), (625, 513), (612, 513), (583, 513), (570, 513), (555, 513)]",183.81407483429035,"[3, 9, 1, 8, 7, 6, 4, 5, 2]","(0, 0.25)",CHN007D,CHN,D,English,Wed Aug 29 14:57:22 2018,Mouse
1,1,4,0,39,3,3,1,440,20,420,136,0,500,200,8000,"[(968, 541), (973, 542), (978, 542), (985, 542), (1004, 542), (1017, 542), (1036, 542), (1053, 542), (1083, 542), (1100, 542), (1117, 542), (1133, 546), (1160, 548), (1173, 551), (1185, 551), (1193, 554), (1202, 555), (1208, 557), (1213, 558), (1220, 561), (1235, 568), (1241, 571), (1247, 574), (1251, 577), (1264, 584), (1270, 587), (1277, 591), (1283, 594), (1297, 602), (1301, 604), (1307, 608), (1311, 609), (1317, 613), (1320, 615), (1322, 617), (1323, 617), (1327, 620), (1331, 623), (1334, 625), (1338, 627), (1344, 630), (1347, 631), (1349, 632), (1352, 633)]",13.346381809174359,"[3, 9, 1, 8, 7, 6, 4, 5, 2]","(0, 0.25)",CHN007D,CHN,D,English,Wed Aug 29 14:57:22 2018,Mouse
1,1,4,0,40,7,6,0,-820,20,800,135,0,500,200,8000,"[(960, 539), (958, 539), (958, 539), (955, 539), (955, 538), (953, 538), (953, 537), (951, 536), (950, 535), (950, 535), (948, 533), (947, 532), (947, 532), (947, 532), (947, 531), (945, 530), (945, 530), (945, 529), (944, 528), (942, 526), (941, 525), (939, 524), (938, 523), (938, 523), (938, 523), (938, 523), (938, 523), (936, 521), (936, 521), (936, 521), (936, 521), (936, 521), (936, 521), (936, 521), (936, 521), (936, 521), (936, 521), (936, 521), (936, 521), (936, 521), (936, 521), (936, 521), (936, 521), (936, 521), (936, 521), (936, 521), (936, 521), (936, 521), (935, 520), (935, 520), (933, 518), (922, 512), (914, 506), (906, 500), (894, 495), (865, 481), (850, 475), (832, 468), (816, 460), (783, 446), (770, 440), (756, 432), (744, 427), (728, 417), (723, 414), (718, 410), (715, 407), (707, 399), (702, 393), (698, 388), (696, 383), (688, 373), (683, 368), (677, 362), (671, 358), (657, 345), (650, 339), (646, 334), (644, 328), (638, 316), (635, 310), (632, 304)]",215.735476014867,"[3, 9, 1, 8, 7, 6, 4, 5, 2]","(0, 0.25)",CHN007D,CHN,D,English,Wed Aug 29 14:57:22 2018,Mouse
1,1,4,0,41,5,5,1,1040,50,990,136,0,500,200,8000,"[(960, 540), (960, 540), (960, 540), (960, 540), (962, 540), (962, 540), (962, 540), (962, 540), (962, 540), (962, 540), (962, 540), (962, 540), (962, 540), (963, 540), (963, 540), (963, 540), (965, 540), (965, 540), (966, 540), (966, 540), (968, 540), (968, 540), (969, 541), (972, 542), (976, 542), (980, 542), (985, 543), (989, 544), (998, 546), (1004, 546), (1008, 547), (1015, 548), (1026, 549), (1032, 551), (1037, 552), (1043, 553), (1057, 556), (1065, 557), (1071, 557), (1074, 558), (1079, 558), (1082, 558), (1083, 558), (1085, 558), (1087, 558), (1088, 558), (1088, 558), (1089, 558), (1089, 558), (1090, 558), (1091, 558), (1092, 558), (1094, 558), (1095, 558), (1095, 558), (1096, 557), (1098, 550), (1100, 542), (1100, 532), (1100, 523), (1100, 511), (1100, 503), (1098, 497), (1098, 492), (1098, 483), (1098, 478), (1098, 476), (1098, 471), (1096, 461), (1096, 457), (1094, 452), (1094, 450), (1093, 444), (1093, 443), (1093, 442), (1093, 441), (1093, 438), (1093, 434), (1093, 431), (1093, 427), (1094, 413), (1095, 406), (1096, 396), (1098, 386), (1102, 364), (1105, 352), (1106, 341), (1111, 322), (1120, 289), (1125, 273), (1129, 262), (1131, 251), (1136, 231), (1140, 224), (1141, 218), (1141, 214), (1144, 209), (1144, 207), (1145, 204), (1146, 203), (1149, 198), (1150, 197), (1152, 194), (1154, 189)]",298.9297164267681,"[3, 9, 1, 8, 7, 6, 4, 5, 2]","(0, 0.25)",CHN007D,CHN,D,English,Wed Aug 29 14:57:22 2018,Mouse
1,1,4,0,42,6,6,1,501,11,490,136,0,500,200,8000,"[(960, 540), (958, 541), (955, 541), (952, 541), (948, 543), (945, 544), (945, 545), (943, 545), (940, 547), (939, 547), (938, 548), (938, 548), (938, 549), (937, 549), (936, 549), (934, 549), (928, 549), (925, 549), (921, 549), (917, 549), (907, 549), (901, 549), (897, 549), (890, 547), (878, 544), (871, 540), (862, 536), (856, 534), (839, 526), (829, 521), (820, 515), (810, 509), (791, 498), (782, 493), (775, 488), (767, 482), (753, 468), (745, 458), (737, 446), (729, 437), (717, 420), (713, 414), (709, 406), (706, 399), (695, 380), (688, 370), (680, 360), (673, 347), (656, 323), (648, 313), (640, 300)]",216.86989764584402,"[3, 9, 1, 8, 7, 6, 4, 5, 2]","(0, 0.25)",CHN007D,CHN,D,English,Wed Aug 29 14:57:22 2018,Mouse
1,1,4,0,43,7,7,1,710,20,690,135,0,500,200,8000,"[(960, 540), (960, 541), (959, 542), (955, 544), (951, 546), (951, 546), (951, 546), (951, 546), (951, 546), (951, 546), (951, 546), (951, 546), (951, 546), (951, 546), (951, 546), (951, 546), (951, 546), (951, 546), (951, 546), (951, 546), (951, 546), (951, 546), (951, 546), (951, 546), (951, 546), (951, 546), (951, 546), (951, 546), (951, 546), (951, 546), (951, 546), (951, 546), (951, 546), (951, 546), (951, 546), (950, 546), (940, 547), (931, 547), (922, 547), (913, 547), (896, 545), (887, 543), (880, 542), (871, 541), (844, 534), (827, 530), (808, 528), (787, 525), (754, 522), (743, 522), (734, 522), (724, 522), (708, 521), (699, 521), (691, 518), (684, 518), (671, 517), (667, 517), (665, 517), (659, 517), (650, 516), (644, 514), (636, 513), (627, 512), (607, 509), (601, 508), (591, 507), (584, 507), (569, 503), (562, 503), (555, 502)]",185.3602074644095,"[3, 9, 1, 8, 7, 6, 4, 5, 2]","(0, 0.25)",CHN007D,CHN,D,English,Wed Aug 29 14:57:22 2018,Mouse
1,1,4,0,44,9,6,0,-397,38,359,134,0,500,200,8000,"[(961, 540), (961, 540), (961, 540), (962, 540), (962, 540), (962, 540), (963, 540), (963, 540), (963, 540), (963, 540), (963, 540), (963, 540), (964, 538), (964, 534), (962, 530), (959, 526), (958, 520), (956, 518), (956, 517), (955, 516), (954, 514), (953, 511), (952, 510), (949, 506), (940, 494), (932, 485), (925, 478), (914, 469), (894, 450), (884, 444), (875, 437), (865, 430), (838, 410), (821, 395), (802, 377), (779, 359), (724, 315), (697, 296), (666, 274), (640, 255)]",221.68905848538853,"[3, 9, 1, 8, 7, 6, 4, 5, 2]","(0, 0.25)",CHN007D,CHN,D,English,Wed Aug 29 14:57:22 2018,Mouse
1,1,4,0,45,2,2,1,619,19,600,135,0,500,200,8000,"[(961, 541), (963, 541), (964, 541), (968, 541), (970, 542), (972, 542), (974, 543), (983, 544), (989, 544), (992, 545), (996, 545), (1000, 545), (1004, 545), (1007, 545), (1011, 545), (1019, 545), (1023, 545), (1029, 545), (1035, 545), (1051, 545), (1059, 545), (1067, 545), (1074, 545), (1089, 537), (1093, 534), (1098, 531), (1103, 527), (1113, 521), (1120, 517), (1129, 512), (1138, 507), (1155, 498), (1162, 495), (1172, 490), (1179, 487), (1193, 479), (1197, 477), (1203, 472), (1209, 468), (1223, 462), (1227, 459), (1233, 457), (1239, 453), (1253, 444), (1259, 442), (1265, 439), (1271, 438), (1289, 434), (1296, 432), (1298, 432), (1301, 431), (1306, 430), (1307, 429), (1310, 429), (1312, 428), (1318, 427), (1322, 427), (1326, 426), (1330, 426), (1339, 424), (1340, 424), (1344, 421)]",342.78200901111524,"[3, 9, 1, 8, 7, 6, 4, 5, 2]","(0, 0.25)",CHN007D,CHN,D,English,Wed Aug 29 14:57:22 2018,Mouse
1,1,4,0,46,6,6,1,329,19,310,135,0,500,200,8000,"[(959, 540), (958, 541), (958, 541), (958, 541), (957, 542), (956, 542), (955, 542), (951, 542), (941, 542), (931, 542), (923, 542), (916, 542), (901, 542), (892, 542), (885, 542), (876, 541), (858, 534), (846, 529), (835, 522), (822, 513), (788, 489), (773, 478), (749, 456), (732, 443), (702, 419), (695, 411), (687, 405), (679, 396), (662, 377), (652, 361), (641, 344), (625, 322), (598, 285)]",215.1616279311163,"[3, 9, 1, 8, 7, 6, 4, 5, 2]","(0, 0.25)",CHN007D,CHN,D,English,Wed Aug 29 14:57:22 2018,Mouse
1,1,4,0,47,6,6,1,1101,11,1090,134,0,500,200,8000,"[(960, 540), (961, 540), (962, 540), (963, 541), (963, 541), (963, 541), (963, 541), (963, 541), (963, 541), (963, 541), (963, 541), (964, 541), (964, 541), (965, 541), (965, 541), (967, 542), (967, 542), (968, 543), (970, 543), (972, 543), (973, 543), (975, 544), (975, 544), (978, 544), (978, 544), (980, 544), (982, 544), (986, 546), (989, 546), (991, 547), (993, 547), (998, 549), (1002, 549), (1005, 550), (1006, 550), (1012, 552), (1018, 554), (1019, 554), (1022, 554), (1029, 558), (1031, 558), (1034, 558), (1036, 559), (1039, 560), (1040, 560), (1042, 561), (1043, 561), (1044, 561), (1044, 561), (1045, 562), (1045, 562), (1045, 562), (1045, 562), (1045, 562), (1046, 562), (1046, 563), (1046, 563), (1046, 565), (1045, 566), (1041, 570), (1036, 573), (1031, 576), (1027, 578), (1020, 584), (1016, 589), (1011, 595), (1008, 598), (998, 611), (992, 617), (984, 624), (977, 629), (958, 641), (948, 647), (939, 651), (926, 657), (902, 667), (894, 671), (882, 675), (872, 681), (855, 691), (845, 693), (835, 696), (828, 698), (817, 698), (815, 698), (813, 698), (812, 698), (811, 693), (810, 688), (810, 683), (808, 677), (808, 654), (807, 637), (804, 616), (799, 586), (788, 524), (775, 487), (762, 456), (746, 424), (724, 383), (717, 372), (711, 362), (708, 353), (701, 335), (697, 325), (695, 316), (691, 308), (684, 294), (678, 287), (672, 278), (664, 270)]",222.3698873366424,"[3, 9, 1, 8, 7, 6, 4, 5, 2]","(0, 0.25)",CHN007D,CHN,D,English,Wed Aug 29 14:57:22 2018,Mouse
1,1,4,0,48,3,2,0,-1021,41,980,133,0,500,200,8000,"[(960, 540), (960, 540), (960, 540), (960, 540), (962, 540), (962, 540), (964, 541), (964, 542), (966, 542), (966, 542), (967, 543), (967, 543), (968, 544), (969, 544), (969, 544), (970, 544), (971, 545), (972, 546), (973, 546), (973, 546), (975, 548), (976, 548), (978, 549), (980, 550), (983, 550), (986, 552), (987, 553), (989, 553), (993, 554), (995, 556), (997, 556), (1000, 557), (1005, 558), (1008, 560), (1011, 560), (1014, 561), (1020, 562), (1022, 563), (1025, 564), (1026, 564), (1029, 566), (1032, 567), (1034, 568), (1037, 569), (1044, 572), (1046, 573), (1049, 574), (1054, 576), (1056, 576), (1056, 576), (1057, 576), (1058, 576), (1059, 577), (1059, 577), (1059, 577), (1059, 577), (1060, 578), (1061, 579), (1063, 580), (1063, 580), (1065, 581), (1066, 581), (1066, 581), (1066, 581), (1067, 581), (1067, 581), (1067, 581), (1068, 581), (1069, 581), (1070, 581), (1071, 581), (1072, 581), (1076, 581), (1078, 581), (1080, 581), (1082, 581), (1087, 580), (1089, 578), (1094, 575), (1097, 573), (1110, 564), (1119, 560), (1126, 558), (1135, 555), (1157, 546), (1167, 541), (1177, 537), (1189, 531), (1208, 523), (1217, 518), (1225, 515), (1236, 510), (1253, 503), (1264, 498), (1276, 492), (1286, 488), (1307, 480), (1314, 476), (1324, 471), (1332, 469), (1344, 461), (1347, 460), (1354, 454)]",347.68693654101054,"[3, 9, 1, 8, 7, 6, 4, 5, 2]","(0, 0.25)",CHN007D,CHN,D,English,Wed Aug 29 14:57:22 2018,Mouse
1,1,4,0,49,3,6,0,-701,61,640,134,0,500,200,8000,"[(960, 540), (960, 540), (960, 540), (960, 540), (960, 540), (960, 540), (959, 541), (959, 541), (959, 541), (956, 542), (956, 543), (956, 543), (955, 543), (953, 543), (953, 543), (952, 543), (951, 543), (947, 543), (945, 543), (942, 543), (939, 543), (935, 543), (932, 543), (931, 543), (929, 543), (925, 543), (925, 543), (925, 543), (925, 543), (925, 543), (925, 543), (925, 543), (925, 543), (924, 544), (924, 544), (924, 544), (924, 544), (924, 544), (924, 544), (924, 544), (924, 544), (924, 544), (924, 544), (924, 544), (924, 544), (924, 544), (924, 544), (924, 544), (924, 544), (924, 544), (924, 544), (924, 544), (924, 544), (924, 544), (924, 544), (924, 544), (922, 544), (917, 541), (912, 537), (906, 533), (897, 526), (867, 507), (852, 495), (841, 485), (822, 474), (775, 445), (747, 424), (722, 405), (691, 386), (636, 335), (607, 310)]",213.08657932922597,"[3, 9, 1, 8, 7, 6, 4, 5, 2]","(0, 0.25)",CHN007D,CHN,D,English,Wed Aug 29 14:57:22 2018,Mouse
1,1,4,0,50,5,7,0,-3539,19,3520,135,0,500,200,8000,"[(962, 542), (965, 543), (967, 543), (969, 543), (971, 544), (972, 545), (974, 545), (977, 546), (979, 547), (988, 550), (995, 554), (1003, 557), (1012, 561), (1032, 567), (1042, 570), (1052, 572), (1061, 575), (1080, 582), (1088, 584), (1096, 587), (1104, 591), (1120, 598), (1129, 602), (1134, 604), (1141, 607), (1147, 609), (1150, 609), (1153, 610), (1153, 610), (1154, 610), (1156, 610), (1156, 610), (1156, 610), (1156, 610), (1157, 610), (1157, 609), (1157, 609), (1157, 609), (1157, 608), (1157, 608), (1157, 608), (1157, 606), (1157, 605), (1157, 605), (1157, 605), (1157, 604), (1157, 604), (1157, 604), (1157, 604), (1157, 604), (1157, 604), (1157, 604), (1157, 604), (1157, 604), (1157, 604), (1157, 604), (1157, 604), (1157, 604), (1154, 604), (1152, 605), (1149, 607), (1146, 609), (1145, 610), (1145, 611), (1145, 611), (1143, 611), (1143, 611), (1143, 612), (1143, 613), (1143, 613), (1143, 615), (1143, 615), (1143, 615), (1143, 616), (1143, 616), (1143, 616), (1143, 618), (1143, 618), (1143, 620), (1143, 620), (1144, 620), (1144, 621), (1145, 622), (1146, 623), (1146, 623), (1147, 623), (1147, 623), (1147, 623), (1148, 623), (1148, 623), (1149, 624), (1149, 624), (1149, 624), (1149, 624), (1149, 624), (1149, 624), (1149, 624), (1149, 624), (1149, 624), (1149, 624), (1149, 624), (1149, 626), (1148, 626), (1148, 626), (1147, 626), (1147, 626), (1147, 626), (1147, 626), (1147, 626), (1147, 626), (1147, 626), (1147, 626), (1147, 626), (1147, 626), (1146, 626), (1145, 626), (1143, 624), (1142, 612), (1142, 610), (1142, 608), (1142, 607), (1143, 604), (1143, 602), (1143, 601), (1143, 600), (1143, 598), (1143, 596), (1143, 595), (1143, 594), (1143, 594), (1143, 594), (1143, 593), (1143, 593), (1143, 592), (1143, 592), (1143, 592), (1143, 592), (1143, 592), (1143, 592), (1143, 591), (1143, 591), (1143, 591), (1143, 591), (1143, 591), (1143, 591), (1143, 591), (1143, 591), (1143, 591), (1143, 591), (1143, 591), (1143, 591), (1143, 591), (1143, 591), (1143, 591), (1143, 591), (1143, 591), (1143, 591), (1143, 591), (1143, 591), (1143, 591), (1143, 591), (1143, 591), (1143, 591), (1143, 591), (1143, 591), (1143, 591), (1143, 591), (1143, 591), (1143, 591), (1143, 591), (1143, 591), (1143, 591), (1143, 591), (1143, 591), (1143, 591), (1143, 591), (1143, 591), (1143, 591), (1143, 591), (1143, 591), (1143, 591), (1143, 591), (1143, 591), (1143, 591), (1143, 591), (1143, 591), (1143, 591), (1143, 591), (1143, 591), (1143, 591), (1143, 591), (1143, 591), (1143, 591), (1143, 591), (1143, 591), (1143, 591), (1143, 591), (1143, 591), (1143, 591), (1143, 591), (1143, 591), (1143, 591), (1143, 591), (1143, 591), (1143, 591), (1143, 591), (1143, 591), (1143, 591), (1143, 591), (1143, 591), (1143, 591), (1143, 591), (1143, 591), (1143, 591), (1143, 591), (1143, 591), (1143, 591), (1143, 591), (1143, 591), (1143, 591), (1143, 591), (1143, 591), (1143, 591), (1143, 591), (1143, 591), (1143, 591), (1143, 591), (1143, 591), (1143, 591), (1143, 591), (1143, 591), (1143, 591), (1143, 591), (1143, 591), (1143, 591), (1143, 591), (1143, 591), (1143, 591), (1143, 591), (1143, 591), (1143, 591), (1143, 591), (1143, 591), (1143, 591), (1143, 591), (1143, 591), (1143, 591), (1143, 591), (1143, 591), (1143, 591), (1143, 591), (1143, 591), (1143, 591), (1143, 591), (1143, 591), (1143, 591), (1143, 591), (1143, 591), (1143, 591), (1143, 591), (1143, 591), (1142, 590), (1142, 590), (1141, 590), (1141, 590), (1138, 587), (1138, 587), (1136, 584), (1134, 584), (1130, 580), (1127, 580), (1124, 578), (1123, 577), (1120, 572), (1119, 571), (1119, 569), (1118, 568), (1117, 566), (1117, 565), (1113, 562), (1112, 560), (1103, 550), (1099, 542), (1098, 540), (1094, 535), (1093, 533), (1093, 531), (1093, 528), (1093, 528), (1091, 526), (1091, 525), (1091, 525), (1091, 525), (1090, 524), (1090, 524), (1090, 522), (1088, 521), (1088, 521), (1088, 521), (1088, 521), (1087, 521), (1086, 521), (1085, 521), (1085, 521), (1084, 521), (1081, 521), (1080, 522), (1080, 522), (1078, 522), (1072, 525), (1069, 526), (1065, 526), (1062, 526), (1053, 527), (1048, 529), (1044, 529), (1040, 530), (1034, 531), (1033, 531), (1032, 531), (1029, 533), (1029, 534), (1029, 534), (1027, 534), (1026, 534), (1023, 535), (1021, 535), (1017, 536), (1015, 536), (1009, 536), (1005, 536), (1004, 536), (1001, 536), (993, 536), (987, 536), (976, 536), (963, 536), (926, 535), (903, 533), (876, 528), (850, 525), (792, 518), (764, 518), (739, 518), (714, 518), (668, 517), (644, 514), (629, 513), (616, 510), (591, 508), (584, 508), (576, 508), (570, 508), (554, 508)]",184.5066068837683,"[3, 9, 1, 8, 7, 6, 4, 5, 2]","(0, 0.25)",CHN007D,CHN,D,English,Wed Aug 29 14:57:22 2018,Mouse
1,1,4,0,51,3,3,1,340,20,320,136,0,500,200,8000,"[(963, 540), (966, 540), (976, 538), (982, 537), (987, 536), (992, 536), (1005, 533), (1011, 531), (1015, 531), (1021, 531), (1036, 531), (1044, 531), (1052, 531), (1062, 531), (1078, 531), (1088, 533), (1096, 534), (1105, 534), (1125, 538), (1135, 540), (1148, 545), (1160, 547), (1191, 558), (1207, 563), (1222, 568), (1236, 571), (1265, 582), (1277, 588), (1290, 593), (1301, 598), (1327, 609), (1340, 615), (1348, 618), (1358, 622)]",11.641757602957046,"[3, 9, 1, 8, 7, 6, 4, 5, 2]","(0, 0.25)",CHN007D,CHN,D,English,Wed Aug 29 14:57:22 2018,Mouse
1,1,4,0,52,4,6,0,-159,19,140,136,0,500,200,8000,"[(959, 540), (957, 538), (954, 535), (945, 524), (937, 516), (927, 504), (909, 483), (872, 442), (855, 421), (834, 395), (818, 373), (782, 320), (767, 293), (755, 271), (737, 241), (709, 192)]",234.19843129381948,"[3, 9, 1, 8, 7, 6, 4, 5, 2]","(0, 0.25)",CHN007D,CHN,D,English,Wed Aug 29 14:57:22 2018,Mouse
1,1,4,0,53,2,2,1,510,20,490,137,0,500,200,8000,"[(956, 543), (956, 544), (953, 549), (952, 556), (950, 561), (950, 568), (950, 579), (950, 582), (949, 585), (948, 587), (946, 589), (945, 590), (945, 590), (945, 591), (945, 591), (945, 591), (945, 591), (945, 591), (962, 592), (973, 592), (983, 592), (990, 592), (1005, 592), (1015, 590), (1023, 589), (1032, 586), (1050, 579), (1060, 575), (1071, 569), (1083, 564), (1103, 558), (1112, 556), (1125, 551), (1134, 547), (1154, 538), (1165, 531), (1175, 528), (1186, 522), (1210, 512), (1220, 507), (1231, 505), (1244, 502), (1267, 498), (1277, 497), (1288, 495), (1298, 494), (1319, 491), (1328, 490), (1335, 489), (1344, 486), (1361, 481)]",351.6300004593966,"[3, 9, 1, 8, 7, 6, 4, 5, 2]","(0, 0.25)",CHN007D,CHN,D,English,Wed Aug 29 14:57:22 2018,Mouse
1,1,4,0,54,2,5,0,-2750,20,2730,137,0,500,200,8000,"[(963, 539), (966, 537), (972, 536), (977, 533), (981, 531), (985, 530), (994, 525), (999, 524), (1004, 522), (1005, 521), (1016, 517), (1021, 516), (1027, 514), (1034, 512), (1043, 510), (1046, 508), (1051, 506), (1053, 505), (1058, 501), (1062, 501), (1065, 500), (1070, 499), (1080, 496), (1083, 495), (1088, 495), (1090, 493), (1096, 491), (1098, 489), (1100, 488), (1101, 487), (1101, 487), (1101, 487), (1103, 487), (1104, 486), (1104, 486), (1104, 486), (1104, 486), (1104, 486), (1105, 486), (1105, 486), (1105, 486), (1105, 486), (1105, 486), (1105, 486), (1105, 486), (1105, 486), (1105, 486), (1105, 486), (1105, 486), (1105, 486), (1105, 486), (1105, 486), (1105, 486), (1105, 486), (1105, 486), (1106, 486), (1106, 486), (1106, 486), (1106, 484), (1106, 483), (1107, 482), (1107, 481), (1108, 479), (1108, 479), (1108, 479), (1108, 479), (1108, 478), (1108, 478), (1108, 477), (1108, 477), (1108, 476), (1109, 475), (1110, 475), (1110, 475), (1111, 473), (1111, 473), (1111, 473), (1111, 473), (1111, 473), (1111, 473), (1111, 473), (1112, 472), (1113, 471), (1113, 470), (1113, 470), (1114, 468), (1114, 466), (1116, 463), (1117, 459), (1117, 455), (1118, 440), (1118, 436), (1118, 431), (1118, 427), (1118, 412), (1118, 409), (1118, 407), (1118, 404), (1118, 401), (1119, 400), (1119, 400), (1119, 398), (1121, 396), (1121, 396), (1121, 396), (1121, 395), (1122, 394), (1123, 394), (1123, 394), (1123, 394), (1124, 393), (1124, 393), (1124, 393), (1124, 393), (1125, 393), (1125, 393), (1125, 393), (1126, 392), (1126, 392), (1127, 391), (1127, 391), (1127, 391), (1127, 391), (1127, 391), (1127, 391), (1129, 391), (1129, 391), (1129, 391), (1129, 391), (1129, 391), (1129, 391), (1129, 391), (1129, 391), (1129, 391), (1129, 391), (1129, 391), (1129, 391), (1129, 391), (1129, 391), (1129, 391), (1129, 391), (1129, 391), (1129, 391), (1129, 391), (1129, 391), (1129, 391), (1129, 391), (1129, 391), (1129, 391), (1129, 391), (1129, 391), (1129, 391), (1129, 391), (1129, 391), (1129, 391), (1129, 391), (1129, 391), (1129, 391), (1129, 391), (1129, 391), (1129, 391), (1129, 391), (1129, 391), (1129, 391), (1129, 391), (1130, 391), (1131, 391), (1132, 392), (1132, 395), (1132, 398), (1131, 408), (1129, 414), (1127, 421), (1127, 428), (1127, 440), (1127, 447), (1127, 453), (1129, 459), (1129, 467), (1129, 470), (1130, 474), (1130, 477), (1132, 486), (1132, 488), (1132, 490), (1132, 493), (1132, 497), (1132, 499), (1132, 499), (1132, 500), (1133, 500), (1133, 500), (1133, 500), (1133, 500), (1133, 500), (1133, 500), (1133, 500), (1133, 501), (1133, 501), (1133, 501), (1133, 501), (1134, 501), (1134, 501), (1134, 501), (1134, 501), (1134, 501), (1134, 501), (1134, 501), (1134, 501), (1134, 501), (1134, 501), (1134, 501), (1134, 501), (1134, 501), (1134, 501), (1134, 501), (1134, 501), (1135, 501), (1136, 500), (1136, 499), (1137, 497), (1137, 496), (1138, 493), (1138, 490), (1139, 487), (1139, 485), (1139, 478), (1139, 475), (1139, 472), (1139, 470), (1139, 465), (1139, 464), (1139, 461), (1139, 459), (1139, 453), (1139, 451), (1139, 447), (1139, 440), (1139, 430), (1139, 426), (1139, 423), (1139, 421), (1139, 415), (1139, 413), (1139, 410), (1139, 408), (1140, 403), (1141, 400), (1142, 396), (1142, 392), (1142, 386), (1142, 383), (1142, 379), (1142, 374), (1142, 365), (1142, 360), (1142, 352), (1142, 347), (1142, 331), (1142, 326), (1144, 318), (1144, 312), (1148, 299), (1148, 293), (1149, 286), (1149, 279), (1149, 267), (1149, 259), (1149, 252), (1149, 243), (1149, 228), (1151, 220), (1153, 209), (1154, 201), (1159, 182)]",299.0681909566629,"[3, 9, 1, 8, 7, 6, 4, 5, 2]","(0, 0.25)",CHN007D,CHN,D,English,Wed Aug 29 14:57:22 2018,Mouse
1,1,4,0,55,1,1,1,928,28,900,138,0,500,200,8000,"[(960, 540), (960, 540), (959, 540), (959, 540), (959, 540), (959, 540), (959, 540), (959, 540), (959, 540), (959, 540), (959, 540), (959, 540), (959, 541), (958, 541), (958, 542), (958, 542), (958, 542), (957, 542), (957, 543), (956, 544), (955, 545), (952, 546), (948, 549), (944, 551), (941, 555), (936, 558), (927, 563), (925, 565), (922, 567), (921, 568), (920, 569), (920, 569), (920, 569), (920, 569), (920, 569), (920, 569), (919, 569), (919, 569), (919, 570), (918, 570), (916, 572), (915, 573), (907, 580), (902, 584), (896, 589), (890, 592), (879, 603), (874, 608), (869, 613), (862, 622), (847, 640), (840, 649), (830, 659), (824, 669), (808, 689), (800, 698), (794, 705), (788, 714), (778, 730), (774, 736), (772, 745), (770, 752), (769, 765), (769, 770), (769, 776), (769, 781), (769, 792), (770, 800), (775, 810), (778, 817), (788, 836), (794, 845), (800, 852), (805, 858), (815, 871), (819, 874), (821, 875), (823, 877), (825, 879), (825, 879), (827, 881), (828, 882), (829, 883), (830, 884), (830, 884), (830, 884), (831, 887), (832, 890), (832, 892), (832, 896), (832, 909), (832, 916), (832, 922)]",108.52489502770302,"[3, 9, 1, 8, 7, 6, 4, 5, 2]","(0, 0.25)",CHN007D,CHN,D,English,Wed Aug 29 14:57:22 2018,Mouse
1,1,4,0,56,5,3,0,-380,20,360,138,0,500,200,8000,"[(962, 538), (964, 537), (966, 537), (967, 537), (973, 534), (977, 532), (983, 529), (989, 527), (1000, 522), (1004, 520), (1009, 517), (1018, 513), (1026, 509), (1031, 507), (1036, 505), (1044, 501), (1059, 495), (1065, 494), (1072, 493), (1079, 490), (1097, 489), (1104, 489), (1110, 489), (1114, 489), (1123, 490), (1127, 492), (1135, 496), (1142, 501), (1170, 522), (1200, 541), (1226, 562), (1254, 583), (1292, 609), (1305, 618), (1318, 628), (1326, 635), (1341, 651), (1346, 659)]",17.134015339903357,"[3, 9, 1, 8, 7, 6, 4, 5, 2]","(0, 0.25)",CHN007D,CHN,D,English,Wed Aug 29 14:57:22 2018,Mouse
1,1,4,0,57,4,4,1,539,19,520,139,0,500,200,8000,"[(955, 534), (950, 521), (949, 513), (947, 508), (945, 500), (943, 489), (942, 483), (942, 479), (942, 475), (942, 469), (942, 466), (942, 463), (942, 462), (942, 458), (942, 456), (942, 455), (941, 452), (938, 446), (938, 443), (938, 440), (938, 437), (936, 427), (934, 421), (934, 418), (933, 414), (932, 407), (932, 404), (930, 400), (930, 393), (929, 383), (929, 378), (929, 374), (929, 368), (929, 360), (929, 351), (929, 345), (929, 336), (928, 320), (925, 310), (923, 303), (920, 293), (916, 277), (914, 270), (914, 263), (913, 256), (911, 241), (909, 231), (907, 220), (903, 209), (898, 189), (892, 176), (889, 166), (884, 158), (880, 142)]",258.63470930213015,"[3, 9, 1, 8, 7, 6, 4, 5, 2]","(0, 0.25)",CHN007D,CHN,D,English,Wed Aug 29 14:57:22 2018,Mouse
1,1,4,0,58,8,8,1,351,11,340,139,0,500,200,8000,"[(960, 540), (957, 544), (954, 548), (944, 555), (939, 561), (933, 564), (931, 566), (924, 572), (920, 576), (918, 578), (914, 581), (903, 588), (898, 593), (894, 596), (888, 601), (878, 608), (875, 609), (871, 612), (869, 614), (862, 619), (857, 623), (853, 626), (848, 631), (835, 641), (827, 646), (820, 652), (811, 658), (795, 667), (783, 675), (772, 682), (754, 694), (712, 715), (689, 725), (667, 737), (648, 749), (617, 767)]",146.50310699328836,"[3, 9, 1, 8, 7, 6, 4, 5, 2]","(0, 0.25)",CHN007D,CHN,D,English,Wed Aug 29 14:57:22 2018,Mouse
1,1,4,0,59,4,4,1,430,20,410,138,0,500,200,8000,"[(961, 532), (965, 523), (973, 507), (978, 497), (984, 488), (988, 479), (995, 464), (998, 456), (1000, 450), (1003, 443), (1003, 438), (1004, 434), (1005, 431), (1005, 428), (1007, 419), (1008, 416), (1009, 410), (1012, 404), (1014, 392), (1014, 385), (1015, 376), (1017, 369), (1017, 357), (1017, 350), (1017, 340), (1017, 331), (1010, 307), (1006, 294), (1004, 283), (1000, 273), (998, 258), (996, 249), (995, 242), (994, 231), (991, 212), (990, 204), (989, 194), (988, 186), (984, 169), (984, 162), (983, 153), (983, 148), (982, 138)]",273.132465198568,"[3, 9, 1, 8, 7, 6, 4, 5, 2]","(0, 0.25)",CHN007D,CHN,D,English,Wed Aug 29 14:57:22 2018,Mouse
1,1,4,0,60,6,6,1,389,79,310,137,0,500,200,8000,"[(960, 540), (960, 540), (960, 540), (960, 540), (960, 540), (960, 540), (960, 540), (958, 540), (956, 539), (953, 538), (950, 533), (948, 532), (945, 531), (942, 528), (935, 523), (927, 518), (921, 512), (912, 504), (895, 490), (889, 485), (884, 480), (879, 476), (873, 470), (870, 465), (864, 456), (858, 449), (845, 432), (837, 423), (828, 413), (818, 404), (794, 386), (782, 377), (765, 364), (748, 352), (715, 325), (695, 312), (681, 300), (668, 290), (643, 267)]",220.73498950622314,"[3, 9, 1, 8, 7, 6, 4, 5, 2]","(0, 0.25)",CHN007D,CHN,D,English,Wed Aug 29 14:57:22 2018,Mouse
1,1,4,0,61,5,3,0,-1348,18,1330,136,0,500,200,8000,"[(962, 541), (963, 541), (963, 541), (965, 541), (966, 541), (966, 541), (969, 541), (969, 541), (970, 541), (972, 541), (975, 543), (977, 543), (979, 543), (980, 543), (986, 543), (990, 544), (995, 544), (1000, 544), (1012, 547), (1019, 547), (1023, 548), (1029, 548), (1038, 549), (1042, 549), (1043, 549), (1047, 549), (1053, 549), (1056, 550), (1059, 550), (1061, 550), (1065, 550), (1067, 550), (1068, 550), (1071, 550), (1076, 550), (1080, 550), (1086, 550), (1093, 550), (1106, 554), (1112, 555), (1117, 557), (1120, 558), (1123, 558), (1123, 558), (1123, 558), (1124, 558), (1124, 558), (1124, 558), (1124, 558), (1124, 558), (1124, 558), (1124, 558), (1124, 558), (1124, 558), (1124, 558), (1124, 558), (1125, 558), (1125, 558), (1126, 558), (1126, 557), (1126, 557), (1126, 556), (1126, 555), (1126, 554), (1126, 554), (1126, 554), (1126, 554), (1126, 554), (1126, 554), (1126, 553), (1126, 551), (1126, 551), (1126, 551), (1126, 550), (1127, 549), (1127, 549), (1127, 548), (1127, 548), (1129, 548), (1129, 548), (1129, 548), (1129, 548), (1129, 548), (1129, 548), (1129, 548), (1129, 548), (1129, 548), (1129, 548), (1129, 548), (1129, 548), (1129, 549), (1129, 549), (1129, 549), (1129, 550), (1129, 552), (1129, 554), (1129, 554), (1129, 554), (1129, 555), (1129, 555), (1129, 557), (1129, 557), (1129, 558), (1129, 560), (1129, 560), (1129, 561), (1129, 563), (1129, 563), (1129, 563), (1129, 564), (1129, 564), (1129, 564), (1129, 564), (1129, 564), (1135, 568), (1142, 572), (1150, 576), (1155, 580), (1163, 585), (1168, 588), (1171, 590), (1176, 594), (1191, 605), (1197, 609), (1206, 615), (1215, 620), (1238, 633), (1251, 640), (1268, 649), (1281, 657), (1302, 668), (1314, 674), (1324, 678), (1332, 682), (1351, 688)]",20.732487431886657,"[3, 9, 1, 8, 7, 6, 4, 5, 2]","(0, 0.25)",CHN007D,CHN,D,English,Wed Aug 29 14:57:22 2018,Mouse
1,1,4,0,62,4,4,1,350,20,330,137,0,500,200,8000,"[(957, 535), (955, 530), (951, 521), (950, 516), (948, 512), (948, 509), (948, 498), (947, 491), (943, 484), (941, 475), (937, 459), (935, 451), (932, 445), (930, 435), (925, 419), (921, 411), (919, 401), (916, 392), (908, 370), (903, 357), (899, 343), (892, 325), (877, 290), (872, 278), (868, 268), (864, 258), (859, 239), (856, 228), (853, 218), (853, 210), (853, 192), (853, 184), (853, 175), (854, 166), (857, 149)]",255.24201224452057,"[3, 9, 1, 8, 7, 6, 4, 5, 2]","(0, 0.25)",CHN007D,CHN,D,English,Wed Aug 29 14:57:22 2018,Mouse
1,1,4,0,63,1,4,0,-750,90,660,137,0,500,200,8000,"[(960, 540), (960, 540), (960, 540), (960, 540), (960, 540), (960, 540), (960, 540), (960, 540), (961, 541), (961, 541), (961, 542), (960, 543), (960, 544), (959, 545), (956, 547), (955, 547), (954, 547), (954, 547), (953, 548), (951, 549), (951, 549), (951, 549), (950, 550), (949, 550), (948, 550), (948, 551), (948, 551), (948, 551), (948, 552), (948, 552), (947, 553), (946, 555), (946, 555), (945, 556), (944, 556), (943, 556), (942, 557), (942, 557), (942, 557), (941, 557), (940, 550), (937, 542), (935, 525), (933, 515), (933, 506), (933, 496), (933, 481), (934, 471), (934, 463), (934, 455), (934, 435), (934, 423), (934, 411), (934, 399), (932, 373), (932, 361), (932, 350), (937, 337), (942, 317), (945, 308), (948, 298), (950, 287), (956, 267), (959, 257), (960, 246), (963, 235), (968, 215), (970, 207), (971, 197), (971, 186), (973, 171), (973, 163), (973, 156), (973, 150), (973, 138)]",271.8522031140419,"[3, 9, 1, 8, 7, 6, 4, 5, 2]","(0, 0.25)",CHN007D,CHN,D,English,Wed Aug 29 14:57:22 2018,Mouse
1,1,4,0,64,8,8,1,550,19,531,138,0,500,200,8000,"[(960, 542), (959, 544), (959, 546), (959, 547), (959, 548), (959, 549), (959, 550), (959, 552), (959, 553), (959, 555), (959, 562), (959, 565), (957, 569), (956, 573), (955, 580), (953, 581), (952, 585), (952, 588), (948, 597), (944, 602), (942, 606), (937, 614), (929, 624), (923, 630), (919, 634), (911, 639), (902, 645), (897, 649), (891, 654), (883, 656), (866, 667), (857, 671), (847, 677), (837, 683), (817, 695), (808, 699), (801, 704), (793, 708), (777, 716), (768, 722), (757, 728), (747, 736), (729, 749), (723, 754), (716, 761), (709, 766), (701, 773), (698, 777), (693, 782), (690, 784), (683, 789), (677, 793), (670, 798), (664, 803), (649, 814)]",138.6190150584502,"[3, 9, 1, 8, 7, 6, 4, 5, 2]","(0, 0.25)",CHN007D,CHN,D,English,Wed Aug 29 14:57:22 2018,Mouse
1,1,4,0,65,7,7,1,620,20,600,138,0,500,200,8000,"[(961, 538), (963, 538), (966, 536), (968, 535), (970, 532), (973, 530), (976, 524), (978, 521), (981, 518), (985, 514), (988, 506), (988, 501), (989, 496), (990, 491), (990, 481), (990, 477), (990, 474), (990, 470), (990, 463), (990, 460), (989, 456), (987, 449), (983, 440), (978, 435), (974, 430), (969, 425), (959, 417), (954, 413), (949, 411), (943, 407), (931, 401), (923, 398), (911, 393), (900, 390), (867, 378), (852, 377), (834, 375), (819, 374), (792, 374), (780, 374), (766, 374), (756, 374), (734, 374), (721, 375), (710, 377), (698, 382), (673, 393), (663, 399), (653, 407), (644, 414), (630, 424), (625, 429), (622, 431), (619, 432), (610, 435), (607, 436), (604, 438), (598, 440), (589, 445), (582, 448), (576, 450), (569, 451)]",192.82326543880714,"[3, 9, 1, 8, 7, 6, 4, 5, 2]","(0, 0.25)",CHN007D,CHN,D,English,Wed Aug 29 14:57:22 2018,Mouse
1,1,4,0,66,7,7,1,399,19,380,137,0,500,200,8000,"[(960, 540), (960, 541), (960, 542), (958, 544), (956, 544), (953, 545), (951, 545), (948, 545), (946, 546), (942, 547), (939, 547), (924, 547), (915, 548), (902, 550), (891, 553), (868, 557), (858, 558), (847, 560), (838, 562), (823, 565), (816, 565), (808, 566), (799, 568), (778, 570), (768, 570), (755, 570), (743, 570), (721, 570), (709, 570), (697, 570), (685, 569), (660, 562), (647, 557), (636, 555), (623, 550), (605, 545), (591, 543), (579, 539), (567, 535), (546, 529)]",181.52199353766846,"[3, 9, 1, 8, 7, 6, 4, 5, 2]","(0, 0.25)",CHN007D,CHN,D,English,Wed Aug 29 14:57:22 2018,Mouse
1,1,4,0,67,4,4,1,469,19,450,136,0,500,200,8000,"[(962, 532), (964, 524), (970, 504), (972, 492), (975, 481), (978, 469), (986, 444), (989, 434), (992, 423), (994, 413), (998, 397), (1000, 390), (1003, 383), (1004, 376), (1005, 363), (1005, 359), (1007, 352), (1007, 346), (1009, 334), (1009, 330), (1010, 325), (1010, 320), (1010, 311), (1010, 305), (1007, 296), (1003, 289), (994, 273), (990, 265), (987, 259), (985, 252), (977, 236), (973, 226), (969, 220), (963, 211), (957, 196), (953, 189), (950, 184), (947, 179), (942, 171), (941, 168), (941, 167), (941, 164), (941, 158), (941, 155), (941, 151), (941, 147), (941, 140)]",267.2804945387275,"[3, 9, 1, 8, 7, 6, 4, 5, 2]","(0, 0.25)",CHN007D,CHN,D,English,Wed Aug 29 14:57:22 2018,Mouse
1,1,4,0,68,6,6,1,459,29,430,135,0,500,200,8000,"[(957, 544), (957, 544), (962, 551), (963, 552), (963, 553), (963, 553), (963, 553), (963, 553), (963, 553), (963, 553), (963, 553), (963, 553), (963, 553), (963, 553), (963, 553), (963, 553), (963, 553), (963, 553), (963, 553), (963, 553), (963, 553), (963, 553), (963, 553), (963, 553), (963, 553), (962, 552), (962, 527), (957, 511), (949, 499), (941, 483), (919, 435), (908, 412), (894, 389), (883, 373), (859, 345), (849, 337), (836, 330), (827, 322), (807, 311), (792, 304), (777, 297), (759, 290), (716, 276), (694, 270), (676, 263), (659, 258)]",223.13338826017855,"[3, 9, 1, 8, 7, 6, 4, 5, 2]","(0, 0.25)",CHN007D,CHN,D,English,Wed Aug 29 14:57:22 2018,Mouse
1,1,4,0,69,6,4,0,-1771,421,1350,134,0,500,200,8000,"[(960, 540), (960, 540), (960, 540), (960, 540), (960, 540), (960, 540), (960, 540), (960, 540), (960, 540), (960, 540), (960, 540), (960, 540), (960, 540), (960, 540), (960, 540), (960, 540), (960, 540), (960, 540), (960, 540), (960, 540), (960, 540), (960, 540), (960, 540), (960, 540), (960, 540), (960, 540), (960, 540), (960, 540), (960, 540), (960, 540), (960, 540), (960, 540), (960, 540), (960, 540), (960, 540), (960, 540), (960, 540), (960, 540), (960, 540), (960, 540), (960, 540), (960, 540), (959, 540), (959, 540), (959, 537), (959, 536), (959, 535), (959, 535), (959, 534), (959, 533), (959, 532), (959, 531), (959, 528), (959, 523), (959, 517), (959, 506), (961, 482), (962, 469), (966, 457), (967, 446), (968, 417), (968, 400), (968, 386), (968, 370), (968, 341), (968, 325), (968, 310), (968, 298), (968, 279), (965, 265), (963, 251), (962, 239), (954, 222), (954, 218), (953, 212), (952, 206), (947, 197), (945, 194), (943, 191), (943, 188), (940, 184), (940, 181), (940, 178), (939, 178), (939, 175), (939, 175), (939, 174), (939, 173), (939, 173), (939, 173), (939, 173), (939, 173), (939, 173), (939, 173), (939, 173), (939, 173), (939, 173), (939, 173), (939, 173), (939, 173), (939, 173), (939, 173), (939, 173), (939, 173), (939, 173), (939, 173), (939, 173), (939, 173), (939, 173), (939, 173), (939, 173), (939, 173), (939, 173), (939, 173), (939, 173), (939, 173), (941, 173), (941, 173), (941, 173), (941, 173), (941, 173), (942, 173), (942, 173), (942, 173), (942, 173), (943, 173), (943, 173), (943, 173), (945, 173), (945, 173), (946, 173), (946, 173), (948, 173), (949, 173), (949, 173), (950, 173), (952, 173), (952, 173), (954, 171), (954, 170), (956, 164), (957, 160), (957, 155), (957, 152), (957, 150), (957, 148), (957, 147), (957, 146), (957, 145), (957, 145), (957, 144), (957, 144), (957, 144), (957, 144), (957, 144), (957, 144), (957, 144), (957, 144), (957, 144), (957, 144), (957, 144), (957, 144), (957, 144), (957, 144), (957, 144), (957, 144), (957, 144), (957, 144), (957, 144), (957, 144), (957, 144), (957, 144), (958, 142), (958, 142), (958, 142), (959, 141), (959, 141), (960, 140)]",270.0,"[3, 9, 1, 8, 7, 6, 4, 5, 2]","(0, 0.25)",CHN007D,CHN,D,English,Wed Aug 29 14:57:22 2018,Mouse
1,1,4,0,70,2,2,1,290,60,230,135,0,500,200,8000,"[(960, 540), (960, 540), (960, 540), (960, 540), (960, 540), (962, 541), (967, 542), (971, 543), (974, 543), (984, 544), (991, 546), (998, 547), (1008, 547), (1029, 547), (1043, 547), (1059, 547), (1082, 547), (1121, 547), (1141, 547), (1156, 547), (1168, 547), (1195, 547), (1210, 547), (1225, 547), (1245, 542), (1291, 523), (1314, 514), (1338, 505), (1361, 494)]",353.4560211151639,"[3, 9, 1, 8, 7, 6, 4, 5, 2]","(0, 0.25)",CHN007D,CHN,D,English,Wed Aug 29 14:57:22 2018,Mouse
1,1,4,0,71,4,4,1,368,88,280,135,0,500,200,8000,"[(960, 540), (960, 540), (960, 540), (960, 540), (960, 540), (960, 540), (960, 540), (960, 540), (960, 539), (960, 536), (959, 532), (956, 525), (954, 521), (954, 518), (952, 515), (951, 510), (950, 507), (948, 503), (948, 502), (948, 495), (947, 489), (944, 480), (942, 473), (940, 463), (938, 455), (938, 445), (938, 433), (943, 409), (946, 396), (951, 378), (956, 357), (960, 310), (965, 278), (968, 246), (974, 208), (977, 146), (982, 122)]",273.01278750418334,"[3, 9, 1, 8, 7, 6, 4, 5, 2]","(0, 0.25)",CHN007D,CHN,D,English,Wed Aug 29 14:57:22 2018,Mouse
1,1,4,0,72,8,8,1,440,180,260,134,0,500,200,8000,"[(960, 540), (960, 540), (960, 540), (960, 540), (960, 540), (960, 540), (960, 540), (960, 540), (960, 540), (960, 540), (960, 540), (960, 540), (960, 540), (960, 540), (960, 540), (960, 540), (960, 540), (956, 544), (953, 547), (950, 551), (946, 555), (936, 562), (931, 567), (925, 571), (920, 574), (911, 575), (901, 581), (888, 588), (873, 593), (836, 615), (814, 627), (790, 640), (770, 654), (735, 682), (725, 690), (717, 700), (710, 709), (697, 728), (691, 738), (684, 747), (678, 756), (661, 776), (655, 788), (648, 799)]",140.3029777759947,"[3, 9, 1, 8, 7, 6, 4, 5, 2]","(0, 0.25)",CHN007D,CHN,D,English,Wed Aug 29 14:57:22 2018,Mouse
1,1,4,0,73,8,8,1,228,18,210,133,0,500,200,8000,"[(956, 540), (952, 540), (948, 540), (943, 541), (936, 541), (934, 542), (932, 542), (929, 542), (923, 546), (917, 551), (910, 554), (901, 559), (880, 574), (870, 585), (856, 599), (840, 619), (801, 668), (779, 692), (753, 716), (729, 739), (690, 773), (672, 791), (660, 806)]",138.4376649923652,"[3, 9, 1, 8, 7, 6, 4, 5, 2]","(0, 0.25)",CHN007D,CHN,D,English,Wed Aug 29 14:57:22 2018,Mouse
1,1,4,0,74,2,4,0,-410,90,320,132,0,500,200,8000,"[(960, 540), (960, 540), (960, 540), (960, 540), (960, 540), (960, 540), (960, 540), (960, 540), (960, 524), (960, 511), (960, 497), (957, 478), (956, 427), (956, 407), (956, 388), (956, 368), (951, 331), (947, 319), (944, 309), (942, 298), (936, 273), (934, 266), (933, 260), (933, 256), (933, 250), (933, 246), (933, 242), (933, 238), (933, 235), (932, 235), (932, 231), (932, 225), (932, 204), (932, 194), (932, 183), (932, 174), (932, 165), (932, 161), (932, 158), (932, 153), (929, 137)]",265.6012946450045,"[3, 9, 1, 8, 7, 6, 4, 5, 2]","(0, 0.25)",CHN007D,CHN,D,English,Wed Aug 29 14:57:22 2018,Mouse
1,1,4,0,75,9,5,0,-560,120,440,133,0,500,200,8000,"[(960, 540), (960, 540), (960, 540), (960, 540), (960, 540), (960, 540), (960, 540), (960, 540), (960, 540), (960, 540), (960, 540), (960, 541), (960, 541), (960, 541), (961, 541), (961, 542), (961, 542), (961, 542), (961, 542), (961, 542), (961, 542), (962, 544), (963, 544), (963, 544), (964, 544), (965, 544), (968, 544), (970, 544), (973, 544), (976, 542), (989, 530), (995, 525), (999, 519), (1007, 511), (1021, 496), (1029, 487), (1035, 478), (1040, 467), (1056, 447), (1063, 433), (1072, 421), (1079, 411), (1094, 392), (1103, 378), (1109, 367), (1119, 355), (1138, 332), (1148, 317), (1164, 301), (1171, 288), (1187, 263), (1190, 253), (1194, 245), (1195, 235), (1197, 222), (1197, 217)]",306.2692150262632,"[3, 9, 1, 8, 7, 6, 4, 5, 2]","(0, 0.25)",CHN007D,CHN,D,English,Wed Aug 29 14:57:22 2018,Mouse
1,1,4,0,76,9,6,0,-701,231,470,134,0,500,200,8000,"[(960, 540), (960, 540), (960, 540), (960, 540), (960, 540), (960, 540), (960, 540), (960, 540), (960, 540), (960, 540), (960, 540), (960, 540), (960, 540), (960, 540), (960, 540), (960, 540), (960, 540), (960, 540), (960, 540), (960, 540), (960, 540), (960, 540), (960, 540), (960, 541), (959, 542), (959, 542), (956, 543), (953, 543), (948, 543), (940, 543), (922, 542), (909, 538), (898, 534), (883, 528), (856, 510), (844, 502), (824, 485), (803, 465), (764, 421), (751, 404), (739, 384), (731, 373), (720, 353), (714, 343), (708, 334), (703, 325), (689, 309), (685, 302), (682, 299), (681, 297), (679, 292), (677, 289), (677, 288), (675, 285), (674, 285), (674, 284), (674, 284), (674, 284), (674, 284), (674, 283), (674, 283), (674, 283), (674, 283), (674, 283), (674, 282), (673, 281), (672, 279), (670, 278), (669, 274), (668, 274), (665, 269)]",222.57195149489084,"[3, 9, 1, 8, 7, 6, 4, 5, 2]","(0, 0.25)",CHN007D,CHN,D,English,Wed Aug 29 14:57:22 2018,Mouse
1,1,4,0,77,3,4,0,-1902,12,1890,135,0,500,200,8000,"[(960, 540), (958, 542), (956, 543), (953, 546), (948, 550), (944, 553), (941, 554), (941, 554), (941, 554), (941, 554), (941, 554), (941, 554), (941, 554), (940, 554), (940, 554), (940, 554), (940, 554), (939, 554), (939, 554), (939, 554), (938, 554), (938, 554), (938, 554), (938, 554), (938, 554), (938, 554), (938, 554), (938, 554), (938, 554), (940, 554), (944, 551), (949, 539), (951, 530), (952, 522), (954, 512), (956, 494), (958, 483), (959, 477), (959, 469), (961, 458), (961, 454), (961, 452), (962, 450), (965, 445), (965, 445), (967, 445), (968, 444), (970, 444), (971, 444), (976, 445), (981, 453), (996, 467), (1007, 477), (1021, 489), (1034, 496), (1069, 516), (1090, 524), (1108, 533), (1125, 540), (1147, 549), (1156, 551), (1164, 554), (1172, 558), (1186, 564), (1192, 566), (1198, 568), (1199, 570), (1200, 570), (1200, 570), (1200, 570), (1201, 570), (1201, 570), (1201, 570), (1202, 570), (1202, 570), (1202, 570), (1202, 570), (1203, 570), (1203, 570), (1204, 570), (1206, 572), (1209, 573), (1212, 573), (1216, 574), (1219, 576), (1219, 576), (1220, 576), (1220, 576), (1220, 576), (1220, 576), (1220, 576), (1220, 576), (1220, 576), (1220, 576), (1220, 576), (1223, 576), (1225, 576), (1226, 576), (1227, 576), (1231, 575), (1231, 574), (1232, 571), (1232, 569), (1232, 565), (1232, 563), (1232, 561), (1232, 559), (1232, 555), (1232, 552), (1229, 549), (1228, 545), (1223, 537), (1219, 532), (1212, 523), (1207, 515), (1190, 497), (1178, 485), (1162, 469), (1141, 452), (1092, 409), (1074, 392), (1059, 374), (1050, 365), (1031, 343), (1022, 331), (1015, 321), (1007, 311), (992, 289), (985, 280), (979, 271), (975, 262), (968, 247), (964, 240), (962, 232), (960, 226), (959, 217), (959, 213), (958, 209), (958, 208), (957, 204), (956, 202), (955, 200), (954, 197), (951, 192), (950, 190), (948, 187), (946, 185), (943, 178), (942, 177), (941, 175), (939, 170), (935, 164), (932, 159), (931, 157), (930, 155), (927, 152), (927, 151), (925, 149), (924, 148), (923, 147), (923, 146), (923, 146), (923, 146), (923, 146), (923, 146), (923, 146), (923, 146), (923, 146), (923, 146), (923, 146), (923, 146), (923, 146), (923, 146), (923, 146), (923, 146), (923, 146), (923, 146), (923, 146), (923, 146), (923, 146), (923, 146), (923, 146), (923, 145), (923, 143), (923, 143), (923, 143), (923, 143), (923, 142), (923, 142), (923, 142), (923, 141)]",264.70200901885,"[3, 9, 1, 8, 7, 6, 4, 5, 2]","(0, 0.25)",CHN007D,CHN,D,English,Wed Aug 29 14:57:22 2018,Mouse
1,1,4,0,78,2,3,0,-540,20,520,136,0,500,200,8000,"[(960, 540), (961, 540), (961, 540), (964, 540), (967, 540), (970, 540), (972, 540), (984, 540), (992, 542), (1000, 543), (1007, 544), (1021, 547), (1027, 547), (1034, 547), (1041, 547), (1050, 547), (1055, 547), (1058, 547), (1061, 547), (1065, 547), (1067, 547), (1069, 547), (1073, 546), (1082, 543), (1085, 543), (1092, 542), (1100, 540), (1114, 536), (1122, 533), (1129, 531), (1136, 529), (1149, 524), (1152, 523), (1156, 522), (1160, 522), (1170, 520), (1177, 520), (1184, 520), (1191, 520), (1202, 521), (1208, 522), (1212, 525), (1217, 529), (1223, 535), (1227, 543), (1233, 550), (1242, 563), (1263, 599), (1274, 620), (1282, 638), (1291, 659), (1310, 696), (1315, 706), (1320, 715)]",25.924901507554456,"[3, 9, 1, 8, 7, 6, 4, 5, 2]","(0, 0.25)",CHN007D,CHN,D,English,Wed Aug 29 14:57:22 2018,Mouse
1,1,4,0,79,6,6,1,328,18,310,137,0,500,200,8000,"[(958, 540), (956, 537), (952, 534), (947, 529), (942, 523), (939, 520), (936, 519), (932, 515), (925, 510), (921, 508), (919, 506), (914, 502), (900, 491), (893, 486), (879, 477), (870, 469), (854, 459), (847, 455), (843, 453), (840, 451), (830, 446), (825, 442), (818, 438), (807, 431), (771, 406), (757, 395), (731, 375), (713, 358), (690, 339), (681, 330), (674, 322), (668, 313), (646, 287)]",218.8595216263673,"[3, 9, 1, 8, 7, 6, 4, 5, 2]","(0, 0.25)",CHN007D,CHN,D,English,Wed Aug 29 14:57:22 2018,Mouse
1,1,4,0,80,6,6,1,311,51,260,137,0,500,200,8000,"[(960, 540), (960, 540), (960, 540), (960, 540), (960, 540), (958, 539), (953, 535), (942, 528), (934, 523), (927, 517), (922, 512), (911, 503), (906, 498), (902, 493), (895, 482), (874, 449), (863, 430), (849, 410), (832, 392), (803, 363), (791, 352), (774, 340), (764, 333), (743, 318), (736, 311), (725, 303), (719, 297), (705, 285), (699, 280), (693, 275), (686, 270), (674, 259)]",224.49475930850573,"[3, 9, 1, 8, 7, 6, 4, 5, 2]","(0, 0.25)",CHN007D,CHN,D,English,Wed Aug 29 14:57:22 2018,Mouse
1,1,4,0,81,2,4,0,-608,178,430,136,0,500,200,8000,"[(960, 540), (960, 540), (960, 540), (960, 540), (960, 540), (960, 540), (960, 540), (960, 540), (960, 540), (960, 540), (960, 540), (960, 540), (960, 540), (960, 540), (960, 540), (960, 540), (960, 540), (961, 544), (968, 554), (972, 556), (972, 557), (972, 557), (972, 557), (972, 557), (972, 557), (972, 557), (972, 557), (972, 557), (972, 557), (972, 557), (972, 557), (972, 557), (972, 557), (972, 557), (969, 547), (964, 538), (959, 526), (950, 509), (926, 454), (915, 428), (902, 394), (896, 369), (887, 338), (885, 330), (883, 324), (882, 314), (882, 287), (882, 274), (882, 263), (884, 255), (891, 240), (893, 231), (896, 224), (900, 215), (908, 196), (912, 188), (915, 180), (918, 169), (920, 149), (920, 143), (920, 139)]",264.3035539682655,"[3, 9, 1, 8, 7, 6, 4, 5, 2]","(0, 0.25)",CHN007D,CHN,D,English,Wed Aug 29 14:57:22 2018,Mouse
1,1,4,0,82,9,6,0,-330,40,290,137,0,500,200,8000,"[(960, 540), (960, 540), (960, 540), (959, 540), (952, 537), (946, 532), (940, 528), (933, 523), (917, 509), (906, 497), (894, 482), (881, 469), (855, 450), (839, 441), (828, 435), (816, 428), (791, 406), (779, 394), (771, 387), (763, 378), (750, 364), (744, 359), (738, 353), (732, 348), (720, 338), (714, 333), (706, 325), (699, 319), (687, 307), (678, 295), (671, 286), (665, 279), (656, 269)]",221.7153236318801,"[3, 9, 1, 8, 7, 6, 4, 5, 2]","(0, 0.25)",CHN007D,CHN,D,English,Wed Aug 29 14:57:22 2018,Mouse
1,1,4,0,83,9,9,1,601,11,590,138,0,500,200,8000,"[(960, 540), (961, 541), (961, 541), (962, 543), (962, 543), (962, 543), (963, 543), (963, 543), (963, 544), (964, 545), (965, 547), (965, 547), (966, 548), (966, 549), (967, 550), (969, 553), (970, 553), (971, 555), (973, 558), (978, 564), (980, 568), (984, 573), (989, 579), (998, 593), (1003, 600), (1010, 613), (1014, 624), (1024, 648), (1029, 661), (1038, 674), (1043, 684), (1052, 699), (1055, 707), (1057, 712), (1059, 718), (1062, 731), (1064, 739), (1066, 750), (1069, 761), (1075, 786), (1078, 800), (1083, 812), (1086, 826), (1093, 846), (1095, 856), (1097, 864), (1099, 870), (1102, 878), (1103, 882), (1104, 888), (1106, 891), (1108, 896), (1109, 897), (1109, 897), (1109, 897), (1110, 900), (1110, 900), (1112, 902), (1112, 902), (1115, 908), (1119, 913)]",66.91273534272017,"[3, 9, 1, 8, 7, 6, 4, 5, 2]","(0, 0.25)",CHN007D,CHN,D,English,Wed Aug 29 14:57:22 2018,Mouse
1,1,4,0,84,5,5,1,539,19,520,138,0,500,200,8000,"[(960, 537), (959, 533), (959, 530), (959, 527), (959, 522), (962, 509), (965, 502), (968, 498), (972, 492), (976, 487), (979, 481), (981, 478), (986, 470), (995, 453), (1000, 442), (1003, 429), (1008, 418), (1013, 397), (1015, 390), (1017, 384), (1018, 378), (1019, 367), (1021, 361), (1022, 354), (1024, 347), (1028, 328), (1029, 319), (1032, 310), (1033, 301), (1037, 289), (1040, 283), (1043, 279), (1045, 274), (1051, 269), (1053, 267), (1057, 263), (1061, 260), (1066, 251), (1069, 249), (1073, 243), (1078, 236), (1085, 225), (1090, 219), (1093, 216), (1097, 211), (1104, 204), (1107, 202), (1110, 200), (1112, 198), (1116, 192), (1117, 189), (1120, 185), (1121, 182), (1125, 174)]",294.2667884325332,"[3, 9, 1, 8, 7, 6, 4, 5, 2]","(0, 0.25)",CHN007D,CHN,D,English,Wed Aug 29 14:57:22 2018,Mouse
1,1,4,0,85,7,7,1,631,131,500,137,0,500,200,8000,"[(960, 540), (960, 540), (960, 540), (960, 540), (960, 540), (960, 540), (960, 540), (960, 540), (960, 540), (960, 540), (960, 540), (960, 540), (960, 540), (959, 540), (959, 541), (957, 541), (954, 541), (953, 541), (948, 543), (935, 545), (927, 545), (916, 545), (905, 548), (886, 549), (879, 549), (871, 552), (865, 552), (855, 555), (849, 556), (845, 559), (838, 563), (821, 571), (811, 575), (798, 581), (785, 586), (759, 595), (748, 598), (739, 598), (730, 598), (713, 598), (705, 598), (698, 597), (691, 596), (684, 593), (680, 592), (675, 591), (672, 589), (661, 584), (654, 581), (648, 577), (642, 575), (630, 569), (626, 568), (623, 566), (619, 563), (612, 559), (609, 557), (604, 554), (596, 550), (581, 545), (575, 543), (571, 541), (566, 540), (558, 538)]",180.28505127758382,"[3, 9, 1, 8, 7, 6, 4, 5, 2]","(0, 0.25)",CHN007D,CHN,D,English,Wed Aug 29 14:57:22 2018,Mouse
1,1,4,0,86,9,9,1,589,19,570,136,0,500,200,8000,"[(965, 542), (966, 543), (969, 545), (971, 546), (973, 548), (976, 549), (984, 556), (989, 560), (996, 565), (1001, 568), (1012, 577), (1016, 580), (1022, 586), (1027, 590), (1039, 602), (1044, 607), (1051, 616), (1059, 626), (1076, 648), (1083, 658), (1088, 667), (1094, 675), (1102, 691), (1104, 697), (1107, 702), (1110, 709), (1120, 728), (1125, 738), (1129, 748), (1132, 758), (1141, 778), (1145, 787), (1147, 792), (1148, 797), (1151, 802), (1153, 805), (1153, 808), (1153, 811), (1154, 815), (1154, 818), (1155, 821), (1155, 824), (1156, 828), (1156, 831), (1156, 833), (1156, 835), (1158, 840), (1158, 842), (1158, 844), (1159, 846), (1159, 847), (1159, 849), (1160, 850), (1160, 850), (1163, 857), (1166, 862), (1170, 868), (1174, 871), (1181, 882)]",57.12950284565339,"[3, 9, 1, 8, 7, 6, 4, 5, 2]","(0, 0.25)",CHN007D,CHN,D,English,Wed Aug 29 14:57:22 2018,Mouse
1,1,4,0,87,5,5,1,549,19,530,135,0,500,200,8000,"[(960, 540), (960, 538), (960, 538), (960, 537), (959, 536), (959, 536), (959, 534), (959, 533), (959, 533), (959, 533), (959, 530), (959, 530), (959, 528), (959, 526), (959, 519), (959, 515), (959, 511), (959, 507), (960, 500), (961, 498), (961, 496), (962, 494), (962, 489), (962, 487), (965, 482), (966, 475), (973, 450), (975, 437), (978, 419), (979, 399), (986, 359), (988, 347), (990, 335), (995, 325), (1005, 305), (1010, 297), (1015, 287), (1019, 280), (1029, 263), (1034, 254), (1038, 247), (1043, 238), (1052, 227), (1058, 222), (1064, 217), (1070, 213), (1085, 205), (1091, 201), (1099, 196), (1104, 195), (1113, 187), (1116, 185), (1120, 182), (1124, 178), (1128, 174)]",294.6558987440816,"[3, 9, 1, 8, 7, 6, 4, 5, 2]","(0, 0.25)",CHN007D,CHN,D,English,Wed Aug 29 14:57:22 2018,Mouse
1,1,4,0,88,4,4,1,511,11,500,134,0,500,200,8000,"[(960, 540), (959, 540), (959, 541), (958, 544), (957, 545), (957, 545), (957, 546), (956, 547), (956, 547), (953, 549), (953, 550), (952, 550), (951, 550), (951, 550), (949, 550), (945, 550), (941, 550), (938, 548), (936, 546), (930, 540), (926, 536), (925, 532), (922, 528), (917, 517), (917, 513), (916, 507), (916, 500), (916, 478), (916, 466), (916, 453), (916, 440), (916, 423), (916, 412), (916, 401), (915, 391), (912, 374), (909, 363), (907, 351), (904, 335), (898, 308), (896, 294), (893, 278), (892, 265), (890, 242), (889, 232), (888, 222), (885, 211), (881, 195), (878, 186), (877, 175), (876, 168), (876, 148)]",257.9052429229879,"[3, 9, 1, 8, 7, 6, 4, 5, 2]","(0, 0.25)",CHN007D,CHN,D,English,Wed Aug 29 14:57:22 2018,Mouse
1,1,4,0,89,7,7,1,501,41,460,133,0,500,200,8000,"[(960, 540), (960, 540), (960, 540), (960, 540), (960, 541), (960, 541), (960, 541), (960, 541), (960, 541), (960, 542), (960, 542), (960, 543), (960, 543), (960, 543), (960, 543), (960, 543), (960, 543), (960, 543), (960, 545), (960, 545), (960, 546), (959, 547), (959, 547), (958, 548), (958, 549), (957, 550), (956, 550), (955, 552), (953, 552), (949, 554), (945, 554), (936, 558), (927, 559), (919, 560), (909, 560), (887, 558), (875, 556), (859, 551), (844, 546), (800, 535), (775, 527), (752, 519), (732, 512), (695, 501), (678, 496), (659, 492), (645, 488), (616, 484), (598, 481), (577, 477), (556, 475)]",189.14005123413284,"[3, 9, 1, 8, 7, 6, 4, 5, 2]","(0, 0.25)",CHN007D,CHN,D,English,Wed Aug 29 14:57:22 2018,Mouse
1,1,4,0,90,1,9,0,-1120,40,1080,132,0,500,200,8000,"[(960, 540), (960, 540), (960, 540), (961, 540), (961, 540), (961, 540), (961, 540), (961, 540), (961, 540), (961, 540), (963, 540), (963, 540), (963, 540), (963, 540), (963, 540), (963, 540), (963, 540), (963, 540), (963, 540), (963, 540), (964, 541), (964, 541), (964, 541), (964, 541), (964, 541), (964, 541), (966, 541), (966, 541), (966, 541), (966, 541), (966, 541), (966, 541), (966, 541), (966, 541), (966, 541), (966, 541), (966, 541), (966, 541), (966, 541), (966, 541), (966, 541), (966, 541), (966, 541), (967, 540), (967, 538), (967, 536), (966, 533), (963, 526), (961, 523), (961, 520), (958, 517), (957, 514), (957, 514), (956, 513), (956, 511), (956, 510), (956, 509), (956, 508), (956, 508), (956, 505), (956, 504), (956, 503), (956, 502), (956, 500), (956, 498), (956, 497), (957, 497), (959, 494), (961, 492), (963, 490), (965, 489), (969, 487), (969, 487), (970, 487), (971, 487), (972, 487), (972, 487), (973, 487), (974, 487), (979, 491), (980, 497), (982, 507), (985, 518), (991, 553), (994, 579), (998, 601), (1001, 624), (1004, 650), (1005, 663), (1010, 675), (1012, 684), (1022, 704), (1024, 712), (1030, 722), (1038, 733), (1050, 754), (1056, 764), (1063, 776), (1070, 787), (1084, 811), (1089, 822), (1096, 833), (1102, 842), (1113, 860), (1118, 866), (1124, 872), (1132, 878), (1141, 882), (1146, 884), (1148, 886), (1152, 887), (1162, 891)]",60.07963447531939,"[3, 9, 1, 8, 7, 6, 4, 5, 2]","(0, 0.25)",CHN007D,CHN,D,English,Wed Aug 29 14:57:22 2018,Mouse
1,1,4,0,91,2,4,0,-470,290,180,133,0,500,200,8000,"[(960, 540), (960, 540), (960, 540), (960, 540), (960, 540), (960, 540), (960, 540), (960, 540), (960, 540), (960, 540), (960, 540), (960, 540), (960, 540), (960, 540), (960, 540), (960, 540), (960, 540), (960, 540), (960, 540), (960, 540), (960, 540), (960, 540), (960, 540), (960, 540), (960, 540), (960, 540), (960, 540), (960, 540), (960, 538), (960, 534), (959, 524), (955, 516), (950, 505), (943, 485), (907, 420), (889, 387), (868, 351), (852, 314), (826, 256), (820, 241), (818, 231), (818, 221), (815, 205), (815, 195), (815, 188), (815, 180), (815, 166)]",248.80866140562958,"[3, 9, 1, 8, 7, 6, 4, 5, 2]","(0, 0.25)",CHN007D,CHN,D,English,Wed Aug 29 14:57:22 2018,Mouse
