NativeLangNumber,LanuageNumber,SessionNumber,Block,TrialNum,ConditionNumber,Response,Accuracy,RT,MovementOnsetTime,TimeInMotion,SignalContrast,SignalContrastNumber,StimDisplayTime,MaskTime,MaxResponseTime,MousePositionXY,MouseAngle,WheelOrder,NoiseMuSigma,ParticipantID,LanuageTested,SessionTested,NativeLanuage,Date,ResponseDevice
1,1,3,0,1,5,5,1,2539,2180,359,153,0,500,200,8000,"[(960, 540), (960, 540), (960, 540), (960, 540), (960, 540), (960, 540), (960, 540), (960, 540), (960, 540), (960, 540), (960, 540), (960, 540), (960, 540), (960, 540), (960, 540), (960, 540), (960, 540), (960, 540), (960, 540), (960, 540), (960, 540), (960, 540), (960, 540), (960, 540), (960, 540), (960, 540), (960, 540), (960, 540), (960, 540), (960, 540), (960, 540), (960, 540), (960, 540), (960, 540), (960, 540), (960, 540), (960, 540), (960, 540), (960, 540), (960, 540), (960, 540), (960, 540), (960, 540), (960, 540), (960, 540), (960, 540), (960, 540), (960, 540), (960, 540), (960, 540), (960, 540), (960, 540), (960, 540), (960, 540), (960, 540), (960, 540), (960, 540), (960, 540), (960, 540), (960, 540), (960, 540), (960, 540), (960, 540), (960, 540), (960, 540), (960, 540), (960, 540), (960, 540), (960, 540), (960, 540), (960, 540), (960, 540), (960, 540), (960, 540), (960, 540), (960, 540), (960, 540), (960, 540), (960, 540), (960, 540), (960, 540), (960, 540), (960, 540), (960, 540), (960, 540), (960, 540), (960, 540), (960, 540), (960, 540), (960, 540), (960, 540), (960, 540), (960, 540), (960, 540), (960, 540), (960, 540), (960, 540), (960, 540), (960, 540), (960, 540), (960, 540), (960, 540), (960, 540), (960, 540), (960, 540), (960, 540), (960, 540), (960, 540), (960, 540), (960, 540), (960, 540), (960, 540), (960, 540), (960, 540), (960, 540), (960, 540), (960, 540), (960, 540), (960, 540), (960, 540), (960, 540), (960, 540), (960, 540), (960, 540), (960, 540), (960, 540), (960, 540), (960, 540), (960, 540), (960, 540), (960, 540), (960, 540), (960, 540), (960, 540), (960, 540), (960, 540), (960, 540), (960, 540), (960, 540), (960, 540), (960, 540), (960, 540), (960, 540), (960, 540), (960, 540), (960, 540), (960, 540), (960, 540), (960, 540), (960, 540), (960, 540), (960, 540), (960, 540), (960, 540), (960, 540), (960, 540), (960, 540), (960, 540), (960, 540), (960, 540), (960, 540), (960, 540), (960, 540), (960, 540), (960, 540), (960, 540), (960, 540), (960, 540), (960, 540), (960, 540), (960, 540), (960, 540), (960, 540), (960, 540), (960, 540), (960, 540), (960, 540), (960, 540), (960, 540), (960, 540), (960, 540), (960, 540), (960, 540), (960, 540), (960, 540), (960, 540), (960, 540), (960, 540), (960, 540), (960, 540), (960, 540), (960, 540), (960, 540), (960, 540), (960, 540), (960, 540), (960, 540), (960, 540), (960, 540), (960, 540), (960, 540), (960, 540), (960, 540), (960, 540), (960, 540), (960, 540), (960, 540), (960, 540), (960, 540), (960, 540), (960, 540), (960, 540), (960, 540), (960, 540), (960, 540), (960, 540), (960, 540), (958, 542), (956, 545), (955, 548), (955, 553), (951, 564), (950, 569), (950, 575), (950, 581), (947, 602), (947, 617), (946, 631), (944, 650), (930, 698), (922, 720), (917, 740), (912, 754), (904, 782), (900, 796), (899, 808), (898, 819), (897, 836), (895, 842), (895, 847), (895, 851), (895, 857), (895, 861), (895, 862), (895, 865), (894, 871), (894, 876), (894, 879), (894, 883), (894, 894), (894, 899), (893, 908), (893, 916), (889, 942)]",100.01611032210666,"[4, 8, 5, 9, 2, 7, 3, 1, 6]","(0, 0.25)",CHN011C,CHN,C,English,Tue Sep 04 11:29:10 2018,Mouse
1,1,3,0,2,1,1,1,440,20,420,153,0,500,200,8000,"[(960, 539), (960, 538), (960, 536), (960, 535), (960, 535), (960, 535), (960, 535), (960, 535), (960, 535), (960, 535), (960, 535), (960, 535), (960, 535), (960, 535), (960, 535), (960, 534), (961, 532), (961, 531), (963, 526), (964, 523), (966, 520), (968, 515), (974, 500), (979, 492), (981, 484), (986, 476), (997, 457), (1004, 445), (1011, 436), (1018, 426), (1030, 409), (1039, 398), (1046, 385), (1052, 373), (1065, 347), (1072, 332), (1080, 316), (1087, 299), (1101, 261), (1106, 244), (1111, 227), (1116, 210), (1123, 182), (1126, 169)]",294.10562077654214,"[4, 8, 5, 9, 2, 7, 3, 1, 6]","(0, 0.25)",CHN011C,CHN,C,English,Tue Sep 04 11:29:10 2018,Mouse
1,1,3,0,3,3,3,1,1600,1410,190,152,0,500,200,8000,"[(960, 540), (960, 540), (960, 540), (960, 540), (960, 540), (960, 540), (960, 540), (960, 540), (960, 540), (960, 540), (960, 540), (960, 540), (960, 540), (960, 540), (960, 540), (960, 540), (960, 540), (960, 540), (960, 540), (960, 540), (960, 540), (960, 540), (960, 540), (960, 540), (960, 540), (960, 540), (960, 540), (960, 540), (960, 540), (960, 540), (960, 540), (960, 540), (960, 540), (960, 540), (960, 540), (960, 540), (960, 540), (960, 540), (960, 540), (960, 540), (960, 540), (960, 540), (960, 540), (960, 540), (960, 540), (960, 540), (960, 540), (960, 540), (960, 540), (960, 540), (960, 540), (960, 540), (960, 540), (960, 540), (960, 540), (960, 540), (960, 540), (960, 540), (960, 540), (960, 540), (960, 540), (960, 540), (960, 540), (960, 540), (960, 540), (960, 540), (960, 540), (960, 540), (960, 540), (960, 540), (960, 540), (960, 540), (960, 540), (960, 540), (960, 540), (960, 540), (960, 540), (960, 540), (960, 540), (960, 540), (960, 540), (960, 540), (960, 540), (960, 540), (960, 540), (960, 540), (960, 540), (960, 540), (960, 540), (960, 540), (960, 540), (960, 540), (960, 540), (960, 540), (960, 540), (960, 540), (960, 540), (960, 540), (960, 540), (960, 540), (960, 540), (960, 540), (960, 540), (960, 540), (960, 540), (960, 540), (960, 540), (960, 540), (960, 540), (960, 540), (960, 540), (960, 540), (960, 540), (960, 540), (960, 540), (960, 540), (960, 540), (960, 540), (960, 540), (960, 540), (960, 540), (960, 540), (960, 540), (960, 540), (960, 540), (960, 540), (960, 540), (960, 540), (960, 540), (960, 540), (960, 540), (960, 540), (960, 540), (960, 540), (960, 540), (960, 540), (960, 540), (960, 540), (960, 540), (960, 540), (960, 539), (961, 522), (962, 511), (964, 497), (965, 485), (970, 462), (970, 449), (970, 439), (970, 428), (970, 406), (970, 391), (969, 376), (967, 357), (961, 312), (956, 285), (953, 256), (948, 232), (944, 182), (944, 157), (944, 132)]",267.75425743410494,"[4, 8, 5, 9, 2, 7, 3, 1, 6]","(0, 0.25)",CHN011C,CHN,C,English,Tue Sep 04 11:29:10 2018,Mouse
1,1,3,0,4,7,7,1,2201,1871,330,151,0,500,200,8000,"[(960, 540), (960, 540), (960, 540), (960, 540), (960, 540), (960, 540), (960, 540), (960, 540), (960, 540), (960, 540), (960, 540), (960, 540), (960, 540), (960, 540), (960, 540), (960, 540), (960, 540), (960, 540), (960, 540), (960, 540), (960, 540), (960, 540), (960, 540), (960, 540), (960, 540), (960, 540), (960, 540), (960, 540), (960, 540), (960, 540), (960, 540), (960, 540), (960, 540), (960, 540), (960, 540), (960, 540), (960, 540), (960, 540), (960, 540), (960, 540), (960, 540), (960, 540), (960, 540), (960, 540), (960, 540), (960, 540), (960, 540), (960, 540), (960, 540), (960, 540), (960, 540), (960, 540), (960, 540), (960, 540), (960, 540), (960, 540), (960, 540), (960, 540), (960, 540), (960, 540), (960, 540), (960, 540), (960, 540), (960, 540), (960, 540), (960, 540), (960, 540), (960, 540), (960, 540), (960, 540), (960, 540), (960, 540), (960, 540), (960, 540), (960, 540), (960, 540), (960, 540), (960, 540), (960, 540), (960, 540), (960, 540), (960, 540), (960, 540), (960, 540), (960, 540), (960, 540), (960, 540), (960, 540), (960, 540), (960, 540), (960, 540), (960, 540), (960, 540), (960, 540), (960, 540), (960, 540), (960, 540), (960, 540), (960, 540), (960, 540), (960, 540), (960, 540), (960, 540), (960, 540), (960, 540), (960, 540), (960, 540), (960, 540), (960, 540), (960, 540), (960, 540), (960, 540), (960, 540), (960, 540), (960, 540), (960, 540), (960, 540), (960, 540), (960, 540), (960, 540), (960, 540), (960, 540), (960, 540), (960, 540), (960, 540), (960, 540), (960, 540), (960, 540), (960, 540), (960, 540), (960, 540), (960, 540), (960, 540), (960, 540), (960, 540), (960, 540), (960, 540), (960, 540), (960, 540), (960, 540), (960, 540), (960, 540), (960, 540), (960, 540), (960, 540), (960, 540), (960, 540), (960, 540), (960, 540), (960, 540), (960, 540), (960, 540), (960, 540), (960, 540), (960, 540), (960, 540), (960, 540), (960, 540), (960, 540), (960, 540), (960, 540), (960, 540), (960, 540), (960, 540), (960, 540), (960, 540), (960, 540), (960, 540), (960, 540), (960, 540), (960, 540), (960, 540), (960, 540), (960, 540), (960, 540), (960, 540), (960, 540), (960, 540), (960, 540), (960, 540), (960, 540), (960, 540), (960, 540), (960, 540), (960, 540), (960, 540), (959, 540), (956, 540), (947, 536), (944, 532), (939, 527), (934, 523), (926, 515), (924, 511), (921, 507), (915, 500), (908, 489), (905, 486), (898, 478), (890, 470), (875, 456), (866, 449), (857, 444), (847, 437), (831, 424), (823, 420), (816, 413), (808, 408), (791, 396), (783, 390), (774, 384), (764, 374), (742, 356), (730, 345), (718, 337), (706, 326), (684, 308), (670, 297), (658, 287), (649, 281)]",219.78744525309983,"[4, 8, 5, 9, 2, 7, 3, 1, 6]","(0, 0.25)",CHN011C,CHN,C,English,Tue Sep 04 11:29:10 2018,Mouse
1,1,3,0,5,4,4,1,1390,30,1360,150,0,500,200,8000,"[(958, 540), (958, 540), (956, 540), (953, 540), (951, 540), (949, 540), (949, 540), (947, 540), (947, 540), (946, 539), (946, 539), (946, 539), (946, 538), (946, 538), (946, 538), (946, 538), (946, 538), (946, 538), (946, 538), (946, 537), (946, 537), (946, 537), (946, 537), (946, 537), (946, 537), (945, 537), (945, 537), (943, 539), (942, 540), (940, 543), (938, 545), (937, 546), (936, 548), (936, 549), (936, 549), (936, 549), (936, 549), (936, 549), (936, 549), (936, 549), (936, 549), (936, 549), (936, 549), (936, 549), (936, 549), (936, 549), (936, 549), (936, 549), (936, 549), (936, 549), (934, 549), (934, 549), (934, 549), (934, 549), (934, 549), (934, 549), (934, 549), (934, 549), (934, 549), (934, 549), (934, 549), (934, 549), (934, 549), (934, 549), (934, 549), (934, 549), (934, 549), (934, 549), (934, 549), (934, 549), (934, 549), (934, 549), (934, 549), (934, 549), (934, 549), (934, 549), (934, 549), (934, 549), (934, 548), (934, 546), (934, 545), (933, 543), (933, 542), (933, 539), (933, 539), (933, 537), (933, 536), (933, 534), (933, 532), (933, 531), (933, 531), (935, 527), (937, 526), (937, 526), (939, 525), (941, 524), (941, 524), (941, 524), (941, 524), (941, 524), (941, 524), (942, 524), (943, 524), (943, 525), (943, 525), (943, 525), (943, 525), (944, 525), (944, 525), (944, 525), (945, 525), (946, 525), (946, 525), (946, 525), (946, 525), (949, 526), (952, 528), (955, 530), (963, 535), (982, 547), (997, 555), (1013, 565), (1032, 575), (1078, 600), (1110, 616), (1137, 630), (1152, 636), (1195, 653), (1210, 657), (1222, 662), (1233, 664), (1254, 670), (1263, 673), (1273, 675), (1284, 677), (1303, 681), (1316, 685), (1329, 689), (1344, 692)]",21.595310448967687,"[4, 8, 5, 9, 2, 7, 3, 1, 6]","(0, 0.25)",CHN011C,CHN,C,English,Tue Sep 04 11:29:10 2018,Mouse
1,1,3,0,6,5,5,1,1868,268,1600,149,0,500,200,8000,"[(960, 540), (960, 540), (960, 540), (960, 540), (960, 540), (960, 540), (960, 540), (960, 540), (960, 540), (960, 540), (960, 540), (960, 540), (960, 540), (960, 540), (960, 540), (960, 540), (960, 540), (960, 540), (960, 540), (960, 540), (960, 540), (960, 540), (960, 540), (960, 540), (960, 540), (960, 540), (958, 540), (958, 540), (958, 540), (958, 540), (958, 540), (958, 540), (958, 540), (958, 541), (958, 541), (958, 541), (958, 541), (958, 542), (958, 542), (958, 542), (958, 542), (958, 542), (958, 542), (958, 542), (958, 542), (958, 542), (958, 542), (958, 542), (958, 542), (958, 542), (958, 543), (958, 543), (958, 543), (958, 544), (958, 544), (958, 544), (958, 544), (958, 544), (958, 544), (958, 544), (958, 544), (958, 544), (958, 544), (958, 544), (958, 544), (958, 544), (958, 544), (958, 544), (958, 544), (958, 544), (958, 544), (958, 544), (958, 544), (958, 544), (958, 544), (958, 544), (958, 544), (958, 544), (958, 544), (958, 544), (958, 544), (958, 544), (958, 544), (958, 544), (958, 544), (958, 544), (958, 544), (958, 544), (958, 544), (958, 544), (958, 545), (958, 545), (958, 545), (958, 545), (958, 545), (958, 545), (958, 546), (958, 546), (958, 546), (958, 547), (958, 547), (957, 548), (957, 549), (957, 549), (957, 551), (957, 551), (957, 551), (957, 551), (957, 551), (957, 551), (957, 551), (957, 551), (957, 551), (957, 551), (957, 552), (957, 552), (957, 552), (957, 552), (957, 552), (957, 553), (957, 553), (956, 554), (956, 554), (956, 554), (956, 554), (956, 554), (956, 554), (956, 554), (956, 554), (956, 554), (956, 554), (956, 554), (955, 554), (955, 554), (955, 555), (955, 555), (955, 555), (955, 555), (955, 555), (955, 555), (955, 556), (955, 556), (955, 556), (955, 557), (955, 557), (954, 557), (954, 558), (953, 560), (953, 560), (953, 561), (953, 563), (953, 564), (951, 566), (951, 566), (951, 568), (950, 575), (949, 579), (946, 585), (945, 592), (940, 604), (940, 609), (937, 616), (936, 622), (934, 633), (934, 640), (932, 650), (932, 661), (932, 688), (932, 703), (932, 716), (932, 730), (932, 757), (929, 772), (929, 786), (929, 799), (929, 825), (929, 839), (929, 849), (929, 860), (931, 884), (932, 892), (934, 900), (936, 910), (938, 924), (939, 931), (939, 936), (941, 942)]",92.7059957437779,"[4, 8, 5, 9, 2, 7, 3, 1, 6]","(0, 0.25)",CHN011C,CHN,C,English,Tue Sep 04 11:29:10 2018,Mouse
1,1,3,0,7,4,4,1,3319,209,3110,148,0,500,200,8000,"[(960, 540), (960, 540), (960, 540), (960, 540), (960, 540), (960, 540), (960, 540), (960, 540), (960, 540), (960, 540), (960, 540), (960, 540), (960, 540), (960, 540), (960, 540), (960, 540), (960, 540), (960, 540), (960, 540), (960, 540), (959, 540), (959, 540), (959, 540), (959, 540), (959, 540), (959, 540), (959, 540), (959, 540), (959, 540), (959, 540), (959, 540), (959, 540), (959, 540), (959, 540), (959, 540), (959, 540), (959, 540), (959, 540), (959, 540), (959, 540), (959, 540), (959, 540), (959, 540), (959, 540), (959, 540), (959, 540), (959, 540), (959, 540), (959, 540), (959, 540), (959, 540), (959, 540), (959, 540), (959, 540), (959, 540), (959, 540), (959, 540), (959, 540), (959, 540), (959, 540), (959, 540), (959, 540), (959, 540), (959, 540), (959, 540), (959, 540), (959, 540), (959, 540), (959, 540), (959, 540), (959, 540), (959, 540), (959, 540), (959, 540), (959, 540), (959, 540), (959, 540), (959, 540), (959, 540), (959, 540), (959, 540), (959, 540), (959, 540), (959, 540), (959, 540), (959, 540), (959, 540), (959, 540), (959, 540), (959, 540), (959, 540), (959, 540), (959, 540), (959, 540), (959, 540), (959, 540), (959, 540), (959, 540), (959, 540), (959, 540), (959, 540), (959, 540), (959, 540), (959, 540), (959, 540), (959, 540), (959, 540), (959, 540), (959, 540), (959, 540), (959, 540), (959, 540), (959, 540), (959, 540), (959, 540), (959, 540), (959, 540), (959, 540), (959, 540), (959, 540), (959, 540), (959, 540), (959, 540), (959, 540), (959, 540), (959, 540), (959, 540), (959, 540), (959, 540), (959, 540), (959, 540), (959, 540), (959, 540), (959, 540), (959, 540), (959, 540), (959, 540), (959, 540), (959, 540), (959, 540), (959, 540), (959, 540), (959, 540), (959, 540), (959, 540), (959, 540), (959, 540), (959, 540), (959, 540), (959, 540), (959, 540), (959, 540), (959, 540), (959, 540), (959, 540), (959, 540), (959, 540), (959, 540), (959, 540), (959, 540), (959, 540), (959, 540), (959, 540), (959, 540), (959, 540), (959, 540), (959, 540), (959, 540), (959, 540), (959, 540), (959, 540), (959, 540), (959, 540), (959, 540), (959, 540), (959, 540), (959, 540), (959, 540), (959, 540), (959, 540), (959, 540), (959, 540), (959, 540), (959, 540), (959, 540), (959, 540), (959, 540), (959, 540), (959, 540), (959, 540), (959, 540), (959, 540), (959, 540), (959, 540), (959, 540), (959, 540), (959, 540), (959, 540), (959, 540), (959, 540), (959, 540), (959, 540), (959, 540), (959, 540), (959, 540), (959, 540), (959, 540), (959, 540), (959, 540), (959, 540), (959, 540), (959, 540), (959, 540), (959, 540), (959, 540), (959, 540), (959, 540), (959, 540), (959, 540), (959, 540), (959, 540), (959, 540), (959, 540), (959, 540), (959, 540), (959, 540), (959, 540), (959, 540), (959, 540), (959, 540), (959, 540), (959, 540), (959, 540), (959, 540), (959, 540), (959, 540), (959, 540), (959, 540), (959, 540), (959, 540), (959, 540), (959, 540), (959, 540), (959, 540), (959, 540), (959, 540), (959, 540), (959, 540), (959, 540), (959, 540), (959, 540), (959, 540), (959, 540), (959, 540), (959, 540), (959, 540), (959, 540), (959, 540), (959, 540), (959, 540), (959, 540), (959, 540), (959, 540), (959, 540), (959, 540), (959, 540), (959, 540), (959, 540), (959, 540), (959, 540), (959, 540), (959, 540), (959, 540), (959, 540), (959, 540), (959, 540), (959, 540), (959, 540), (959, 540), (959, 540), (959, 540), (959, 540), (959, 540), (959, 540), (959, 540), (959, 540), (959, 540), (959, 540), (959, 540), (959, 540), (959, 540), (959, 540), (959, 540), (959, 540), (959, 540), (959, 540), (959, 540), (959, 540), (959, 540), (959, 540), (959, 540), (959, 540), (959, 540), (959, 540), (959, 540), (959, 540), (959, 540), (959, 540), (959, 540), (959, 540), (959, 540), (959, 540), (959, 540), (959, 540), (959, 540), (960, 540), (964, 541), (969, 543), (975, 545), (986, 549), (995, 552), (1002, 556), (1017, 562), (1052, 576), (1076, 587), (1104, 595), (1128, 600), (1199, 623), (1229, 631), (1263, 642), (1298, 651), (1362, 668)]",17.66188926689271,"[4, 8, 5, 9, 2, 7, 3, 1, 6]","(0, 0.25)",CHN011C,CHN,C,English,Tue Sep 04 11:29:10 2018,Mouse
1,1,3,0,8,9,9,1,2511,2361,150,147,0,500,200,8000,"[(960, 540), (960, 540), (960, 540), (960, 540), (960, 540), (960, 540), (960, 540), (960, 540), (960, 540), (960, 540), (960, 540), (960, 540), (960, 540), (960, 540), (960, 540), (960, 540), (960, 540), (960, 540), (960, 540), (960, 540), (960, 540), (960, 540), (960, 540), (960, 540), (960, 540), (960, 540), (960, 540), (960, 540), (960, 540), (960, 540), (960, 540), (960, 540), (960, 540), (960, 540), (960, 540), (960, 540), (960, 540), (960, 540), (960, 540), (960, 540), (960, 540), (960, 540), (960, 540), (960, 540), (960, 540), (960, 540), (960, 540), (960, 540), (960, 540), (960, 540), (960, 540), (960, 540), (960, 540), (960, 540), (960, 540), (960, 540), (960, 540), (960, 540), (960, 540), (960, 540), (960, 540), (960, 540), (960, 540), (960, 540), (960, 540), (960, 540), (960, 540), (960, 540), (960, 540), (960, 540), (960, 540), (960, 540), (960, 540), (960, 540), (960, 540), (960, 540), (960, 540), (960, 540), (960, 540), (960, 540), (960, 540), (960, 540), (960, 540), (960, 540), (960, 540), (960, 540), (960, 540), (960, 540), (960, 540), (960, 540), (960, 540), (960, 540), (960, 540), (960, 540), (960, 540), (960, 540), (960, 540), (960, 540), (960, 540), (960, 540), (960, 540), (960, 540), (960, 540), (960, 540), (960, 540), (960, 540), (960, 540), (960, 540), (960, 540), (960, 540), (960, 540), (960, 540), (960, 540), (960, 540), (960, 540), (960, 540), (960, 540), (960, 540), (960, 540), (960, 540), (960, 540), (960, 540), (960, 540), (960, 540), (960, 540), (960, 540), (960, 540), (960, 540), (960, 540), (960, 540), (960, 540), (960, 540), (960, 540), (960, 540), (960, 540), (960, 540), (960, 540), (960, 540), (960, 540), (960, 540), (960, 540), (960, 540), (960, 540), (960, 540), (960, 540), (960, 540), (960, 540), (960, 540), (960, 540), (960, 540), (960, 540), (960, 540), (960, 540), (960, 540), (960, 540), (960, 540), (960, 540), (960, 540), (960, 540), (960, 540), (960, 540), (960, 540), (960, 540), (960, 540), (960, 540), (960, 540), (960, 540), (960, 540), (960, 540), (960, 540), (960, 540), (960, 540), (960, 540), (960, 540), (960, 540), (960, 540), (960, 540), (960, 540), (960, 540), (960, 540), (960, 540), (960, 540), (960, 540), (960, 540), (960, 540), (960, 540), (960, 540), (960, 540), (960, 540), (960, 540), (960, 540), (960, 540), (960, 540), (960, 540), (960, 540), (960, 540), (960, 540), (960, 540), (960, 540), (960, 540), (960, 540), (960, 540), (960, 540), (960, 540), (960, 540), (960, 540), (960, 540), (960, 540), (960, 540), (960, 540), (960, 540), (960, 540), (960, 540), (960, 540), (960, 540), (960, 540), (960, 540), (960, 540), (960, 540), (960, 540), (960, 540), (960, 540), (960, 540), (960, 540), (960, 540), (960, 540), (960, 540), (960, 540), (960, 540), (960, 540), (960, 540), (960, 540), (960, 540), (960, 540), (960, 540), (959, 540), (955, 541), (952, 542), (941, 552), (935, 558), (930, 564), (922, 574), (895, 608), (879, 631), (854, 658), (831, 686), (776, 734), (748, 753), (717, 777), (696, 797), (664, 829)]",135.68555780579857,"[4, 8, 5, 9, 2, 7, 3, 1, 6]","(0, 0.25)",CHN011C,CHN,C,English,Tue Sep 04 11:29:10 2018,Mouse
1,1,3,0,9,1,1,1,360,30,330,146,0,500,200,8000,"[(959, 539), (959, 539), (958, 539), (957, 539), (956, 538), (956, 538), (956, 538), (956, 538), (956, 538), (956, 538), (956, 536), (956, 535), (956, 533), (956, 533), (957, 530), (957, 528), (957, 527), (958, 524), (964, 512), (973, 503), (981, 496), (990, 487), (1009, 446), (1015, 431), (1018, 419), (1021, 406), (1026, 379), (1031, 366), (1036, 350), (1044, 332), (1057, 299), (1073, 272), (1081, 251), (1095, 222), (1121, 174), (1136, 149)]",294.2338380209845,"[4, 8, 5, 9, 2, 7, 3, 1, 6]","(0, 0.25)",CHN011C,CHN,C,English,Tue Sep 04 11:29:10 2018,Mouse
1,1,3,0,10,9,9,1,600,170,430,145,0,500,200,8000,"[(960, 540), (960, 540), (960, 540), (960, 540), (960, 540), (960, 540), (960, 540), (960, 540), (960, 540), (960, 540), (960, 540), (960, 540), (960, 540), (960, 540), (960, 540), (960, 540), (959, 540), (958, 543), (958, 546), (958, 548), (957, 552), (954, 558), (954, 561), (952, 564), (950, 567), (948, 571), (945, 575), (943, 577), (941, 580), (932, 589), (925, 593), (916, 598), (907, 603), (887, 614), (878, 622), (865, 628), (854, 634), (833, 647), (826, 652), (814, 658), (804, 663), (788, 673), (778, 679), (772, 683), (763, 687), (751, 692), (745, 695), (737, 698), (731, 700), (720, 707), (710, 712), (704, 716), (694, 720), (677, 729), (669, 736), (660, 741), (652, 745), (639, 753), (631, 757), (625, 762)]",146.46809847532597,"[4, 8, 5, 9, 2, 7, 3, 1, 6]","(0, 0.25)",CHN011C,CHN,C,English,Tue Sep 04 11:29:10 2018,Mouse
1,1,3,0,11,9,9,1,440,20,420,144,0,500,200,8000,"[(956, 546), (954, 549), (953, 552), (950, 556), (947, 564), (945, 567), (943, 572), (941, 576), (937, 583), (935, 586), (933, 589), (931, 591), (927, 596), (927, 597), (925, 602), (921, 605), (915, 614), (910, 619), (904, 624), (898, 630), (889, 636), (884, 638), (882, 640), (880, 640), (875, 640), (874, 640), (871, 640), (869, 640), (863, 641), (858, 644), (852, 645), (842, 649), (818, 661), (807, 667), (796, 673), (784, 681), (760, 701), (749, 709), (735, 718), (715, 732), (678, 752), (661, 764), (645, 771), (634, 778)]",143.8682628332076,"[4, 8, 5, 9, 2, 7, 3, 1, 6]","(0, 0.25)",CHN011C,CHN,C,English,Tue Sep 04 11:29:10 2018,Mouse
1,1,3,0,12,9,9,1,129,19,110,143,0,500,200,8000,"[(951, 544), (942, 546), (934, 548), (918, 554), (908, 560), (893, 570), (872, 589), (827, 631), (801, 663), (773, 694), (747, 723), (687, 775), (655, 803)]",139.22896343989,"[4, 8, 5, 9, 2, 7, 3, 1, 6]","(0, 0.25)",CHN011C,CHN,C,English,Tue Sep 04 11:29:10 2018,Mouse
1,1,3,0,13,2,2,1,2341,220,2121,142,0,500,200,8000,"[(960, 540), (960, 540), (960, 540), (960, 540), (960, 540), (960, 540), (960, 540), (960, 540), (960, 540), (960, 540), (960, 540), (960, 540), (960, 540), (960, 540), (960, 540), (960, 540), (960, 540), (960, 540), (960, 540), (960, 540), (960, 540), (961, 540), (964, 538), (966, 538), (968, 537), (977, 536), (981, 534), (987, 532), (990, 531), (995, 530), (997, 529), (998, 529), (1001, 528), (1002, 527), (1004, 526), (1004, 526), (1004, 526), (1004, 526), (1004, 526), (1004, 526), (1004, 525), (1004, 521), (1004, 518), (1004, 514), (1004, 510), (1004, 497), (1001, 490), (999, 480), (995, 469), (988, 442), (983, 428), (980, 414), (977, 400), (969, 358), (964, 331), (961, 310), (958, 287), (956, 257), (956, 247), (955, 238), (954, 232), (954, 228), (954, 226), (954, 225), (954, 225), (954, 225), (954, 225), (954, 225), (954, 225), (954, 225), (953, 225), (952, 225), (952, 226), (952, 226), (952, 228), (952, 229), (952, 229), (952, 230), (951, 231), (951, 232), (951, 232), (951, 233), (951, 234), (951, 235), (951, 235), (951, 237), (951, 238), (951, 238), (951, 238), (951, 239), (951, 239), (951, 239), (951, 240), (951, 240), (951, 240), (951, 240), (951, 240), (951, 240), (951, 240), (951, 240), (951, 240), (951, 240), (951, 240), (951, 240), (951, 240), (951, 240), (951, 240), (951, 240), (951, 240), (951, 241), (951, 241), (951, 241), (951, 242), (951, 243), (951, 243), (951, 244), (951, 244), (951, 244), (951, 244), (951, 244), (951, 244), (951, 244), (951, 244), (951, 244), (951, 244), (951, 244), (951, 244), (951, 244), (951, 244), (951, 244), (951, 244), (951, 244), (951, 244), (951, 245), (951, 245), (951, 245), (951, 245), (951, 245), (951, 245), (951, 245), (951, 245), (951, 245), (951, 245), (951, 245), (951, 245), (951, 245), (951, 245), (951, 245), (951, 245), (951, 245), (951, 245), (951, 245), (951, 245), (951, 245), (951, 245), (951, 245), (951, 245), (951, 245), (951, 245), (951, 245), (951, 245), (951, 245), (951, 245), (951, 245), (951, 245), (951, 245), (951, 245), (951, 245), (951, 245), (951, 245), (951, 245), (951, 245), (951, 245), (951, 245), (951, 245), (951, 245), (951, 245), (951, 245), (951, 245), (951, 245), (951, 245), (951, 245), (951, 245), (951, 245), (951, 245), (951, 245), (951, 245), (951, 245), (951, 245), (951, 245), (951, 245), (951, 245), (951, 245), (951, 245), (951, 245), (951, 245), (951, 245), (951, 246), (951, 246), (951, 246), (951, 247), (951, 247), (951, 247), (951, 248), (951, 249), (951, 252), (951, 253), (951, 256), (951, 261), (951, 274), (948, 281), (945, 291), (942, 302), (931, 322), (925, 332), (918, 344), (904, 360), (881, 384), (866, 396), (849, 407), (833, 416), (797, 436), (774, 445), (757, 450), (741, 453), (711, 459), (695, 463), (681, 464), (666, 465), (635, 471), (620, 471), (606, 475), (587, 476), (549, 480)]",188.30567620555598,"[4, 8, 5, 9, 2, 7, 3, 1, 6]","(0, 0.25)",CHN011C,CHN,C,English,Tue Sep 04 11:29:10 2018,Mouse
1,1,3,0,14,5,5,1,1389,319,1070,141,0,500,200,8000,"[(960, 540), (960, 540), (960, 540), (960, 540), (960, 540), (960, 540), (960, 540), (960, 540), (960, 540), (960, 540), (960, 540), (960, 540), (960, 540), (960, 540), (960, 540), (960, 540), (960, 540), (960, 540), (960, 540), (960, 540), (960, 540), (960, 540), (960, 540), (960, 540), (960, 540), (960, 540), (960, 540), (960, 540), (960, 540), (960, 540), (960, 540), (959, 541), (959, 541), (959, 541), (959, 542), (959, 543), (959, 543), (959, 543), (958, 543), (958, 543), (958, 543), (958, 543), (958, 544), (958, 544), (958, 544), (958, 544), (958, 544), (958, 544), (958, 544), (958, 544), (958, 544), (958, 544), (958, 544), (958, 544), (958, 544), (958, 544), (958, 544), (958, 544), (958, 544), (958, 544), (958, 544), (958, 544), (958, 544), (958, 544), (958, 544), (958, 544), (958, 544), (958, 544), (958, 544), (958, 544), (958, 544), (958, 544), (958, 544), (958, 544), (958, 544), (958, 544), (958, 544), (958, 544), (958, 544), (958, 544), (958, 544), (958, 544), (958, 545), (958, 545), (958, 545), (958, 545), (958, 545), (958, 545), (958, 545), (958, 545), (958, 545), (958, 545), (958, 545), (958, 546), (958, 546), (958, 546), (958, 546), (958, 546), (958, 546), (958, 546), (958, 546), (958, 546), (958, 546), (958, 546), (958, 546), (958, 546), (958, 546), (958, 546), (958, 546), (958, 546), (958, 546), (958, 546), (958, 546), (958, 546), (958, 546), (958, 546), (958, 546), (958, 546), (958, 546), (958, 546), (958, 546), (958, 546), (958, 546), (958, 548), (958, 552), (958, 559), (958, 576), (958, 586), (958, 597), (958, 608), (954, 639), (949, 660), (946, 686), (941, 719), (941, 786), (941, 833), (941, 880), (941, 927), (941, 1005)]",92.33981629944616,"[4, 8, 5, 9, 2, 7, 3, 1, 6]","(0, 0.25)",CHN011C,CHN,C,English,Tue Sep 04 11:29:10 2018,Mouse
1,1,3,0,15,3,3,1,1149,909,240,140,0,500,200,8000,"[(960, 540), (960, 540), (960, 540), (960, 540), (960, 540), (960, 540), (960, 540), (960, 540), (960, 540), (960, 540), (960, 540), (960, 540), (960, 540), (960, 540), (960, 540), (960, 540), (960, 540), (960, 540), (960, 540), (960, 540), (960, 540), (960, 540), (960, 540), (960, 540), (960, 540), (960, 540), (960, 540), (960, 540), (960, 540), (960, 540), (960, 540), (960, 540), (960, 540), (960, 540), (960, 540), (960, 540), (960, 540), (960, 540), (960, 540), (960, 540), (960, 540), (960, 540), (960, 540), (960, 540), (960, 540), (960, 540), (960, 540), (960, 540), (960, 540), (960, 540), (960, 540), (960, 540), (960, 540), (960, 540), (960, 540), (960, 540), (960, 540), (960, 540), (960, 540), (960, 540), (960, 540), (960, 540), (960, 540), (960, 540), (960, 540), (960, 540), (960, 540), (960, 540), (960, 540), (960, 540), (960, 540), (960, 540), (960, 540), (960, 540), (960, 540), (960, 540), (960, 540), (960, 540), (960, 540), (960, 540), (960, 540), (960, 540), (960, 540), (960, 540), (960, 540), (960, 540), (960, 540), (960, 540), (960, 540), (960, 540), (959, 540), (958, 537), (956, 532), (955, 524), (951, 505), (948, 490), (946, 474), (942, 457), (930, 413), (925, 396), (921, 374), (913, 349), (902, 315), (899, 294), (897, 276), (894, 260), (890, 234), (890, 222), (889, 209), (889, 196), (889, 177), (889, 168), (889, 159), (889, 152), (889, 134)]",260.08060109420154,"[4, 8, 5, 9, 2, 7, 3, 1, 6]","(0, 0.25)",CHN011C,CHN,C,English,Tue Sep 04 11:29:10 2018,Mouse
1,1,3,0,16,3,3,1,348,18,330,139,0,500,200,8000,"[(960, 538), (959, 537), (959, 531), (959, 529), (959, 524), (959, 520), (959, 509), (959, 505), (959, 499), (959, 495), (959, 485), (959, 482), (959, 478), (959, 474), (959, 466), (959, 462), (959, 458), (959, 454), (958, 443), (958, 437), (958, 429), (958, 421), (958, 402), (956, 391), (955, 380), (954, 367), (949, 341), (949, 330), (947, 317), (943, 299), (935, 246), (934, 223), (929, 190), (924, 164), (916, 108)]",264.1843734705088,"[4, 8, 5, 9, 2, 7, 3, 1, 6]","(0, 0.25)",CHN011C,CHN,C,English,Tue Sep 04 11:29:10 2018,Mouse
1,1,3,0,17,1,1,1,340,30,310,138,0,500,200,8000,"[(960, 540), (960, 540), (961, 540), (961, 540), (963, 539), (964, 539), (967, 535), (969, 533), (969, 533), (970, 531), (973, 528), (975, 526), (976, 524), (979, 521), (985, 515), (986, 513), (989, 510), (992, 506), (998, 499), (1001, 496), (1005, 490), (1010, 485), (1024, 469), (1029, 461), (1037, 452), (1045, 441), (1067, 412), (1078, 395), (1089, 381), (1106, 356), (1139, 299), (1154, 272), (1171, 244), (1189, 211)]",304.8397938791054,"[4, 8, 5, 9, 2, 7, 3, 1, 6]","(0, 0.25)",CHN011C,CHN,C,English,Tue Sep 04 11:29:10 2018,Mouse
1,1,3,0,18,5,5,1,430,100,330,137,0,500,200,8000,"[(960, 540), (960, 540), (960, 540), (960, 540), (960, 540), (960, 540), (960, 540), (960, 540), (960, 540), (960, 541), (960, 549), (957, 566), (957, 570), (956, 574), (956, 577), (955, 586), (953, 591), (952, 595), (952, 599), (951, 611), (950, 618), (948, 624), (947, 629), (945, 645), (943, 653), (941, 662), (938, 670), (932, 687), (930, 697), (929, 704), (926, 714), (924, 735), (921, 746), (921, 758), (921, 769), (918, 798), (916, 813), (913, 834), (909, 853), (901, 898), (899, 917), (898, 930), (894, 944)]",99.27824001566991,"[4, 8, 5, 9, 2, 7, 3, 1, 6]","(0, 0.25)",CHN011C,CHN,C,English,Tue Sep 04 11:29:10 2018,Mouse
1,1,3,0,19,3,3,1,341,100,241,136,0,500,200,8000,"[(960, 540), (960, 540), (960, 540), (960, 540), (960, 540), (960, 540), (960, 540), (960, 540), (960, 540), (960, 538), (960, 536), (960, 533), (961, 530), (962, 529), (963, 527), (964, 523), (964, 520), (964, 519), (964, 515), (964, 502), (964, 495), (964, 487), (964, 479), (964, 457), (964, 444), (964, 429), (964, 414), (958, 358), (953, 326), (946, 296), (938, 262), (925, 192), (919, 144), (914, 109)]",263.9079667664642,"[4, 8, 5, 9, 2, 7, 3, 1, 6]","(0, 0.25)",CHN011C,CHN,C,English,Tue Sep 04 11:29:10 2018,Mouse
1,1,3,0,20,7,1,0,-449,279,170,135,0,500,200,8000,"[(960, 540), (960, 540), (960, 540), (960, 540), (960, 540), (960, 540), (960, 540), (960, 540), (960, 540), (960, 540), (960, 540), (960, 540), (960, 540), (960, 540), (960, 540), (960, 540), (960, 540), (960, 540), (960, 540), (960, 540), (960, 540), (960, 540), (960, 540), (960, 540), (960, 540), (960, 540), (960, 540), (961, 540), (968, 528), (973, 519), (981, 509), (994, 497), (1023, 467), (1035, 455), (1048, 435), (1058, 419), (1089, 372), (1103, 347), (1119, 327), (1133, 305), (1159, 263), (1170, 249), (1178, 237), (1188, 224), (1196, 207)]",305.32553261115606,"[4, 8, 5, 9, 2, 7, 3, 1, 6]","(0, 0.25)",CHN011C,CHN,C,English,Tue Sep 04 11:29:10 2018,Mouse
1,1,3,0,21,6,1,0,-290,20,270,136,0,500,200,8000,"[(960, 539), (960, 536), (960, 531), (960, 528), (962, 523), (964, 518), (966, 511), (968, 506), (969, 501), (971, 497), (975, 486), (978, 482), (981, 473), (984, 466), (993, 444), (997, 434), (1004, 421), (1009, 409), (1022, 386), (1036, 364), (1046, 345), (1063, 320), (1094, 277), (1108, 262), (1121, 247), (1135, 231), (1155, 212), (1163, 204), (1171, 196)]",301.5237909396415,"[4, 8, 5, 9, 2, 7, 3, 1, 6]","(0, 0.25)",CHN011C,CHN,C,English,Tue Sep 04 11:29:10 2018,Mouse
1,1,3,0,22,8,8,1,2568,988,1580,137,0,500,200,8000,"[(960, 540), (960, 540), (960, 540), (960, 540), (960, 540), (960, 540), (960, 540), (960, 540), (960, 540), (960, 540), (960, 540), (960, 540), (960, 540), (960, 540), (960, 540), (960, 540), (960, 540), (960, 540), (960, 540), (960, 540), (960, 540), (960, 540), (960, 540), (960, 540), (960, 540), (960, 540), (960, 540), (960, 540), (960, 540), (960, 540), (960, 540), (960, 540), (960, 540), (960, 540), (960, 540), (960, 540), (960, 540), (960, 540), (960, 540), (960, 540), (960, 540), (960, 540), (960, 540), (960, 540), (960, 540), (960, 540), (960, 540), (960, 540), (960, 540), (960, 540), (960, 540), (960, 540), (960, 540), (960, 540), (960, 540), (960, 540), (960, 540), (960, 540), (960, 540), (960, 540), (960, 540), (960, 540), (960, 540), (960, 540), (960, 540), (960, 540), (960, 540), (960, 540), (960, 540), (960, 540), (960, 540), (960, 540), (960, 540), (960, 540), (960, 540), (960, 540), (960, 540), (960, 540), (960, 540), (960, 540), (960, 540), (960, 540), (960, 540), (960, 540), (960, 540), (960, 540), (960, 540), (960, 540), (960, 540), (960, 540), (960, 540), (960, 540), (960, 540), (960, 540), (960, 540), (960, 540), (960, 540), (960, 540), (960, 541), (960, 541), (960, 541), (960, 542), (960, 542), (960, 543), (960, 545), (960, 548), (962, 549), (963, 553), (967, 558), (967, 560), (968, 561), (971, 563), (971, 564), (972, 564), (972, 564), (972, 564), (972, 564), (972, 564), (972, 564), (972, 564), (972, 564), (972, 564), (972, 564), (972, 564), (972, 564), (972, 564), (972, 564), (972, 564), (972, 564), (972, 564), (972, 564), (972, 564), (972, 564), (972, 564), (972, 564), (972, 564), (972, 564), (972, 564), (972, 564), (972, 564), (972, 564), (972, 564), (972, 564), (972, 564), (972, 564), (972, 564), (972, 564), (972, 564), (972, 564), (972, 564), (972, 564), (972, 564), (972, 564), (972, 564), (972, 564), (972, 564), (972, 564), (972, 564), (972, 564), (972, 564), (972, 564), (972, 564), (972, 564), (972, 564), (972, 564), (972, 564), (972, 564), (972, 564), (972, 564), (972, 566), (972, 566), (973, 567), (973, 568), (974, 570), (974, 570), (974, 571), (977, 577), (978, 579), (980, 584), (983, 589), (993, 606), (998, 615), (1005, 627), (1011, 637), (1022, 657), (1028, 668), (1033, 681), (1039, 692), (1052, 715), (1057, 723), (1062, 731), (1067, 739), (1072, 748), (1074, 752), (1076, 755), (1076, 756), (1079, 759), (1079, 761), (1079, 761), (1080, 762), (1081, 764), (1081, 765), (1082, 766), (1083, 766), (1086, 773), (1087, 776), (1090, 781), (1094, 785), (1101, 798), (1104, 804), (1106, 807), (1110, 813), (1116, 822), (1118, 826), (1119, 827), (1121, 830), (1123, 832), (1123, 832), (1123, 833), (1123, 834), (1124, 835), (1124, 836), (1125, 837), (1125, 837), (1126, 839), (1126, 840), (1126, 842), (1126, 842), (1127, 844), (1128, 846), (1128, 846), (1129, 848), (1130, 849), (1130, 850), (1130, 850), (1130, 851), (1131, 852), (1132, 852), (1132, 852), (1132, 853), (1132, 853), (1132, 853), (1132, 854), (1133, 855), (1133, 856), (1135, 858), (1136, 859), (1137, 862), (1140, 865), (1143, 869), (1144, 870), (1146, 874), (1152, 879), (1154, 880), (1156, 883), (1159, 884), (1163, 887)]",59.67175079590183,"[4, 8, 5, 9, 2, 7, 3, 1, 6]","(0, 0.25)",CHN011C,CHN,C,English,Tue Sep 04 11:29:10 2018,Mouse
1,1,3,0,23,7,6,0,-1330,90,1240,137,0,500,200,8000,"[(960, 540), (960, 540), (960, 540), (960, 540), (960, 540), (960, 540), (960, 540), (960, 540), (959, 540), (959, 540), (958, 540), (958, 540), (958, 540), (956, 540), (956, 540), (956, 540), (956, 540), (955, 540), (955, 540), (955, 540), (955, 540), (955, 540), (955, 540), (955, 541), (955, 541), (955, 541), (955, 541), (955, 541), (955, 541), (955, 541), (955, 541), (955, 541), (955, 541), (955, 541), (955, 541), (955, 541), (955, 541), (955, 541), (955, 541), (955, 541), (955, 541), (955, 541), (955, 541), (955, 541), (955, 541), (955, 541), (955, 541), (955, 541), (955, 541), (955, 541), (955, 541), (955, 541), (955, 541), (955, 541), (955, 541), (955, 541), (955, 541), (955, 541), (955, 541), (955, 541), (955, 541), (955, 541), (955, 541), (955, 541), (955, 541), (955, 541), (955, 541), (955, 541), (955, 541), (955, 541), (955, 541), (955, 541), (955, 541), (955, 541), (955, 541), (955, 541), (955, 541), (955, 541), (955, 541), (955, 541), (955, 541), (955, 541), (955, 541), (955, 541), (955, 541), (955, 541), (955, 541), (955, 541), (955, 541), (955, 541), (955, 541), (955, 541), (957, 541), (960, 540), (966, 537), (969, 535), (975, 531), (980, 529), (992, 522), (1001, 517), (1010, 513), (1021, 506), (1044, 493), (1054, 487), (1071, 480), (1082, 475), (1111, 468), (1127, 463), (1141, 458), (1155, 456), (1179, 448), (1191, 446), (1203, 441), (1214, 439), (1236, 434), (1247, 431), (1257, 430), (1266, 429), (1282, 428), (1288, 426), (1293, 425), (1300, 424), (1307, 423), (1311, 423), (1314, 422), (1318, 422), (1326, 421), (1328, 420), (1331, 419), (1336, 418), (1339, 418), (1340, 418), (1341, 417)]",342.10812287080176,"[4, 8, 5, 9, 2, 7, 3, 1, 6]","(0, 0.25)",CHN011C,CHN,C,English,Tue Sep 04 11:29:10 2018,Mouse
1,1,3,0,24,1,1,1,339,19,320,138,0,500,200,8000,"[(960, 538), (959, 537), (959, 536), (959, 534), (957, 527), (956, 520), (955, 514), (954, 506), (952, 492), (951, 488), (951, 483), (951, 478), (951, 468), (951, 462), (951, 459), (951, 454), (951, 447), (952, 441), (953, 437), (956, 428), (963, 412), (967, 405), (971, 395), (974, 389), (986, 362), (993, 349), (1006, 327), (1019, 303), (1043, 266), (1057, 246), (1070, 229), (1081, 212), (1105, 182), (1118, 167)]",292.95715105662714,"[4, 8, 5, 9, 2, 7, 3, 1, 6]","(0, 0.25)",CHN011C,CHN,C,English,Tue Sep 04 11:29:10 2018,Mouse
1,1,3,0,25,2,2,1,551,421,130,138,0,500,200,8000,"[(960, 540), (960, 540), (960, 540), (960, 540), (960, 540), (960, 540), (960, 540), (960, 540), (960, 540), (960, 540), (960, 540), (960, 540), (960, 540), (960, 540), (960, 540), (960, 540), (960, 540), (960, 540), (960, 540), (960, 540), (960, 540), (960, 540), (960, 540), (960, 540), (960, 540), (960, 540), (960, 540), (960, 540), (960, 540), (960, 540), (960, 540), (960, 540), (960, 540), (960, 540), (960, 540), (960, 540), (960, 540), (960, 540), (960, 540), (960, 540), (960, 540), (960, 540), (957, 544), (953, 545), (950, 547), (944, 549), (932, 553), (924, 553), (914, 553), (902, 553), (857, 553), (813, 553), (755, 553), (694, 553), (578, 553), (518, 548)]",178.9630855354699,"[4, 8, 5, 9, 2, 7, 3, 1, 6]","(0, 0.25)",CHN011C,CHN,C,English,Tue Sep 04 11:29:10 2018,Mouse
1,1,3,0,26,9,9,1,679,279,400,137,0,500,200,8000,"[(960, 540), (960, 540), (960, 540), (960, 540), (960, 540), (960, 540), (960, 540), (960, 540), (960, 540), (960, 540), (960, 540), (960, 540), (960, 540), (960, 540), (960, 540), (960, 540), (960, 540), (960, 540), (960, 540), (960, 540), (960, 540), (960, 540), (960, 540), (960, 540), (960, 540), (960, 540), (960, 540), (958, 541), (958, 541), (958, 542), (958, 542), (958, 542), (958, 542), (958, 542), (957, 542), (957, 543), (956, 545), (954, 547), (952, 549), (951, 551), (946, 555), (934, 567), (923, 576), (912, 590), (899, 603), (879, 628), (869, 640), (861, 649), (852, 661), (828, 682), (815, 692), (803, 702), (793, 708), (770, 725), (759, 730), (746, 738), (737, 743), (723, 753), (717, 758), (712, 763), (707, 768), (695, 775), (689, 778), (681, 782), (674, 786), (663, 793), (658, 796), (654, 800)]",139.64633549119588,"[4, 8, 5, 9, 2, 7, 3, 1, 6]","(0, 0.25)",CHN011C,CHN,C,English,Tue Sep 04 11:29:10 2018,Mouse
1,1,3,0,27,4,4,1,1049,259,790,136,0,500,200,8000,"[(960, 540), (960, 540), (960, 540), (960, 540), (960, 540), (960, 540), (960, 540), (960, 540), (960, 540), (960, 540), (960, 540), (960, 540), (960, 540), (960, 540), (960, 540), (960, 540), (960, 540), (960, 540), (960, 540), (960, 540), (960, 540), (960, 540), (960, 540), (960, 540), (960, 540), (960, 542), (960, 542), (960, 542), (960, 543), (960, 545), (960, 546), (962, 548), (962, 549), (962, 550), (962, 550), (963, 551), (964, 552), (964, 552), (964, 552), (964, 552), (964, 552), (964, 552), (964, 552), (965, 552), (965, 552), (965, 552), (965, 552), (965, 552), (965, 552), (965, 552), (965, 552), (965, 552), (965, 552), (965, 552), (965, 552), (965, 552), (965, 552), (965, 552), (965, 552), (965, 552), (965, 552), (965, 552), (965, 552), (965, 552), (965, 552), (965, 552), (965, 552), (965, 552), (965, 552), (965, 552), (965, 552), (965, 552), (965, 552), (965, 552), (965, 552), (965, 552), (965, 552), (965, 552), (965, 552), (965, 552), (965, 552), (965, 552), (965, 552), (965, 552), (965, 552), (965, 552), (965, 552), (965, 552), (965, 552), (965, 552), (965, 552), (965, 552), (971, 554), (979, 557), (988, 562), (1002, 568), (1044, 585), (1072, 595), (1104, 610), (1138, 622), (1208, 644), (1241, 652), (1277, 661), (1308, 672), (1363, 686)]",19.91458459381882,"[4, 8, 5, 9, 2, 7, 3, 1, 6]","(0, 0.25)",CHN011C,CHN,C,English,Tue Sep 04 11:29:10 2018,Mouse
1,1,3,0,28,1,1,1,428,218,210,135,0,500,200,8000,"[(960, 540), (960, 540), (960, 540), (960, 540), (960, 540), (960, 540), (960, 540), (960, 540), (960, 540), (960, 540), (960, 540), (960, 540), (960, 540), (960, 540), (960, 540), (960, 540), (960, 540), (960, 540), (960, 540), (960, 540), (960, 540), (960, 538), (964, 532), (965, 528), (968, 523), (974, 514), (984, 493), (990, 480), (997, 463), (1004, 448), (1013, 419), (1021, 403), (1030, 384), (1036, 367), (1054, 328), (1060, 313), (1071, 292), (1079, 278), (1095, 237), (1102, 222), (1109, 204), (1114, 193), (1123, 169)]",293.7184342612619,"[4, 8, 5, 9, 2, 7, 3, 1, 6]","(0, 0.25)",CHN011C,CHN,C,English,Tue Sep 04 11:29:10 2018,Mouse
1,1,3,0,29,5,5,1,999,869,130,134,0,500,200,8000,"[(960, 540), (960, 540), (960, 540), (960, 540), (960, 540), (960, 540), (960, 540), (960, 540), (960, 540), (960, 540), (960, 540), (960, 540), (960, 540), (960, 540), (960, 540), (960, 540), (960, 540), (960, 540), (960, 540), (960, 540), (960, 540), (960, 540), (960, 540), (960, 540), (960, 540), (960, 540), (960, 540), (960, 540), (960, 540), (960, 540), (960, 540), (960, 540), (960, 540), (960, 540), (960, 540), (960, 540), (960, 540), (960, 540), (960, 540), (960, 540), (960, 540), (960, 540), (960, 540), (960, 540), (960, 540), (960, 540), (960, 540), (960, 540), (960, 540), (960, 540), (960, 540), (960, 540), (960, 540), (960, 540), (960, 540), (960, 540), (960, 540), (960, 540), (960, 540), (960, 540), (960, 540), (960, 540), (960, 540), (960, 540), (960, 540), (960, 540), (960, 540), (960, 540), (960, 540), (960, 540), (960, 540), (960, 540), (960, 540), (960, 540), (960, 540), (960, 540), (960, 540), (960, 540), (960, 540), (960, 540), (960, 540), (960, 540), (960, 540), (960, 540), (960, 540), (960, 540), (960, 544), (957, 551), (953, 559), (947, 571), (936, 601), (933, 612), (926, 630), (920, 655), (904, 711), (895, 741), (887, 775), (875, 813), (853, 896), (849, 931)]",105.84857987358056,"[4, 8, 5, 9, 2, 7, 3, 1, 6]","(0, 0.25)",CHN011C,CHN,C,English,Tue Sep 04 11:29:10 2018,Mouse
1,1,3,0,30,7,1,0,-1029,749,280,133,0,500,200,8000,"[(960, 540), (960, 540), (960, 540), (960, 540), (960, 540), (960, 540), (960, 540), (960, 540), (960, 540), (960, 540), (960, 540), (960, 540), (960, 540), (960, 540), (960, 540), (960, 540), (960, 540), (960, 540), (960, 540), (960, 540), (960, 540), (960, 540), (960, 540), (960, 540), (960, 540), (960, 540), (960, 540), (960, 540), (960, 540), (960, 540), (960, 540), (960, 540), (960, 540), (960, 540), (960, 540), (960, 540), (960, 540), (960, 540), (960, 540), (960, 540), (960, 540), (960, 540), (960, 540), (960, 540), (960, 540), (960, 540), (960, 540), (960, 540), (960, 540), (960, 540), (960, 540), (960, 540), (960, 540), (960, 540), (960, 540), (960, 540), (960, 540), (960, 540), (960, 540), (960, 540), (960, 540), (960, 540), (960, 540), (960, 540), (960, 540), (960, 540), (960, 540), (960, 540), (960, 540), (960, 540), (960, 540), (960, 540), (960, 540), (960, 540), (961, 540), (964, 537), (966, 535), (969, 529), (973, 522), (975, 518), (980, 510), (990, 495), (995, 488), (1002, 478), (1008, 468), (1026, 438), (1038, 416), (1046, 398), (1061, 373), (1077, 343), (1084, 332), (1089, 320), (1098, 309), (1110, 281), (1116, 268), (1120, 256), (1125, 246), (1133, 227), (1135, 220), (1140, 210), (1144, 202), (1149, 192), (1151, 186)]",298.3489926459326,"[4, 8, 5, 9, 2, 7, 3, 1, 6]","(0, 0.25)",CHN011C,CHN,C,English,Tue Sep 04 11:29:10 2018,Mouse
1,1,3,0,31,5,2,0,-1751,1651,100,134,0,500,200,8000,"[(960, 540), (960, 540), (960, 540), (960, 540), (960, 540), (960, 540), (960, 540), (960, 540), (960, 540), (960, 540), (960, 540), (960, 540), (960, 540), (960, 540), (960, 540), (960, 540), (960, 540), (960, 540), (960, 540), (960, 540), (960, 540), (960, 540), (960, 540), (960, 540), (960, 540), (960, 540), (960, 540), (960, 540), (960, 540), (960, 540), (960, 540), (960, 540), (960, 540), (960, 540), (960, 540), (960, 540), (960, 540), (960, 540), (960, 540), (960, 540), (960, 540), (960, 540), (960, 540), (960, 540), (960, 540), (960, 540), (960, 540), (960, 540), (960, 540), (960, 540), (960, 540), (960, 540), (960, 540), (960, 540), (960, 540), (960, 540), (960, 540), (960, 540), (960, 540), (960, 540), (960, 540), (960, 540), (960, 540), (960, 540), (960, 540), (960, 540), (960, 540), (960, 540), (960, 540), (960, 540), (960, 540), (960, 540), (960, 540), (960, 540), (960, 540), (960, 540), (960, 540), (960, 540), (960, 540), (960, 540), (960, 540), (960, 540), (960, 540), (960, 540), (960, 540), (960, 540), (960, 540), (960, 540), (960, 540), (960, 540), (960, 540), (960, 540), (960, 540), (960, 540), (960, 540), (960, 540), (960, 540), (960, 540), (960, 540), (960, 540), (960, 540), (960, 540), (960, 540), (960, 540), (960, 540), (960, 540), (960, 540), (960, 540), (960, 540), (960, 540), (960, 540), (960, 540), (960, 540), (960, 540), (960, 540), (960, 540), (960, 540), (960, 540), (960, 540), (960, 540), (960, 540), (960, 540), (960, 540), (960, 540), (960, 540), (960, 540), (960, 540), (960, 540), (960, 540), (960, 540), (960, 540), (960, 540), (960, 540), (960, 540), (960, 540), (960, 540), (960, 540), (960, 540), (960, 540), (960, 540), (960, 540), (960, 540), (960, 540), (960, 540), (960, 540), (960, 540), (960, 540), (960, 540), (960, 540), (960, 540), (960, 540), (960, 540), (960, 540), (960, 540), (960, 540), (960, 540), (960, 540), (960, 540), (960, 540), (960, 540), (960, 540), (960, 540), (960, 540), (960, 540), (960, 540), (960, 541), (951, 543), (941, 543), (931, 543), (914, 543), (855, 543), (808, 543), (761, 543), (706, 543), (589, 543), (528, 543)]",179.60211903816543,"[4, 8, 5, 9, 2, 7, 3, 1, 6]","(0, 0.25)",CHN011C,CHN,C,English,Tue Sep 04 11:29:10 2018,Mouse
1,1,3,0,32,8,5,0,-3599,2020,1579,135,0,500,200,8000,"[(960, 540), (960, 540), (960, 540), (960, 540), (960, 540), (960, 540), (960, 540), (960, 540), (960, 540), (960, 540), (960, 540), (960, 540), (960, 540), (960, 540), (960, 540), (960, 540), (960, 540), (960, 540), (960, 540), (960, 540), (960, 540), (960, 540), (960, 540), (960, 540), (960, 540), (960, 540), (960, 540), (960, 540), (960, 540), (960, 540), (960, 540), (960, 540), (960, 540), (960, 540), (960, 540), (960, 540), (960, 540), (960, 540), (960, 540), (960, 540), (960, 540), (960, 540), (960, 540), (960, 540), (960, 540), (960, 540), (960, 540), (960, 540), (960, 540), (960, 540), (960, 540), (960, 540), (960, 540), (960, 540), (960, 540), (960, 540), (960, 540), (960, 540), (960, 540), (960, 540), (960, 540), (960, 540), (960, 540), (960, 540), (960, 540), (960, 540), (960, 540), (960, 540), (960, 540), (960, 540), (960, 540), (960, 540), (960, 540), (960, 540), (960, 540), (960, 540), (960, 540), (960, 540), (960, 540), (960, 540), (960, 540), (960, 540), (960, 540), (960, 540), (960, 540), (960, 540), (960, 540), (960, 540), (960, 540), (960, 540), (960, 540), (960, 540), (960, 540), (960, 540), (960, 540), (960, 540), (960, 540), (960, 540), (960, 540), (960, 540), (960, 540), (960, 540), (960, 540), (960, 540), (960, 540), (960, 540), (960, 540), (960, 540), (960, 540), (960, 540), (960, 540), (960, 540), (960, 540), (960, 540), (960, 540), (960, 540), (960, 540), (960, 540), (960, 540), (960, 540), (960, 540), (960, 540), (960, 540), (960, 540), (960, 540), (960, 540), (960, 540), (960, 540), (960, 540), (960, 540), (960, 540), (960, 540), (960, 540), (960, 540), (960, 540), (960, 540), (960, 540), (960, 540), (960, 540), (960, 540), (960, 540), (960, 540), (960, 540), (960, 540), (960, 540), (960, 540), (960, 540), (960, 540), (960, 540), (960, 540), (960, 540), (960, 540), (960, 540), (960, 540), (960, 540), (960, 540), (960, 540), (960, 540), (960, 540), (960, 540), (960, 540), (960, 540), (960, 540), (960, 540), (960, 540), (960, 540), (960, 540), (960, 540), (960, 540), (960, 540), (960, 540), (960, 540), (960, 540), (960, 540), (960, 540), (960, 540), (960, 540), (960, 540), (960, 540), (960, 540), (960, 540), (960, 540), (960, 540), (960, 540), (960, 540), (960, 540), (960, 540), (960, 540), (960, 540), (960, 540), (960, 540), (960, 540), (960, 540), (960, 540), (960, 540), (960, 540), (960, 540), (960, 540), (960, 540), (960, 540), (960, 540), (959, 544), (958, 549), (956, 553), (955, 555), (955, 563), (955, 565), (955, 566), (955, 568), (955, 570), (955, 571), (955, 571), (955, 572), (955, 572), (955, 572), (955, 573), (955, 573), (955, 573), (955, 573), (955, 573), (955, 573), (955, 573), (955, 573), (955, 573), (955, 573), (955, 573), (955, 573), (955, 573), (955, 573), (955, 573), (955, 573), (955, 573), (955, 573), (955, 573), (955, 573), (955, 573), (955, 573), (955, 573), (955, 573), (955, 573), (955, 573), (955, 573), (955, 573), (955, 573), (955, 573), (955, 573), (955, 573), (955, 573), (955, 573), (955, 573), (955, 573), (955, 573), (955, 573), (955, 573), (955, 573), (955, 573), (955, 573), (955, 573), (955, 573), (955, 573), (955, 573), (955, 573), (955, 573), (955, 573), (955, 573), (955, 573), (955, 573), (955, 573), (955, 573), (955, 573), (955, 573), (955, 573), (955, 573), (955, 573), (955, 573), (955, 573), (955, 573), (955, 573), (955, 573), (955, 573), (955, 573), (955, 573), (955, 573), (955, 573), (955, 573), (955, 573), (955, 573), (955, 573), (955, 573), (955, 573), (955, 573), (955, 573), (955, 573), (955, 573), (955, 573), (955, 573), (955, 573), (955, 573), (955, 573), (955, 573), (955, 573), (955, 573), (955, 573), (955, 573), (955, 573), (955, 573), (955, 573), (955, 573), (955, 573), (955, 573), (955, 573), (955, 573), (955, 573), (955, 573), (955, 573), (955, 573), (955, 573), (955, 573), (955, 573), (955, 573), (955, 573), (955, 573), (955, 573), (955, 573), (955, 573), (955, 573), (955, 573), (955, 573), (955, 573), (955, 573), (955, 573), (955, 573), (955, 573), (955, 573), (955, 573), (955, 573), (955, 573), (955, 573), (955, 573), (955, 573), (955, 573), (955, 573), (955, 573), (955, 573), (955, 573), (952, 578), (952, 581), (952, 582), (951, 584), (950, 593), (950, 602), (950, 615), (950, 628), (948, 670), (946, 698), (943, 727), (936, 765), (916, 861), (899, 927), (881, 1001)]",99.72412886873295,"[4, 8, 5, 9, 2, 7, 3, 1, 6]","(0, 0.25)",CHN011C,CHN,C,English,Tue Sep 04 11:29:10 2018,Mouse
1,1,3,0,33,7,7,1,649,289,360,136,0,500,200,8000,"[(960, 540), (960, 540), (960, 540), (960, 540), (960, 540), (960, 540), (960, 540), (960, 540), (960, 540), (960, 540), (960, 540), (960, 540), (960, 540), (960, 540), (960, 540), (960, 540), (960, 540), (960, 540), (960, 540), (960, 540), (960, 540), (960, 540), (960, 540), (960, 540), (960, 540), (960, 540), (960, 540), (960, 540), (960, 539), (960, 539), (960, 539), (961, 539), (961, 539), (961, 539), (961, 539), (961, 539), (961, 539), (961, 539), (961, 539), (961, 539), (961, 539), (961, 538), (961, 538), (961, 538), (961, 538), (961, 538), (961, 538), (961, 538), (958, 537), (958, 536), (955, 534), (950, 532), (932, 518), (923, 511), (914, 503), (903, 495), (872, 473), (849, 457), (818, 433), (795, 415), (740, 367), (714, 345), (696, 324), (679, 304), (636, 263)]",220.52839929055276,"[4, 8, 5, 9, 2, 7, 3, 1, 6]","(0, 0.25)",CHN011C,CHN,C,English,Tue Sep 04 11:29:10 2018,Mouse
1,1,3,0,34,8,8,1,1769,589,1180,136,0,500,200,8000,"[(960, 540), (960, 540), (960, 540), (960, 540), (960, 540), (960, 540), (960, 540), (960, 540), (960, 540), (960, 540), (960, 540), (960, 540), (960, 540), (960, 540), (960, 540), (960, 540), (960, 540), (960, 540), (960, 540), (960, 540), (960, 540), (960, 540), (960, 540), (960, 540), (960, 540), (960, 540), (960, 540), (960, 540), (960, 540), (960, 540), (960, 540), (960, 540), (960, 540), (960, 540), (960, 540), (960, 540), (960, 540), (960, 540), (960, 540), (960, 540), (960, 540), (960, 540), (960, 540), (960, 540), (960, 540), (960, 540), (960, 540), (960, 540), (960, 540), (960, 540), (960, 540), (960, 540), (960, 540), (960, 540), (960, 540), (960, 540), (960, 540), (960, 540), (960, 541), (960, 541), (960, 542), (960, 542), (961, 544), (961, 544), (962, 545), (962, 545), (962, 546), (962, 546), (962, 546), (963, 546), (963, 546), (963, 546), (963, 546), (963, 546), (963, 546), (963, 546), (963, 546), (963, 546), (963, 547), (963, 547), (963, 547), (963, 547), (963, 547), (963, 547), (963, 547), (963, 547), (963, 547), (963, 547), (963, 547), (963, 547), (963, 547), (963, 547), (963, 547), (963, 547), (963, 547), (963, 547), (963, 547), (963, 547), (963, 547), (963, 547), (963, 547), (963, 547), (963, 547), (963, 547), (963, 547), (963, 547), (963, 547), (963, 548), (963, 548), (963, 548), (963, 548), (963, 548), (963, 549), (963, 549), (963, 549), (963, 549), (963, 549), (963, 549), (963, 549), (963, 549), (963, 549), (963, 549), (963, 549), (963, 550), (963, 550), (963, 550), (963, 550), (963, 551), (963, 551), (963, 552), (963, 552), (963, 553), (963, 556), (963, 559), (963, 563), (963, 565), (963, 567), (963, 569), (963, 572), (965, 575), (965, 575), (966, 576), (967, 577), (967, 577), (967, 578), (967, 579), (968, 582), (969, 585), (970, 588), (970, 592), (971, 601), (972, 606), (973, 611), (975, 619), (983, 634), (988, 644), (995, 654), (1002, 666), (1016, 687), (1024, 697), (1030, 706), (1037, 716), (1052, 737), (1058, 747), (1063, 757), (1070, 767), (1082, 790), (1090, 805), (1098, 817), (1105, 828), (1119, 847), (1126, 856), (1133, 864), (1139, 869), (1151, 879), (1158, 883), (1162, 886)]",59.722975061750226,"[4, 8, 5, 9, 2, 7, 3, 1, 6]","(0, 0.25)",CHN011C,CHN,C,English,Tue Sep 04 11:29:10 2018,Mouse
1,1,3,0,35,9,9,1,741,471,270,135,0,500,200,8000,"[(960, 540), (960, 540), (960, 540), (960, 540), (960, 540), (960, 540), (960, 540), (960, 540), (960, 540), (960, 540), (960, 540), (960, 540), (960, 540), (960, 540), (960, 540), (960, 540), (960, 540), (960, 540), (960, 540), (960, 540), (960, 540), (960, 540), (960, 540), (960, 540), (960, 540), (960, 540), (960, 540), (960, 540), (960, 540), (960, 540), (960, 540), (960, 540), (960, 540), (960, 540), (960, 540), (960, 540), (960, 540), (960, 540), (960, 540), (960, 540), (960, 540), (960, 540), (960, 540), (960, 540), (960, 540), (960, 540), (960, 540), (958, 539), (958, 539), (954, 539), (951, 541), (945, 542), (940, 546), (925, 556), (916, 560), (910, 566), (903, 572), (885, 585), (873, 596), (858, 607), (846, 617), (811, 646), (795, 660), (778, 675), (763, 685), (741, 702), (730, 710), (718, 717), (708, 726), (687, 742), (678, 750), (671, 756), (660, 765), (645, 777), (638, 783)]",142.9596642465351,"[4, 8, 5, 9, 2, 7, 3, 1, 6]","(0, 0.25)",CHN011C,CHN,C,English,Tue Sep 04 11:29:10 2018,Mouse
1,1,3,0,36,5,6,0,-2219,459,1760,134,0,500,200,8000,"[(960, 540), (960, 540), (960, 540), (960, 540), (960, 540), (960, 540), (960, 540), (960, 540), (960, 540), (960, 540), (960, 540), (960, 540), (960, 540), (960, 540), (960, 540), (960, 540), (960, 540), (960, 540), (960, 540), (960, 540), (960, 540), (960, 540), (960, 540), (960, 540), (960, 540), (960, 540), (960, 540), (960, 540), (960, 540), (960, 540), (960, 540), (960, 540), (960, 540), (960, 540), (960, 540), (960, 540), (960, 540), (960, 540), (960, 540), (960, 540), (960, 540), (960, 540), (960, 540), (960, 540), (960, 540), (959, 540), (959, 540), (959, 540), (958, 540), (957, 541), (957, 541), (957, 541), (956, 541), (956, 541), (956, 541), (956, 541), (956, 541), (956, 541), (956, 541), (956, 541), (956, 541), (956, 541), (956, 541), (956, 541), (956, 541), (956, 541), (956, 541), (956, 541), (956, 541), (956, 541), (956, 541), (956, 541), (956, 541), (956, 541), (956, 541), (956, 541), (956, 541), (956, 541), (956, 541), (956, 541), (956, 541), (956, 541), (956, 541), (956, 541), (956, 541), (956, 541), (956, 541), (956, 541), (956, 541), (956, 541), (956, 541), (956, 541), (956, 541), (956, 541), (956, 541), (956, 541), (956, 541), (956, 541), (956, 541), (956, 541), (956, 541), (956, 541), (956, 541), (956, 541), (956, 541), (956, 541), (956, 541), (956, 541), (956, 541), (956, 541), (956, 541), (956, 541), (956, 541), (956, 541), (956, 541), (956, 541), (956, 541), (956, 541), (956, 541), (956, 541), (956, 541), (956, 541), (956, 541), (956, 541), (956, 541), (956, 541), (956, 541), (956, 541), (956, 541), (956, 541), (956, 541), (956, 541), (956, 541), (956, 541), (956, 541), (956, 541), (956, 541), (956, 541), (956, 541), (956, 541), (956, 541), (956, 541), (956, 541), (956, 541), (956, 541), (956, 541), (956, 541), (956, 541), (956, 541), (956, 541), (956, 541), (956, 541), (956, 541), (956, 541), (956, 541), (956, 541), (956, 541), (956, 541), (956, 541), (956, 541), (956, 541), (956, 541), (956, 541), (956, 541), (956, 541), (956, 541), (956, 541), (956, 541), (956, 541), (957, 541), (957, 541), (960, 540), (962, 539), (970, 535), (976, 532), (982, 528), (988, 523), (999, 514), (1006, 509), (1013, 504), (1022, 497), (1038, 486), (1048, 481), (1060, 475), (1067, 471), (1082, 464), (1091, 460), (1098, 457), (1104, 455), (1119, 451), (1127, 449), (1135, 445), (1142, 444), (1161, 439), (1166, 438), (1174, 435), (1181, 434), (1196, 431), (1202, 431), (1210, 430), (1215, 429), (1226, 428), (1233, 426), (1239, 425), (1244, 425), (1253, 423), (1259, 423), (1263, 421), (1268, 421), (1280, 420), (1286, 418), (1292, 418), (1299, 416), (1309, 415), (1313, 414), (1317, 414), (1321, 414), (1327, 412), (1330, 411), (1333, 410), (1335, 410), (1338, 409)]",340.8856864216127,"[4, 8, 5, 9, 2, 7, 3, 1, 6]","(0, 0.25)",CHN011C,CHN,C,English,Tue Sep 04 11:29:10 2018,Mouse
1,1,3,0,37,6,9,0,-2266,366,1900,135,0,500,200,8000,"[(960, 540), (960, 540), (960, 540), (960, 540), (960, 540), (960, 540), (960, 540), (960, 540), (960, 540), (960, 540), (960, 540), (960, 540), (960, 540), (960, 540), (960, 540), (960, 540), (960, 540), (960, 540), (960, 540), (960, 540), (960, 540), (960, 540), (960, 540), (960, 540), (960, 540), (960, 540), (960, 540), (960, 540), (960, 540), (960, 540), (960, 540), (960, 540), (960, 540), (960, 540), (960, 540), (960, 540), (959, 541), (959, 541), (957, 541), (956, 541), (956, 541), (955, 543), (953, 543), (953, 543), (953, 543), (953, 543), (952, 544), (952, 544), (952, 544), (952, 544), (952, 544), (952, 544), (952, 544), (952, 544), (952, 544), (952, 544), (952, 544), (952, 544), (952, 544), (952, 544), (952, 544), (952, 544), (952, 544), (952, 544), (952, 544), (952, 544), (952, 544), (952, 544), (952, 544), (952, 544), (952, 544), (952, 544), (952, 544), (952, 544), (952, 544), (952, 544), (952, 544), (952, 544), (952, 544), (952, 544), (952, 544), (952, 544), (952, 544), (952, 544), (952, 544), (952, 544), (952, 544), (952, 544), (952, 544), (952, 544), (952, 544), (952, 544), (952, 544), (952, 544), (952, 544), (952, 544), (952, 544), (952, 544), (952, 544), (952, 544), (952, 544), (952, 544), (952, 544), (952, 544), (952, 544), (952, 544), (952, 544), (951, 546), (951, 546), (951, 546), (951, 546), (950, 547), (950, 547), (950, 547), (950, 547), (950, 547), (950, 547), (950, 547), (950, 547), (950, 547), (950, 547), (950, 547), (950, 547), (950, 547), (950, 547), (950, 547), (950, 547), (950, 547), (950, 547), (950, 547), (950, 547), (950, 547), (950, 547), (950, 547), (950, 547), (950, 547), (950, 547), (950, 547), (950, 547), (950, 547), (950, 547), (950, 547), (950, 547), (949, 547), (949, 547), (949, 547), (949, 547), (949, 547), (949, 547), (949, 547), (948, 548), (948, 548), (948, 548), (947, 548), (946, 549), (945, 550), (945, 550), (944, 551), (942, 552), (942, 552), (940, 554), (937, 555), (931, 561), (927, 565), (921, 570), (916, 574), (905, 585), (897, 590), (891, 596), (882, 603), (867, 617), (858, 624), (849, 631), (841, 637), (821, 654), (809, 662), (801, 669), (790, 676), (770, 689), (763, 693), (753, 699), (743, 705), (726, 714), (720, 717), (714, 720), (710, 722), (700, 727), (698, 728), (697, 728), (695, 728), (694, 729), (692, 730), (691, 730), (691, 731), (689, 732), (688, 732), (687, 732), (684, 734), (680, 736), (678, 736), (675, 737), (674, 738), (669, 741), (667, 743), (665, 744), (661, 746), (657, 749), (653, 752), (652, 753), (650, 755), (646, 758), (643, 761), (643, 761), (642, 761), (640, 763), (640, 763), (639, 763), (639, 765), (638, 765), (637, 766), (636, 767), (636, 767), (635, 768), (635, 768), (634, 770), (633, 770), (632, 771)]",144.84417773327257,"[4, 8, 5, 9, 2, 7, 3, 1, 6]","(0, 0.25)",CHN011C,CHN,C,English,Tue Sep 04 11:29:10 2018,Mouse
1,1,3,0,38,3,3,1,638,408,230,136,0,500,200,8000,"[(960, 540), (960, 540), (960, 540), (960, 540), (960, 540), (960, 540), (960, 540), (960, 540), (960, 540), (960, 540), (960, 540), (960, 540), (960, 540), (960, 540), (960, 540), (960, 540), (960, 540), (960, 540), (960, 540), (960, 540), (960, 540), (960, 540), (960, 540), (960, 540), (960, 540), (960, 540), (960, 540), (960, 540), (960, 540), (960, 540), (960, 540), (960, 540), (960, 540), (960, 540), (960, 540), (960, 540), (960, 540), (960, 540), (960, 540), (960, 540), (960, 536), (960, 530), (961, 515), (964, 502), (965, 491), (965, 477), (965, 449), (965, 436), (965, 422), (965, 405), (956, 344), (953, 320), (953, 304), (950, 287), (950, 257), (950, 242), (948, 228), (947, 216), (943, 190), (941, 179), (938, 166), (936, 158), (932, 142), (931, 136)]",265.89422639429097,"[4, 8, 5, 9, 2, 7, 3, 1, 6]","(0, 0.25)",CHN011C,CHN,C,English,Tue Sep 04 11:29:10 2018,Mouse
1,1,3,0,39,1,1,1,459,219,240,136,0,500,200,8000,"[(960, 540), (960, 540), (960, 540), (960, 540), (960, 540), (960, 540), (960, 540), (960, 540), (960, 540), (960, 540), (960, 540), (960, 540), (960, 540), (960, 540), (960, 540), (960, 540), (960, 540), (960, 540), (960, 540), (960, 540), (960, 540), (959, 539), (959, 539), (959, 539), (959, 539), (959, 539), (959, 539), (959, 539), (959, 539), (964, 532), (971, 522), (983, 504), (994, 490), (1023, 450), (1039, 428), (1056, 407), (1077, 381), (1098, 352), (1105, 341), (1112, 328), (1118, 315), (1132, 270), (1141, 240), (1144, 223), (1147, 207), (1153, 160)]",296.92577534806895,"[4, 8, 5, 9, 2, 7, 3, 1, 6]","(0, 0.25)",CHN011C,CHN,C,English,Tue Sep 04 11:29:10 2018,Mouse
1,1,3,0,40,8,9,0,-1380,330,1050,135,0,500,200,8000,"[(960, 540), (960, 540), (960, 540), (960, 540), (960, 540), (960, 540), (960, 540), (960, 540), (960, 540), (960, 540), (960, 540), (960, 540), (960, 540), (960, 540), (960, 540), (960, 540), (960, 540), (960, 540), (960, 540), (960, 540), (960, 540), (960, 540), (960, 540), (960, 540), (960, 540), (960, 540), (960, 540), (960, 540), (960, 540), (960, 540), (960, 540), (960, 540), (960, 541), (960, 541), (960, 541), (960, 541), (960, 541), (960, 541), (960, 541), (960, 541), (960, 541), (960, 541), (960, 541), (960, 541), (960, 541), (960, 541), (960, 541), (960, 541), (960, 541), (960, 541), (960, 541), (960, 541), (960, 541), (960, 541), (960, 541), (960, 541), (960, 541), (960, 541), (960, 541), (960, 541), (960, 541), (960, 541), (960, 541), (960, 541), (960, 541), (960, 541), (960, 541), (960, 541), (960, 541), (960, 541), (960, 541), (960, 541), (960, 541), (960, 541), (960, 541), (960, 541), (960, 541), (960, 541), (960, 541), (960, 541), (960, 541), (960, 541), (960, 541), (960, 541), (960, 541), (960, 541), (960, 541), (960, 541), (960, 541), (960, 541), (960, 541), (960, 541), (960, 541), (960, 541), (959, 541), (959, 541), (958, 541), (958, 542), (957, 543), (957, 543), (957, 543), (956, 543), (953, 545), (952, 547), (949, 550), (945, 553), (934, 562), (928, 566), (920, 570), (913, 574), (897, 589), (890, 599), (880, 608), (870, 617), (851, 635), (843, 645), (834, 656), (826, 663), (811, 679), (802, 685), (793, 693), (785, 700), (770, 713), (764, 718), (757, 723), (750, 729), (736, 737), (728, 743), (720, 746), (713, 750), (698, 755), (690, 759), (682, 763), (674, 766), (658, 772), (653, 775), (647, 778), (640, 781)]",143.01568257712643,"[4, 8, 5, 9, 2, 7, 3, 1, 6]","(0, 0.25)",CHN011C,CHN,C,English,Tue Sep 04 11:29:10 2018,Mouse
1,1,3,0,41,6,6,1,1349,899,450,136,0,500,200,8000,"[(960, 540), (960, 540), (960, 540), (960, 540), (960, 540), (960, 540), (960, 540), (960, 540), (960, 540), (960, 540), (960, 540), (960, 540), (960, 540), (960, 540), (960, 540), (960, 540), (960, 540), (960, 540), (960, 540), (960, 540), (960, 540), (960, 540), (960, 540), (960, 540), (960, 540), (960, 540), (960, 540), (960, 540), (960, 540), (960, 540), (960, 540), (960, 540), (960, 540), (960, 540), (960, 540), (960, 540), (960, 540), (960, 540), (960, 540), (960, 540), (960, 540), (960, 540), (960, 540), (960, 540), (960, 540), (960, 540), (960, 540), (960, 540), (960, 540), (960, 540), (960, 540), (960, 540), (960, 540), (960, 540), (960, 540), (960, 540), (960, 540), (960, 540), (960, 540), (960, 540), (960, 540), (960, 540), (960, 540), (960, 540), (960, 540), (960, 540), (960, 540), (960, 540), (960, 540), (960, 540), (960, 540), (960, 540), (960, 540), (960, 540), (960, 540), (960, 540), (960, 540), (960, 540), (960, 540), (960, 540), (960, 540), (960, 540), (960, 540), (960, 540), (960, 540), (960, 540), (960, 540), (960, 540), (960, 540), (961, 540), (963, 540), (969, 539), (974, 539), (980, 537), (985, 536), (1001, 535), (1010, 534), (1020, 534), (1030, 530), (1044, 529), (1051, 528), (1056, 527), (1061, 527), (1071, 524), (1077, 522), (1083, 521), (1087, 519), (1099, 515), (1104, 514), (1108, 512), (1114, 511), (1126, 507), (1133, 506), (1139, 504), (1149, 501), (1164, 497), (1170, 495), (1179, 494), (1187, 491), (1202, 486), (1210, 483), (1220, 481), (1227, 479), (1246, 474), (1256, 469), (1263, 467), (1270, 464), (1288, 459), (1297, 454), (1306, 451), (1313, 448), (1329, 441), (1336, 438), (1342, 436), (1348, 433)]",344.58257074100555,"[4, 8, 5, 9, 2, 7, 3, 1, 6]","(0, 0.25)",CHN011C,CHN,C,English,Tue Sep 04 11:29:10 2018,Mouse
1,1,3,0,42,9,9,1,598,318,280,136,0,500,200,8000,"[(960, 540), (960, 540), (960, 540), (960, 540), (960, 540), (960, 540), (960, 540), (960, 540), (960, 540), (960, 540), (960, 540), (960, 540), (960, 540), (960, 540), (960, 540), (960, 540), (960, 540), (960, 540), (960, 540), (960, 540), (960, 540), (960, 540), (960, 540), (960, 540), (960, 540), (960, 540), (960, 540), (960, 540), (960, 540), (960, 540), (960, 540), (959, 540), (958, 540), (954, 542), (950, 543), (944, 547), (938, 549), (933, 553), (925, 558), (910, 572), (903, 581), (892, 593), (884, 604), (861, 628), (847, 640), (835, 651), (823, 661), (793, 685), (784, 694), (772, 705), (757, 717), (734, 733), (724, 740), (713, 746), (702, 752), (681, 763), (674, 767), (665, 769), (655, 776), (637, 784)]",142.93194580400416,"[4, 8, 5, 9, 2, 7, 3, 1, 6]","(0, 0.25)",CHN011C,CHN,C,English,Tue Sep 04 11:29:10 2018,Mouse
1,1,3,0,43,8,8,1,3420,1420,2000,135,0,500,200,8000,"[(960, 540), (960, 540), (960, 540), (960, 540), (960, 540), (960, 540), (960, 540), (960, 540), (960, 540), (960, 540), (960, 540), (960, 540), (960, 540), (960, 540), (960, 540), (960, 540), (960, 540), (960, 540), (960, 540), (960, 540), (960, 540), (960, 540), (960, 540), (960, 540), (960, 540), (960, 540), (960, 540), (960, 540), (960, 540), (960, 540), (960, 540), (960, 540), (960, 540), (960, 540), (960, 540), (960, 540), (960, 540), (960, 540), (960, 540), (960, 540), (960, 540), (960, 540), (960, 540), (960, 540), (960, 540), (960, 540), (960, 540), (960, 540), (960, 540), (960, 540), (960, 540), (960, 540), (960, 540), (960, 540), (960, 540), (960, 540), (960, 540), (960, 540), (960, 540), (960, 540), (960, 540), (960, 540), (960, 540), (960, 540), (960, 540), (960, 540), (960, 540), (960, 540), (960, 540), (960, 540), (960, 540), (960, 540), (960, 540), (960, 540), (960, 540), (960, 540), (960, 540), (960, 540), (960, 540), (960, 540), (960, 540), (960, 540), (960, 540), (960, 540), (960, 540), (960, 540), (960, 540), (960, 540), (960, 540), (960, 540), (960, 540), (960, 540), (960, 540), (960, 540), (960, 540), (960, 540), (960, 540), (960, 540), (960, 540), (960, 540), (960, 540), (960, 540), (960, 540), (960, 540), (960, 540), (960, 540), (960, 540), (960, 540), (960, 540), (960, 540), (960, 540), (960, 540), (960, 540), (960, 540), (960, 540), (960, 540), (960, 540), (960, 540), (960, 540), (960, 540), (960, 540), (960, 540), (960, 540), (960, 540), (960, 540), (960, 540), (960, 540), (960, 540), (960, 540), (960, 540), (960, 540), (960, 540), (960, 540), (960, 540), (960, 540), (960, 540), (960, 540), (960, 540), (960, 540), (960, 540), (960, 540), (959, 541), (959, 542), (958, 542), (958, 543), (958, 543), (958, 546), (958, 546), (958, 547), (958, 548), (958, 549), (958, 551), (958, 552), (958, 553), (958, 559), (958, 562), (955, 568), (953, 579), (946, 606), (942, 619), (940, 633), (940, 648), (940, 672), (940, 682), (940, 689), (941, 699), (946, 707), (947, 708), (950, 711), (950, 711), (954, 713), (956, 713), (959, 714), (959, 714), (961, 715), (961, 715), (962, 716), (962, 717), (968, 726), (972, 731), (976, 737), (982, 744), (996, 756), (1008, 764), (1017, 769), (1027, 775), (1043, 783), (1049, 786), (1055, 788), (1059, 791), (1065, 795), (1069, 797), (1069, 798), (1069, 798), (1070, 799), (1070, 799), (1070, 799), (1070, 799), (1070, 802), (1071, 803), (1071, 803), (1071, 804), (1072, 805), (1072, 805), (1073, 808), (1074, 808), (1076, 810), (1078, 812), (1079, 813), (1080, 815), (1082, 817), (1084, 820), (1085, 820), (1085, 820), (1085, 821), (1085, 821), (1085, 821), (1085, 821), (1085, 821), (1085, 821), (1085, 821), (1085, 821), (1085, 821), (1085, 821), (1085, 821), (1085, 821), (1085, 822), (1085, 822), (1085, 824), (1086, 825), (1087, 827), (1088, 829), (1089, 832), (1090, 834), (1094, 840), (1094, 841), (1096, 843), (1096, 843), (1097, 845), (1097, 846), (1097, 846), (1097, 847), (1097, 848), (1097, 848), (1097, 850), (1097, 850), (1097, 850), (1097, 851), (1097, 852), (1097, 853), (1097, 856), (1098, 857), (1098, 860), (1098, 861), (1100, 863), (1100, 864), (1100, 866), (1100, 866), (1104, 870), (1104, 872), (1104, 872), (1105, 873), (1106, 874), (1106, 875), (1107, 876), (1108, 878), (1108, 878), (1108, 879), (1110, 880), (1110, 880), (1111, 882), (1111, 882), (1111, 883), (1111, 883), (1112, 884), (1112, 884), (1112, 885), (1112, 885), (1112, 885), (1113, 886), (1113, 886), (1113, 886), (1113, 886), (1113, 886), (1113, 886), (1113, 886), (1113, 886), (1113, 886), (1113, 886), (1113, 886), (1113, 887), (1113, 887), (1113, 887), (1113, 887), (1113, 888), (1113, 888), (1113, 888), (1114, 889), (1114, 890), (1114, 891), (1114, 891), (1114, 893), (1114, 894), (1114, 896), (1114, 896), (1115, 897), (1115, 897), (1115, 897), (1115, 897), (1115, 897), (1115, 897), (1115, 897), (1115, 899), (1115, 899), (1116, 900), (1116, 900), (1116, 900), (1116, 900), (1117, 901), (1117, 901), (1117, 902), (1117, 902), (1117, 902), (1117, 902), (1117, 902), (1117, 902), (1117, 902), (1117, 902), (1117, 902), (1117, 902), (1117, 902), (1117, 902), (1117, 902), (1117, 902), (1117, 902), (1117, 902), (1117, 902), (1117, 902), (1118, 903), (1118, 904), (1118, 906), (1120, 907)]",66.44437251688711,"[4, 8, 5, 9, 2, 7, 3, 1, 6]","(0, 0.25)",CHN011C,CHN,C,English,Tue Sep 04 11:29:10 2018,Mouse
1,1,3,0,44,2,6,0,-1770,1360,410,134,0,500,200,8000,"[(960, 540), (960, 540), (960, 540), (960, 540), (960, 540), (960, 540), (960, 540), (960, 540), (960, 540), (960, 540), (960, 540), (960, 540), (960, 540), (960, 540), (960, 540), (960, 540), (960, 540), (960, 540), (960, 540), (960, 540), (960, 540), (960, 540), (960, 540), (960, 540), (960, 540), (960, 540), (960, 540), (960, 540), (960, 540), (960, 540), (960, 540), (960, 540), (960, 540), (960, 540), (960, 540), (960, 540), (960, 540), (960, 540), (960, 540), (960, 540), (960, 540), (960, 540), (960, 540), (960, 540), (960, 540), (960, 540), (960, 540), (960, 540), (960, 540), (960, 540), (960, 540), (960, 540), (960, 540), (960, 540), (960, 540), (960, 540), (960, 540), (960, 540), (960, 540), (960, 540), (960, 540), (960, 540), (960, 540), (960, 540), (960, 540), (960, 540), (960, 540), (960, 540), (960, 540), (960, 540), (960, 540), (960, 540), (960, 540), (960, 540), (960, 540), (960, 540), (960, 540), (960, 540), (960, 540), (960, 540), (960, 540), (960, 540), (960, 540), (960, 540), (960, 540), (960, 540), (960, 540), (960, 540), (960, 540), (960, 540), (960, 540), (960, 540), (960, 540), (960, 540), (960, 540), (960, 540), (960, 540), (960, 540), (960, 540), (960, 540), (960, 540), (960, 540), (960, 540), (960, 540), (960, 540), (960, 540), (960, 540), (960, 540), (960, 540), (960, 540), (960, 540), (960, 540), (960, 540), (960, 540), (960, 540), (960, 540), (960, 540), (960, 540), (960, 540), (960, 540), (960, 540), (960, 540), (960, 540), (960, 540), (960, 540), (960, 540), (960, 540), (960, 540), (960, 540), (960, 540), (960, 540), (960, 540), (960, 540), (960, 540), (960, 540), (962, 540), (965, 539), (971, 537), (976, 534), (988, 529), (996, 526), (1005, 521), (1015, 515), (1037, 503), (1048, 496), (1057, 490), (1066, 485), (1087, 474), (1096, 468), (1105, 461), (1115, 456), (1134, 444), (1144, 438), (1154, 432), (1166, 427), (1182, 417), (1189, 415), (1196, 412), (1204, 410), (1214, 405), (1223, 402), (1230, 400), (1237, 397), (1250, 394), (1259, 391), (1266, 389), (1274, 386), (1286, 384), (1295, 381), (1299, 381), (1303, 380), (1312, 379), (1316, 379), (1317, 379), (1321, 377), (1325, 377), (1326, 377)]",335.99395114062145,"[4, 8, 5, 9, 2, 7, 3, 1, 6]","(0, 0.25)",CHN011C,CHN,C,English,Tue Sep 04 11:29:10 2018,Mouse
1,1,3,0,45,2,2,1,1339,179,1160,135,0,500,200,8000,"[(960, 540), (960, 540), (960, 540), (960, 540), (960, 540), (960, 540), (960, 540), (960, 540), (960, 540), (960, 540), (960, 540), (960, 540), (960, 540), (960, 540), (960, 540), (960, 540), (960, 540), (958, 540), (958, 541), (957, 541), (953, 542), (952, 543), (951, 543), (950, 544), (950, 544), (949, 544), (948, 544), (948, 544), (947, 546), (947, 546), (947, 546), (947, 546), (947, 546), (947, 546), (947, 546), (947, 546), (947, 546), (947, 546), (947, 546), (947, 546), (947, 546), (947, 546), (947, 546), (947, 546), (947, 546), (947, 546), (947, 546), (947, 546), (947, 546), (947, 546), (947, 546), (947, 546), (947, 546), (947, 546), (947, 546), (947, 546), (947, 546), (947, 546), (947, 546), (947, 546), (947, 546), (947, 546), (947, 546), (947, 546), (947, 546), (947, 546), (947, 546), (947, 546), (947, 546), (947, 546), (947, 546), (947, 546), (947, 546), (947, 546), (947, 546), (947, 546), (947, 546), (947, 546), (947, 546), (947, 546), (947, 546), (947, 546), (947, 546), (947, 546), (947, 546), (947, 546), (947, 546), (947, 546), (947, 546), (947, 546), (947, 546), (947, 546), (947, 546), (947, 546), (947, 546), (947, 546), (947, 546), (947, 546), (947, 546), (947, 546), (947, 546), (947, 546), (947, 546), (947, 546), (947, 546), (947, 546), (947, 546), (947, 546), (947, 546), (947, 546), (947, 546), (947, 546), (947, 546), (944, 547), (941, 548), (938, 551), (934, 553), (915, 562), (904, 568), (891, 574), (879, 578), (855, 585), (841, 589), (826, 590), (809, 592), (764, 592), (742, 592), (722, 592), (702, 592), (658, 592), (635, 592), (610, 592), (588, 592), (540, 586)]",173.74966042221953,"[4, 8, 5, 9, 2, 7, 3, 1, 6]","(0, 0.25)",CHN011C,CHN,C,English,Tue Sep 04 11:29:10 2018,Mouse
1,1,3,0,46,4,4,1,2039,1749,290,135,0,500,200,8000,"[(960, 540), (960, 540), (960, 540), (960, 540), (960, 540), (960, 540), (960, 540), (960, 540), (960, 540), (960, 540), (960, 540), (960, 540), (960, 540), (960, 540), (960, 540), (960, 540), (960, 540), (960, 540), (960, 540), (960, 540), (960, 540), (960, 540), (960, 540), (960, 540), (960, 540), (960, 540), (960, 540), (960, 540), (960, 540), (960, 540), (960, 540), (960, 540), (960, 540), (960, 540), (960, 540), (960, 540), (960, 540), (960, 540), (960, 540), (960, 540), (960, 540), (960, 540), (960, 540), (960, 540), (960, 540), (960, 540), (960, 540), (960, 540), (960, 540), (960, 540), (960, 540), (960, 540), (960, 540), (960, 540), (960, 540), (960, 540), (960, 540), (960, 540), (960, 540), (960, 540), (960, 540), (960, 540), (960, 540), (960, 540), (960, 540), (960, 540), (960, 540), (960, 540), (960, 540), (960, 540), (960, 540), (960, 540), (960, 540), (960, 540), (960, 540), (960, 540), (960, 540), (960, 540), (960, 540), (960, 540), (960, 540), (960, 540), (960, 540), (960, 540), (960, 540), (960, 540), (960, 540), (960, 540), (960, 540), (960, 540), (960, 540), (960, 540), (960, 540), (960, 540), (960, 540), (960, 540), (960, 540), (960, 540), (960, 540), (960, 540), (960, 540), (960, 540), (960, 540), (960, 540), (960, 540), (960, 540), (960, 540), (960, 540), (960, 540), (960, 540), (960, 540), (960, 540), (960, 540), (960, 540), (960, 540), (960, 540), (960, 540), (960, 540), (960, 540), (960, 540), (960, 540), (960, 540), (960, 540), (960, 540), (960, 540), (960, 540), (960, 540), (960, 540), (960, 540), (960, 540), (960, 540), (960, 540), (960, 540), (960, 540), (960, 540), (960, 540), (960, 540), (960, 540), (960, 540), (960, 540), (960, 540), (960, 540), (960, 540), (960, 540), (960, 540), (960, 540), (960, 540), (960, 540), (960, 540), (960, 540), (960, 540), (960, 540), (960, 540), (960, 540), (960, 540), (960, 540), (960, 540), (960, 540), (960, 540), (960, 540), (960, 540), (960, 540), (960, 540), (960, 540), (960, 540), (960, 540), (960, 540), (960, 540), (960, 540), (960, 540), (960, 540), (960, 540), (960, 540), (960, 540), (961, 540), (963, 540), (967, 540), (973, 542), (991, 550), (1001, 554), (1012, 559), (1027, 565), (1053, 575), (1066, 580), (1084, 585), (1101, 590), (1141, 603), (1159, 612), (1174, 616), (1191, 623), (1221, 632), (1235, 637), (1247, 639), (1256, 642), (1279, 649), (1286, 649), (1293, 650), (1300, 652), (1313, 654), (1319, 656), (1323, 659), (1329, 660), (1338, 662), (1343, 663)]",17.80436035946782,"[4, 8, 5, 9, 2, 7, 3, 1, 6]","(0, 0.25)",CHN011C,CHN,C,English,Tue Sep 04 11:29:10 2018,Mouse
1,1,3,0,47,3,9,0,-560,370,190,134,0,500,200,8000,"[(960, 540), (960, 540), (960, 540), (960, 540), (960, 540), (960, 540), (960, 540), (960, 540), (960, 540), (960, 540), (960, 540), (960, 540), (960, 540), (960, 540), (960, 540), (960, 540), (960, 540), (960, 540), (960, 540), (960, 540), (960, 540), (960, 540), (960, 540), (960, 540), (960, 540), (960, 540), (960, 540), (960, 540), (960, 540), (960, 540), (960, 540), (960, 540), (960, 540), (960, 540), (960, 540), (960, 540), (961, 541), (952, 547), (942, 551), (931, 558), (922, 564), (906, 571), (900, 576), (889, 582), (878, 588), (849, 599), (833, 606), (816, 613), (801, 620), (769, 635), (753, 643), (728, 651), (698, 660), (629, 675), (588, 685), (552, 696)]",159.07549825507886,"[4, 8, 5, 9, 2, 7, 3, 1, 6]","(0, 0.25)",CHN011C,CHN,C,English,Tue Sep 04 11:29:10 2018,Mouse
1,1,3,0,48,5,5,1,1010,200,810,135,0,500,200,8000,"[(960, 540), (960, 540), (960, 540), (960, 540), (960, 540), (960, 540), (960, 540), (960, 540), (960, 540), (960, 540), (960, 540), (960, 540), (960, 540), (960, 540), (960, 540), (960, 540), (960, 540), (960, 540), (960, 540), (959, 541), (959, 541), (959, 542), (958, 542), (958, 543), (957, 545), (957, 546), (957, 547), (957, 548), (957, 549), (957, 549), (957, 549), (957, 549), (957, 550), (957, 550), (957, 550), (957, 550), (957, 550), (957, 550), (957, 550), (957, 550), (957, 550), (957, 550), (957, 550), (957, 550), (957, 550), (957, 550), (957, 550), (957, 550), (957, 550), (957, 550), (957, 550), (957, 550), (957, 550), (957, 550), (957, 550), (957, 550), (957, 550), (957, 550), (957, 550), (957, 550), (957, 550), (957, 550), (957, 550), (957, 550), (957, 550), (957, 550), (957, 550), (957, 550), (957, 550), (957, 550), (957, 550), (957, 550), (957, 550), (957, 550), (957, 550), (957, 550), (957, 550), (957, 553), (957, 557), (957, 562), (957, 577), (957, 586), (957, 597), (957, 608), (957, 635), (957, 654), (957, 676), (957, 704), (957, 763), (957, 785), (958, 806), (962, 832), (967, 877), (971, 891), (971, 902), (971, 908), (971, 917), (970, 922), (969, 927), (966, 933), (960, 946)]",90.0,"[4, 8, 5, 9, 2, 7, 3, 1, 6]","(0, 0.25)",CHN011C,CHN,C,English,Tue Sep 04 11:29:10 2018,Mouse
1,1,3,0,49,9,9,1,510,250,260,135,0,500,200,8000,"[(960, 540), (960, 540), (960, 540), (960, 540), (960, 540), (960, 540), (960, 540), (960, 540), (960, 540), (960, 540), (960, 540), (960, 540), (960, 540), (960, 540), (960, 540), (960, 540), (960, 540), (960, 540), (960, 540), (960, 540), (960, 540), (960, 540), (960, 540), (960, 540), (957, 542), (956, 542), (950, 546), (946, 550), (942, 558), (936, 568), (919, 600), (908, 617), (895, 638), (878, 659), (849, 694), (836, 706), (823, 717), (810, 726), (781, 745), (765, 755), (754, 762), (742, 770), (723, 783), (714, 790), (707, 795), (699, 800), (688, 806), (682, 810), (679, 812), (673, 815), (663, 819)]",136.78991060824606,"[4, 8, 5, 9, 2, 7, 3, 1, 6]","(0, 0.25)",CHN011C,CHN,C,English,Tue Sep 04 11:29:10 2018,Mouse
1,1,3,0,50,8,8,1,1809,59,1750,134,0,500,200,8000,"[(960, 540), (960, 540), (960, 540), (960, 540), (960, 540), (962, 540), (964, 542), (964, 542), (964, 542), (964, 542), (964, 542), (964, 542), (964, 542), (964, 542), (964, 542), (964, 542), (964, 542), (964, 542), (964, 542), (964, 542), (964, 542), (964, 542), (964, 542), (964, 542), (964, 542), (964, 542), (964, 542), (964, 542), (964, 542), (964, 542), (964, 542), (964, 542), (964, 542), (964, 542), (964, 542), (964, 542), (964, 542), (964, 542), (964, 542), (964, 542), (964, 542), (964, 542), (964, 542), (964, 542), (964, 542), (964, 542), (964, 542), (964, 542), (964, 542), (964, 542), (964, 542), (964, 542), (964, 542), (964, 542), (964, 542), (964, 542), (964, 542), (964, 542), (964, 542), (964, 542), (962, 542), (955, 542), (931, 539), (913, 534), (896, 528), (884, 524), (871, 518), (865, 514), (863, 512), (862, 511), (861, 510), (861, 510), (861, 510), (861, 509), (861, 509), (861, 509), (861, 509), (861, 508), (861, 508), (861, 508), (861, 508), (861, 508), (861, 508), (861, 508), (861, 508), (861, 508), (861, 508), (861, 508), (861, 508), (861, 508), (861, 508), (861, 508), (861, 508), (861, 508), (861, 508), (861, 508), (861, 508), (861, 508), (861, 508), (861, 508), (861, 508), (861, 508), (861, 508), (861, 508), (861, 508), (861, 508), (861, 508), (861, 508), (861, 508), (861, 508), (861, 508), (861, 508), (861, 508), (861, 508), (861, 508), (861, 508), (861, 508), (861, 508), (861, 508), (861, 508), (861, 508), (861, 508), (861, 508), (861, 508), (861, 508), (861, 508), (861, 508), (861, 508), (861, 508), (861, 508), (861, 508), (861, 508), (861, 508), (861, 508), (861, 508), (861, 508), (861, 508), (861, 508), (861, 508), (861, 508), (861, 508), (861, 508), (861, 508), (861, 508), (861, 508), (861, 508), (861, 508), (861, 508), (861, 508), (861, 508), (861, 508), (861, 508), (861, 508), (861, 508), (861, 508), (861, 508), (861, 508), (861, 508), (861, 508), (861, 508), (861, 508), (861, 508), (861, 508), (861, 508), (861, 507), (861, 507), (867, 515), (875, 524), (885, 536), (901, 552), (949, 600), (973, 634), (996, 660), (1017, 691), (1057, 749), (1076, 779), (1092, 806), (1104, 828), (1133, 875), (1146, 892), (1156, 904)]",61.69924423399363,"[4, 8, 5, 9, 2, 7, 3, 1, 6]","(0, 0.25)",CHN011C,CHN,C,English,Tue Sep 04 11:29:10 2018,Mouse
1,1,3,0,51,8,7,0,-1338,669,669,133,0,500,200,8000,"[(960, 540), (960, 540), (960, 540), (960, 540), (960, 540), (960, 540), (960, 540), (960, 540), (960, 540), (960, 540), (960, 540), (960, 540), (960, 540), (960, 540), (960, 540), (960, 540), (960, 540), (960, 540), (960, 540), (960, 540), (960, 540), (960, 540), (960, 540), (960, 540), (960, 540), (960, 540), (960, 540), (960, 540), (960, 540), (960, 540), (960, 540), (960, 540), (960, 540), (960, 540), (960, 540), (960, 540), (960, 540), (960, 540), (960, 540), (960, 540), (960, 540), (960, 540), (960, 540), (960, 540), (960, 540), (960, 540), (960, 540), (960, 540), (960, 540), (960, 540), (960, 540), (960, 540), (960, 540), (960, 540), (960, 540), (960, 540), (960, 540), (960, 540), (960, 540), (960, 540), (960, 540), (960, 540), (960, 540), (960, 540), (960, 540), (960, 540), (960, 541), (960, 541), (959, 541), (959, 541), (959, 541), (959, 541), (959, 541), (959, 541), (959, 541), (959, 541), (959, 541), (959, 541), (959, 541), (959, 541), (959, 541), (959, 541), (959, 541), (959, 541), (959, 541), (959, 541), (959, 541), (959, 541), (959, 541), (959, 541), (959, 541), (959, 541), (959, 541), (959, 541), (959, 541), (959, 541), (959, 541), (959, 541), (959, 541), (959, 541), (959, 541), (959, 541), (959, 541), (959, 541), (959, 541), (959, 541), (959, 541), (959, 541), (959, 541), (959, 541), (959, 541), (959, 541), (959, 541), (959, 541), (959, 541), (959, 541), (959, 541), (959, 541), (959, 541), (959, 541), (954, 540), (951, 539), (947, 535), (939, 530), (919, 517), (906, 510), (881, 495), (857, 481), (791, 442), (759, 424), (726, 406), (690, 384), (632, 347), (603, 333)]",210.1065270411584,"[4, 8, 5, 9, 2, 7, 3, 1, 6]","(0, 0.25)",CHN011C,CHN,C,English,Tue Sep 04 11:29:10 2018,Mouse
1,1,3,0,52,4,5,0,-1429,449,980,134,0,500,200,8000,"[(960, 540), (960, 540), (960, 540), (960, 540), (960, 540), (960, 540), (960, 540), (960, 540), (960, 540), (960, 540), (960, 540), (960, 540), (960, 540), (960, 540), (960, 540), (960, 540), (960, 540), (960, 540), (960, 540), (960, 540), (960, 540), (960, 540), (960, 540), (960, 540), (960, 540), (960, 540), (960, 540), (960, 540), (960, 540), (960, 540), (960, 540), (960, 540), (960, 540), (960, 540), (960, 540), (960, 540), (960, 540), (960, 540), (960, 540), (960, 540), (960, 540), (960, 540), (960, 540), (960, 540), (960, 541), (960, 541), (960, 541), (960, 541), (960, 541), (960, 541), (960, 541), (960, 541), (960, 541), (960, 541), (960, 541), (960, 541), (960, 541), (960, 541), (960, 541), (960, 541), (960, 541), (960, 541), (960, 541), (960, 541), (960, 541), (960, 541), (960, 541), (960, 541), (960, 541), (960, 541), (960, 541), (960, 541), (960, 541), (960, 541), (960, 541), (960, 541), (960, 541), (960, 541), (960, 541), (960, 541), (960, 541), (960, 541), (960, 541), (960, 541), (960, 541), (960, 541), (960, 541), (960, 541), (960, 541), (960, 541), (960, 541), (960, 541), (960, 541), (960, 541), (960, 541), (960, 541), (960, 541), (960, 541), (960, 541), (960, 541), (960, 541), (960, 541), (960, 541), (960, 541), (960, 541), (960, 541), (960, 541), (960, 541), (960, 541), (960, 541), (960, 541), (960, 541), (960, 541), (960, 541), (960, 541), (960, 541), (960, 543), (960, 565), (960, 586), (962, 614), (962, 648), (962, 706), (962, 726), (962, 748), (962, 773), (962, 815), (962, 832), (962, 847), (962, 858), (962, 884), (962, 895), (962, 902), (960, 909), (960, 919), (960, 923), (959, 926), (958, 928), (957, 932), (957, 933), (957, 935), (957, 935), (955, 939), (955, 940)]",90.71615994547041,"[4, 8, 5, 9, 2, 7, 3, 1, 6]","(0, 0.25)",CHN011C,CHN,C,English,Tue Sep 04 11:29:10 2018,Mouse
1,1,3,0,53,7,9,0,-1389,1039,350,135,0,500,200,8000,"[(960, 540), (960, 540), (960, 540), (960, 540), (960, 540), (960, 540), (960, 540), (960, 540), (960, 540), (960, 540), (960, 540), (960, 540), (960, 540), (960, 540), (960, 540), (960, 540), (960, 540), (960, 540), (960, 540), (960, 540), (960, 540), (960, 540), (960, 540), (960, 540), (960, 540), (960, 540), (960, 540), (960, 540), (960, 540), (960, 540), (960, 540), (960, 540), (960, 540), (960, 540), (960, 540), (960, 540), (960, 540), (960, 540), (960, 540), (960, 540), (960, 540), (960, 540), (960, 540), (960, 540), (960, 540), (960, 540), (960, 540), (960, 540), (960, 540), (960, 540), (960, 540), (960, 540), (960, 540), (960, 540), (960, 540), (960, 540), (960, 540), (960, 540), (960, 540), (960, 540), (960, 540), (960, 540), (960, 540), (960, 540), (960, 540), (960, 540), (960, 540), (960, 540), (960, 540), (960, 540), (960, 540), (960, 540), (960, 540), (960, 540), (960, 540), (960, 540), (960, 540), (960, 540), (960, 540), (960, 540), (960, 540), (960, 540), (960, 540), (960, 540), (960, 540), (960, 540), (960, 540), (960, 540), (960, 540), (960, 540), (960, 540), (960, 540), (960, 540), (960, 540), (960, 540), (960, 540), (960, 540), (960, 540), (960, 540), (960, 540), (960, 540), (960, 540), (960, 540), (961, 540), (961, 541), (958, 549), (952, 557), (945, 566), (934, 578), (905, 618), (883, 641), (866, 662), (853, 677), (826, 705), (814, 717), (803, 726), (795, 734), (774, 750), (765, 757), (756, 762), (751, 766), (739, 773), (734, 776), (731, 778), (727, 780), (723, 784), (720, 787), (718, 789), (716, 791), (709, 796), (704, 797), (702, 798), (698, 800), (686, 802), (679, 804), (676, 805), (671, 805), (663, 805), (660, 805)]",138.5447664555949,"[4, 8, 5, 9, 2, 7, 3, 1, 6]","(0, 0.25)",CHN011C,CHN,C,English,Tue Sep 04 11:29:10 2018,Mouse
1,1,3,0,54,7,7,1,781,511,270,136,0,500,200,8000,"[(960, 540), (960, 540), (960, 540), (960, 540), (960, 540), (960, 540), (960, 540), (960, 540), (960, 540), (960, 540), (960, 540), (960, 540), (960, 540), (960, 540), (960, 540), (960, 540), (960, 540), (960, 540), (960, 540), (960, 540), (960, 540), (960, 540), (960, 540), (960, 540), (960, 540), (960, 540), (960, 540), (960, 540), (960, 540), (960, 540), (960, 540), (960, 540), (960, 540), (960, 540), (960, 540), (960, 540), (960, 540), (960, 540), (960, 540), (960, 540), (960, 540), (960, 540), (960, 540), (960, 540), (960, 540), (960, 540), (960, 540), (960, 540), (960, 540), (960, 540), (960, 540), (957, 540), (944, 540), (931, 538), (899, 525), (888, 517), (881, 509), (876, 503), (864, 488), (857, 479), (847, 466), (838, 452), (820, 423), (807, 402), (796, 383), (780, 363), (756, 329), (748, 317), (741, 309), (736, 302), (729, 290), (726, 286), (722, 282), (717, 277), (708, 271), (700, 266), (693, 262), (684, 259), (677, 256)]",225.1010506527452,"[4, 8, 5, 9, 2, 7, 3, 1, 6]","(0, 0.25)",CHN011C,CHN,C,English,Tue Sep 04 11:29:10 2018,Mouse
1,1,3,0,55,4,4,1,449,99,350,136,0,500,200,8000,"[(960, 540), (960, 540), (960, 540), (960, 540), (960, 540), (960, 540), (960, 540), (960, 540), (960, 540), (961, 540), (963, 543), (966, 546), (967, 547), (970, 549), (979, 553), (986, 557), (995, 560), (1006, 564), (1029, 575), (1037, 579), (1046, 582), (1053, 585), (1063, 589), (1067, 591), (1071, 592), (1073, 593), (1078, 594), (1079, 594), (1080, 594), (1081, 594), (1083, 594), (1086, 594), (1090, 595), (1096, 595), (1117, 599), (1128, 603), (1139, 604), (1154, 606), (1188, 617), (1209, 624), (1231, 630), (1253, 636), (1312, 654), (1337, 662), (1359, 666)]",17.52556837372287,"[4, 8, 5, 9, 2, 7, 3, 1, 6]","(0, 0.25)",CHN011C,CHN,C,English,Tue Sep 04 11:29:10 2018,Mouse
1,1,3,0,56,7,5,0,-1929,749,1180,135,0,500,200,8000,"[(960, 540), (960, 540), (960, 540), (960, 540), (960, 540), (960, 540), (960, 540), (960, 540), (960, 540), (960, 540), (960, 540), (960, 540), (960, 540), (960, 540), (960, 540), (960, 540), (960, 540), (960, 540), (960, 540), (960, 540), (960, 540), (960, 540), (960, 540), (960, 540), (960, 540), (960, 540), (960, 540), (960, 540), (960, 540), (960, 540), (960, 540), (960, 540), (960, 540), (960, 540), (960, 540), (960, 540), (960, 540), (960, 540), (960, 540), (960, 540), (960, 540), (960, 540), (960, 540), (960, 540), (960, 540), (960, 540), (960, 540), (960, 540), (960, 540), (960, 540), (960, 540), (960, 540), (960, 540), (960, 540), (960, 540), (960, 540), (960, 540), (960, 540), (960, 540), (960, 540), (960, 540), (960, 540), (960, 540), (960, 540), (960, 540), (960, 540), (960, 540), (960, 540), (960, 540), (960, 540), (960, 540), (960, 540), (960, 540), (960, 540), (961, 539), (961, 539), (961, 539), (961, 539), (961, 539), (961, 539), (961, 539), (961, 539), (961, 539), (961, 539), (961, 539), (961, 539), (961, 539), (961, 539), (961, 539), (961, 539), (961, 539), (961, 539), (961, 539), (961, 539), (961, 539), (961, 539), (961, 539), (961, 539), (961, 539), (961, 539), (961, 539), (961, 539), (961, 539), (961, 539), (961, 539), (961, 539), (961, 539), (961, 539), (961, 539), (961, 539), (961, 539), (961, 539), (961, 539), (961, 539), (961, 539), (961, 539), (961, 539), (961, 539), (961, 539), (961, 539), (961, 539), (961, 539), (961, 539), (961, 539), (961, 539), (961, 539), (962, 539), (962, 539), (962, 541), (962, 541), (962, 541), (962, 541), (962, 543), (962, 543), (962, 543), (962, 543), (962, 543), (962, 543), (962, 543), (962, 543), (962, 543), (962, 543), (962, 543), (962, 543), (962, 543), (962, 543), (962, 543), (962, 543), (962, 544), (962, 544), (962, 547), (962, 550), (962, 560), (962, 572), (962, 588), (959, 613), (946, 660), (941, 679), (936, 696), (933, 707), (929, 719), (926, 725), (926, 727), (925, 728), (924, 731), (924, 731), (924, 731), (924, 731), (923, 731), (923, 731), (923, 731), (923, 731), (923, 731), (923, 731), (923, 731), (923, 731), (923, 734), (923, 740), (923, 748), (923, 755), (923, 780), (921, 793), (917, 813), (916, 830), (911, 856), (910, 866), (909, 877), (908, 885), (905, 901), (905, 910), (904, 917), (904, 927), (904, 941)]",97.94999047254683,"[4, 8, 5, 9, 2, 7, 3, 1, 6]","(0, 0.25)",CHN011C,CHN,C,English,Tue Sep 04 11:29:10 2018,Mouse
1,1,3,0,57,4,4,1,389,179,210,136,0,500,200,8000,"[(960, 540), (960, 540), (960, 540), (960, 540), (960, 540), (960, 540), (960, 540), (960, 540), (960, 540), (960, 540), (960, 540), (960, 540), (960, 540), (960, 540), (960, 540), (960, 540), (960, 540), (962, 540), (975, 540), (980, 540), (983, 540), (985, 540), (991, 541), (994, 543), (999, 545), (1006, 549), (1020, 556), (1027, 561), (1037, 567), (1048, 573), (1079, 592), (1098, 602), (1125, 615), (1151, 625), (1211, 649), (1242, 660), (1270, 670), (1295, 676), (1345, 690)]",21.28640511365909,"[4, 8, 5, 9, 2, 7, 3, 1, 6]","(0, 0.25)",CHN011C,CHN,C,English,Tue Sep 04 11:29:10 2018,Mouse
