NativeLangNumber,LanuageNumber,SessionNumber,Block,TrialNum,ConditionNumber,Response,Accuracy,RT,MovementOnsetTime,TimeInMotion,SignalContrast,SignalContrastNumber,StimDisplayTime,MaskTime,MaxResponseTime,MousePositionXY,MouseAngle,WheelOrder,NoiseMuSigma,ParticipantID,LanuageTested,SessionTested,NativeLanuage,Date,ResponseDevice
2,1,2,0,1,6,6,1,1382,1302,80,153,0,500,200,8000,"[(512, 384), (512, 384), (512, 384), (512, 384), (512, 384), (512, 384), (512, 384), (512, 384), (512, 384), (512, 384), (512, 384), (512, 384), (512, 384), (512, 384), (512, 384), (512, 384), (512, 384), (512, 384), (512, 384), (512, 384), (512, 384), (512, 384), (512, 384), (512, 384), (512, 384), (512, 384), (512, 384), (512, 384), (512, 384), (512, 384), (512, 384), (512, 384), (512, 384), (512, 384), (512, 384), (512, 384), (512, 384), (512, 384), (512, 384), (512, 384), (512, 384), (512, 384), (512, 384), (512, 384), (512, 384), (512, 384), (512, 384), (512, 384), (512, 384), (512, 384), (512, 384), (512, 384), (512, 384), (512, 384), (512, 384), (512, 384), (512, 384), (512, 384), (512, 384), (512, 384), (512, 384), (512, 384), (512, 384), (512, 384), (512, 384), (512, 384), (512, 384), (512, 384), (512, 384), (512, 384), (512, 384), (512, 384), (512, 384), (512, 384), (512, 384), (512, 384), (512, 384), (512, 384), (512, 384), (512, 384), (512, 384), (512, 384), (512, 384), (512, 384), (512, 384), (512, 384), (512, 384), (512, 384), (512, 384), (512, 384), (512, 384), (512, 384), (512, 384), (512, 384), (512, 384), (512, 384), (512, 384), (512, 384), (512, 384), (512, 384), (512, 384), (512, 384), (512, 384), (512, 384), (512, 384), (512, 384), (512, 384), (512, 384), (512, 384), (512, 384), (512, 384), (512, 384), (512, 384), (512, 384), (512, 384), (512, 384), (512, 384), (512, 384), (512, 384), (512, 384), (512, 384), (512, 384), (512, 384), (512, 384), (512, 384), (512, 384), (512, 384), (512, 384), (512, 384), (512, 384), (511, 384), (499, 418), (489, 441), (481, 469), (467, 501), (443, 559), (435, 587), (432, 613), (425, 641)]",108.7020600789788,"[3, 7, 6, 9, 5, 1, 8, 4, 2]","(0, 0.25)",CHN004B,CHN,B,Chinese,Thu Oct  4 18:04:23 2018,Mouse
2,1,2,0,2,1,1,1,845,595,250,153,0,500,200,8000,"[(512, 384), (512, 384), (512, 384), (512, 384), (512, 384), (512, 384), (512, 384), (512, 384), (512, 384), (512, 384), (512, 384), (512, 384), (512, 384), (512, 384), (512, 384), (512, 384), (512, 384), (512, 384), (512, 384), (512, 384), (512, 384), (512, 384), (512, 384), (512, 384), (512, 384), (512, 384), (512, 384), (512, 384), (512, 384), (512, 384), (512, 384), (512, 384), (512, 384), (512, 384), (512, 384), (512, 384), (512, 384), (512, 384), (512, 384), (512, 384), (512, 384), (512, 384), (512, 384), (512, 384), (512, 384), (512, 384), (512, 384), (512, 384), (512, 384), (512, 384), (512, 384), (512, 384), (512, 384), (512, 384), (512, 384), (512, 384), (512, 384), (512, 384), (512, 384), (511, 384), (511, 384), (511, 384), (510, 384), (508, 384), (505, 384), (503, 384), (501, 384), (496, 384), (486, 382), (480, 379), (472, 376), (469, 374), (462, 370), (462, 369), (460, 368), (460, 367), (458, 365), (454, 358), (451, 350), (446, 334), (424, 286), (403, 253), (381, 227), (363, 207), (337, 181)]",229.23639479905881,"[3, 7, 6, 9, 5, 1, 8, 4, 2]","(0, 0.25)",CHN004B,CHN,B,Chinese,Thu Oct  4 18:04:23 2018,Mouse
2,1,2,0,3,7,7,1,515,395,120,152,0,500,200,8000,"[(512, 384), (512, 384), (512, 384), (512, 384), (512, 384), (512, 384), (512, 384), (512, 384), (512, 384), (512, 384), (512, 384), (512, 384), (512, 384), (512, 384), (512, 384), (512, 384), (512, 384), (512, 384), (512, 384), (512, 384), (512, 384), (512, 384), (512, 384), (512, 384), (512, 384), (512, 384), (512, 384), (512, 384), (512, 384), (512, 384), (512, 384), (512, 384), (512, 384), (512, 384), (512, 384), (512, 384), (512, 384), (512, 384), (512, 384), (515, 387), (516, 389), (519, 393), (521, 397), (534, 420), (541, 437), (552, 461), (561, 484), (584, 534), (592, 550), (603, 567), (616, 584), (637, 607)]",60.72770781650031,"[3, 7, 6, 9, 5, 1, 8, 4, 2]","(0, 0.25)",CHN004B,CHN,B,Chinese,Thu Oct  4 18:04:23 2018,Mouse
2,1,2,0,4,2,2,1,523,463,60,151,0,500,200,8000,"[(512, 384), (512, 384), (512, 384), (512, 384), (512, 384), (512, 384), (512, 384), (512, 384), (512, 384), (512, 384), (512, 384), (512, 384), (512, 384), (512, 384), (512, 384), (512, 384), (512, 384), (512, 384), (512, 384), (512, 384), (512, 384), (512, 384), (512, 384), (512, 384), (512, 384), (512, 384), (512, 384), (512, 384), (512, 384), (512, 384), (512, 384), (512, 384), (512, 384), (512, 384), (512, 384), (512, 384), (512, 384), (512, 384), (512, 384), (512, 384), (512, 384), (512, 384), (512, 384), (512, 384), (512, 384), (512, 384), (514, 380), (524, 376), (565, 364), (606, 357), (660, 349), (712, 341), (835, 331)]",350.6815644295076,"[3, 7, 6, 9, 5, 1, 8, 4, 2]","(0, 0.25)",CHN004B,CHN,B,Chinese,Thu Oct  4 18:04:23 2018,Mouse
2,1,2,0,5,5,5,1,842,512,330,150,0,500,200,8000,"[(512, 384), (512, 384), (512, 384), (512, 384), (512, 384), (512, 384), (512, 384), (512, 384), (512, 384), (512, 384), (512, 384), (512, 384), (512, 384), (512, 384), (512, 384), (512, 384), (512, 384), (512, 384), (512, 384), (512, 384), (512, 384), (512, 384), (512, 384), (512, 384), (512, 384), (512, 384), (512, 384), (512, 384), (512, 384), (512, 384), (512, 384), (512, 384), (512, 384), (512, 384), (512, 384), (512, 384), (512, 384), (512, 384), (512, 384), (512, 384), (512, 384), (512, 384), (512, 384), (512, 384), (512, 384), (512, 384), (512, 384), (512, 384), (512, 384), (512, 384), (512, 384), (510, 383), (492, 386), (479, 386), (458, 387), (432, 387), (355, 387), (321, 387), (304, 387), (292, 387), (280, 387), (279, 387), (279, 387), (279, 387), (279, 387), (279, 387), (279, 387), (278, 388), (278, 388), (278, 388), (278, 388), (278, 388), (278, 388), (278, 388), (278, 388), (278, 388), (278, 388), (278, 388), (278, 388), (278, 388), (278, 388), (276, 388), (274, 388), (270, 386), (259, 386)]",179.5470783710388,"[3, 7, 6, 9, 5, 1, 8, 4, 2]","(0, 0.25)",CHN004B,CHN,B,Chinese,Thu Oct  4 18:04:23 2018,Mouse
2,1,2,0,6,9,5,0,-962,902,60,149,0,500,200,8000,"[(512, 384), (512, 384), (512, 384), (512, 384), (512, 384), (512, 384), (512, 384), (512, 384), (512, 384), (512, 384), (512, 384), (512, 384), (512, 384), (512, 384), (512, 384), (512, 384), (512, 384), (512, 384), (512, 384), (512, 384), (512, 384), (512, 384), (512, 384), (512, 384), (512, 384), (512, 384), (512, 384), (512, 384), (512, 384), (512, 384), (512, 384), (512, 384), (512, 384), (512, 384), (512, 384), (512, 384), (512, 384), (512, 384), (512, 384), (512, 384), (512, 384), (512, 384), (512, 384), (512, 384), (512, 384), (512, 384), (512, 384), (512, 384), (512, 384), (512, 384), (512, 384), (512, 384), (512, 384), (512, 384), (512, 384), (512, 384), (512, 384), (512, 384), (512, 384), (512, 384), (512, 384), (512, 384), (512, 384), (512, 384), (512, 384), (512, 384), (512, 384), (512, 384), (512, 384), (512, 384), (512, 384), (512, 384), (512, 384), (512, 384), (512, 384), (512, 384), (512, 384), (512, 384), (512, 384), (512, 384), (512, 384), (512, 384), (512, 384), (512, 384), (512, 384), (512, 384), (512, 384), (512, 384), (512, 384), (512, 384), (508, 384), (499, 384), (458, 384), (397, 384), (336, 384), (266, 389), (162, 411)]",175.5887764499856,"[3, 7, 6, 9, 5, 1, 8, 4, 2]","(0, 0.25)",CHN004B,CHN,B,Chinese,Thu Oct  4 18:04:23 2018,Mouse
2,1,2,0,7,1,8,0,-492,402,90,150,0,500,200,8000,"[(512, 384), (512, 384), (512, 384), (512, 384), (512, 384), (512, 384), (512, 384), (512, 384), (512, 384), (512, 384), (512, 384), (512, 384), (512, 384), (512, 384), (512, 384), (512, 384), (512, 384), (512, 384), (512, 384), (512, 384), (512, 384), (512, 384), (512, 384), (512, 384), (512, 384), (512, 384), (512, 384), (512, 384), (512, 384), (512, 384), (512, 384), (512, 384), (512, 384), (512, 384), (512, 384), (512, 384), (512, 384), (512, 384), (512, 384), (512, 384), (512, 368), (512, 356), (508, 345), (501, 328), (480, 283), (467, 259), (449, 229), (434, 209), (402, 173), (392, 163)]",241.4986403853174,"[3, 7, 6, 9, 5, 1, 8, 4, 2]","(0, 0.25)",CHN004B,CHN,B,Chinese,Thu Oct  4 18:04:23 2018,Mouse
2,1,2,0,8,2,2,1,692,592,100,151,0,500,200,8000,"[(512, 384), (512, 384), (512, 384), (512, 384), (512, 384), (512, 384), (512, 384), (512, 384), (512, 384), (512, 384), (512, 384), (512, 384), (512, 384), (512, 384), (512, 384), (512, 384), (512, 384), (512, 384), (512, 384), (512, 384), (512, 384), (512, 384), (512, 384), (512, 384), (512, 384), (512, 384), (512, 384), (512, 384), (512, 384), (512, 384), (512, 384), (512, 384), (512, 384), (512, 384), (512, 384), (512, 384), (512, 384), (512, 384), (512, 384), (512, 384), (512, 384), (512, 384), (512, 384), (512, 384), (512, 384), (512, 384), (512, 384), (512, 384), (512, 384), (512, 384), (512, 384), (512, 384), (512, 384), (512, 384), (512, 384), (512, 384), (512, 384), (512, 384), (512, 384), (515, 384), (526, 381), (538, 376), (556, 372), (594, 364), (612, 362), (636, 358), (661, 358), (722, 358), (743, 355), (771, 349)]",352.3039482779834,"[3, 7, 6, 9, 5, 1, 8, 4, 2]","(0, 0.25)",CHN004B,CHN,B,Chinese,Thu Oct  4 18:04:23 2018,Mouse
2,1,2,0,9,9,7,0,-1420,1360,60,151,0,500,200,8000,"[(512, 384), (512, 384), (512, 384), (512, 384), (512, 384), (512, 384), (512, 384), (512, 384), (512, 384), (512, 384), (512, 384), (512, 384), (512, 384), (512, 384), (512, 384), (512, 384), (512, 384), (512, 384), (512, 384), (512, 384), (512, 384), (512, 384), (512, 384), (512, 384), (512, 384), (512, 384), (512, 384), (512, 384), (512, 384), (512, 384), (512, 384), (512, 384), (512, 384), (512, 384), (512, 384), (512, 384), (512, 384), (512, 384), (512, 384), (512, 384), (512, 384), (512, 384), (512, 384), (512, 384), (512, 384), (512, 384), (512, 384), (512, 384), (512, 384), (512, 384), (512, 384), (512, 384), (512, 384), (512, 384), (512, 384), (512, 384), (512, 384), (512, 384), (512, 384), (512, 384), (512, 384), (512, 384), (512, 384), (512, 384), (512, 384), (512, 384), (512, 384), (512, 384), (512, 384), (512, 384), (512, 384), (512, 384), (512, 384), (512, 384), (512, 384), (512, 384), (512, 384), (512, 384), (512, 384), (512, 384), (512, 384), (512, 384), (512, 384), (512, 384), (512, 384), (512, 384), (512, 384), (512, 384), (512, 384), (512, 384), (512, 384), (512, 384), (512, 384), (512, 384), (512, 384), (512, 384), (512, 384), (512, 384), (512, 384), (512, 384), (512, 384), (512, 384), (512, 384), (512, 384), (512, 384), (512, 384), (512, 384), (512, 384), (512, 384), (512, 384), (512, 384), (512, 384), (512, 384), (512, 384), (512, 384), (512, 384), (512, 384), (512, 384), (512, 384), (512, 384), (512, 384), (512, 384), (512, 384), (512, 384), (512, 384), (512, 384), (512, 384), (512, 384), (512, 384), (512, 384), (512, 384), (512, 384), (512, 384), (512, 384), (512, 384), (520, 390), (526, 406), (563, 474), (589, 515), (616, 554), (648, 587), (668, 599)]",54.036059502916274,"[3, 7, 6, 9, 5, 1, 8, 4, 2]","(0, 0.25)",CHN004B,CHN,B,Chinese,Thu Oct  4 18:04:23 2018,Mouse
2,1,2,0,10,8,8,1,1522,1462,60,152,0,500,200,8000,"[(512, 384), (512, 384), (512, 384), (512, 384), (512, 384), (512, 384), (512, 384), (512, 384), (512, 384), (512, 384), (512, 384), (512, 384), (512, 384), (512, 384), (512, 384), (512, 384), (512, 384), (512, 384), (512, 384), (512, 384), (512, 384), (512, 384), (512, 384), (512, 384), (512, 384), (512, 384), (512, 384), (512, 384), (512, 384), (512, 384), (512, 384), (512, 384), (512, 384), (512, 384), (512, 384), (512, 384), (512, 384), (512, 384), (512, 384), (512, 384), (512, 384), (512, 384), (512, 384), (512, 384), (512, 384), (512, 384), (512, 384), (512, 384), (512, 384), (512, 384), (512, 384), (512, 384), (512, 384), (512, 384), (512, 384), (512, 384), (512, 384), (512, 384), (512, 384), (512, 384), (512, 384), (512, 384), (512, 384), (512, 384), (512, 384), (512, 384), (512, 384), (512, 384), (512, 384), (512, 384), (512, 384), (512, 384), (512, 384), (512, 384), (512, 384), (512, 384), (512, 384), (512, 384), (512, 384), (512, 384), (512, 384), (512, 384), (512, 384), (512, 384), (512, 384), (512, 384), (512, 384), (512, 384), (512, 384), (512, 384), (512, 384), (512, 384), (512, 384), (512, 384), (512, 384), (512, 384), (512, 384), (512, 384), (512, 384), (512, 384), (512, 384), (512, 384), (512, 384), (512, 384), (512, 384), (512, 384), (512, 384), (512, 384), (512, 384), (512, 384), (512, 384), (512, 384), (512, 384), (512, 384), (512, 384), (512, 384), (512, 384), (512, 384), (512, 384), (512, 384), (512, 384), (512, 384), (512, 384), (512, 384), (512, 384), (512, 384), (512, 384), (512, 384), (512, 384), (512, 384), (512, 384), (512, 384), (512, 384), (512, 384), (512, 384), (512, 384), (512, 384), (512, 384), (512, 384), (512, 384), (512, 384), (512, 384), (512, 384), (512, 384), (512, 384), (512, 384), (512, 381), (512, 360), (510, 304), (510, 251), (510, 210), (503, 166), (488, 90)]",265.333141628561,"[3, 7, 6, 9, 5, 1, 8, 4, 2]","(0, 0.25)",CHN004B,CHN,B,Chinese,Thu Oct  4 18:04:23 2018,Mouse
2,1,2,0,11,7,7,1,842,752,90,152,0,500,200,8000,"[(512, 384), (512, 384), (512, 384), (512, 384), (512, 384), (512, 384), (512, 384), (512, 384), (512, 384), (512, 384), (512, 384), (512, 384), (512, 384), (512, 384), (512, 384), (512, 384), (512, 384), (512, 384), (512, 384), (512, 384), (512, 384), (512, 384), (512, 384), (512, 384), (512, 384), (512, 384), (512, 384), (512, 384), (512, 384), (512, 384), (512, 384), (512, 384), (512, 384), (512, 384), (512, 384), (512, 384), (512, 384), (512, 384), (512, 384), (512, 384), (512, 384), (512, 384), (512, 384), (512, 384), (512, 384), (512, 384), (512, 384), (512, 384), (512, 384), (512, 384), (512, 384), (512, 384), (512, 384), (512, 384), (512, 384), (512, 384), (512, 384), (512, 384), (512, 384), (512, 384), (512, 384), (512, 384), (512, 384), (512, 384), (512, 384), (512, 384), (512, 384), (512, 384), (512, 384), (512, 384), (512, 384), (512, 384), (512, 384), (512, 384), (512, 384), (515, 386), (534, 410), (543, 424), (555, 439), (566, 456), (597, 493), (613, 516), (632, 544), (648, 574), (667, 632)]",57.9946167919165,"[3, 7, 6, 9, 5, 1, 8, 4, 2]","(0, 0.25)",CHN004B,CHN,B,Chinese,Thu Oct  4 18:04:23 2018,Mouse
2,1,2,0,12,9,9,1,458,318,140,151,0,500,200,8000,"[(512, 384), (512, 384), (512, 384), (512, 384), (512, 384), (512, 384), (512, 384), (512, 384), (512, 384), (512, 384), (512, 384), (512, 384), (512, 384), (512, 384), (512, 384), (512, 384), (512, 384), (512, 384), (512, 384), (512, 384), (512, 384), (512, 384), (512, 384), (512, 384), (512, 384), (512, 384), (512, 384), (512, 384), (512, 384), (512, 384), (512, 384), (509, 383), (501, 389), (492, 396), (483, 404), (467, 416), (461, 421), (453, 428), (444, 436), (429, 451), (421, 460), (409, 474), (394, 486), (348, 511), (317, 526), (282, 540)]",145.85249086025343,"[3, 7, 6, 9, 5, 1, 8, 4, 2]","(0, 0.25)",CHN004B,CHN,B,Chinese,Thu Oct  4 18:04:23 2018,Mouse
2,1,2,0,13,6,6,1,502,352,150,150,0,500,200,8000,"[(512, 384), (512, 384), (512, 384), (512, 384), (512, 384), (512, 384), (512, 384), (512, 384), (512, 384), (512, 384), (512, 384), (512, 384), (512, 384), (512, 384), (512, 384), (512, 384), (512, 384), (512, 384), (512, 384), (512, 384), (512, 384), (512, 384), (512, 384), (512, 384), (512, 384), (512, 384), (512, 384), (512, 384), (512, 384), (512, 384), (512, 384), (512, 384), (512, 384), (512, 384), (512, 384), (512, 393), (512, 405), (512, 424), (512, 468), (509, 492), (506, 518), (502, 545), (495, 580), (494, 592), (492, 602), (492, 610), (490, 621), (489, 624), (489, 626), (488, 629), (485, 637)]",96.0915137088542,"[3, 7, 6, 9, 5, 1, 8, 4, 2]","(0, 0.25)",CHN004B,CHN,B,Chinese,Thu Oct  4 18:04:23 2018,Mouse
2,1,2,0,14,7,7,1,561,421,140,149,0,500,200,8000,"[(512, 384), (512, 384), (512, 384), (512, 384), (512, 384), (512, 384), (512, 384), (512, 384), (512, 384), (512, 384), (512, 384), (512, 384), (512, 384), (512, 384), (512, 384), (512, 384), (512, 384), (512, 384), (512, 384), (512, 384), (512, 384), (512, 384), (512, 384), (512, 384), (512, 384), (512, 384), (512, 384), (512, 384), (512, 384), (512, 384), (512, 384), (512, 384), (512, 384), (512, 384), (512, 384), (512, 384), (512, 384), (512, 384), (512, 384), (512, 384), (512, 384), (512, 384), (512, 385), (510, 389), (499, 399), (493, 405), (492, 409), (491, 414), (491, 430), (496, 438), (503, 449), (511, 459), (539, 494), (553, 514), (569, 534), (586, 564), (632, 636)]",64.5366549381284,"[3, 7, 6, 9, 5, 1, 8, 4, 2]","(0, 0.25)",CHN004B,CHN,B,Chinese,Thu Oct  4 18:04:23 2018,Mouse
2,1,2,0,15,7,7,1,343,263,80,148,0,500,200,8000,"[(512, 384), (512, 384), (512, 384), (512, 384), (512, 384), (512, 384), (512, 384), (512, 384), (512, 384), (512, 384), (512, 384), (512, 384), (512, 384), (512, 384), (512, 384), (512, 384), (512, 384), (512, 384), (512, 384), (512, 384), (512, 384), (512, 384), (512, 384), (512, 384), (512, 384), (512, 384), (512, 383), (514, 383), (525, 404), (536, 423), (549, 452), (575, 494), (619, 560), (634, 595), (652, 627)]",60.052392332727756,"[3, 7, 6, 9, 5, 1, 8, 4, 2]","(0, 0.25)",CHN004B,CHN,B,Chinese,Thu Oct  4 18:04:23 2018,Mouse
2,1,2,0,16,1,1,1,314,254,60,147,0,500,200,8000,"[(512, 384), (512, 384), (512, 384), (512, 384), (512, 384), (512, 384), (512, 384), (512, 384), (512, 384), (512, 384), (512, 384), (512, 384), (512, 384), (512, 384), (512, 384), (512, 384), (512, 384), (512, 384), (512, 384), (512, 384), (512, 384), (512, 384), (512, 384), (512, 384), (512, 384), (504, 370), (493, 357), (473, 334), (452, 316), (396, 274), (352, 248), (314, 229)]",218.0548442446745,"[3, 7, 6, 9, 5, 1, 8, 4, 2]","(0, 0.25)",CHN004B,CHN,B,Chinese,Thu Oct  4 18:04:23 2018,Mouse
2,1,2,0,17,8,8,1,363,303,60,146,0,500,200,8000,"[(512, 384), (512, 384), (512, 384), (512, 384), (512, 384), (512, 384), (512, 384), (512, 384), (512, 384), (512, 384), (512, 384), (512, 384), (512, 384), (512, 384), (512, 384), (512, 384), (512, 384), (512, 384), (512, 384), (512, 384), (512, 384), (512, 384), (512, 384), (512, 384), (512, 384), (512, 384), (512, 384), (512, 384), (512, 384), (512, 384), (513, 383), (513, 370), (513, 354), (508, 269), (502, 215), (496, 167), (486, 112)]",264.53978740785163,"[3, 7, 6, 9, 5, 1, 8, 4, 2]","(0, 0.25)",CHN004B,CHN,B,Chinese,Thu Oct  4 18:04:23 2018,Mouse
2,1,2,0,18,7,7,1,450,300,150,145,0,500,200,8000,"[(512, 384), (512, 384), (512, 384), (512, 384), (512, 384), (512, 384), (512, 384), (512, 384), (512, 384), (512, 384), (512, 384), (512, 384), (512, 384), (512, 384), (512, 384), (512, 384), (512, 384), (512, 384), (512, 384), (512, 384), (512, 384), (512, 384), (512, 384), (512, 384), (512, 384), (512, 384), (512, 384), (512, 384), (512, 384), (512, 385), (512, 385), (512, 385), (510, 386), (510, 387), (509, 391), (508, 395), (508, 403), (508, 410), (508, 420), (513, 431), (532, 476), (547, 516), (564, 551), (581, 588), (619, 654)]",68.38176054024551,"[3, 7, 6, 9, 5, 1, 8, 4, 2]","(0, 0.25)",CHN004B,CHN,B,Chinese,Thu Oct  4 18:04:23 2018,Mouse
2,1,2,0,19,7,7,1,382,322,60,144,0,500,200,8000,"[(512, 384), (512, 384), (512, 384), (512, 384), (512, 384), (512, 384), (512, 384), (512, 384), (512, 384), (512, 384), (512, 384), (512, 384), (512, 384), (512, 384), (512, 384), (512, 384), (512, 384), (512, 384), (512, 384), (512, 384), (512, 384), (512, 384), (512, 384), (512, 384), (512, 384), (512, 384), (512, 384), (512, 384), (512, 384), (512, 384), (512, 384), (512, 384), (520, 397), (536, 415), (548, 437), (567, 465), (612, 531), (632, 564), (651, 592)]",56.24641168018537,"[3, 7, 6, 9, 5, 1, 8, 4, 2]","(0, 0.25)",CHN004B,CHN,B,Chinese,Thu Oct  4 18:04:23 2018,Mouse
2,1,2,0,20,9,9,1,585,485,100,143,0,500,200,8000,"[(512, 384), (512, 384), (512, 384), (512, 384), (512, 384), (512, 384), (512, 384), (512, 384), (512, 384), (512, 384), (512, 384), (512, 384), (512, 384), (512, 384), (512, 384), (512, 384), (512, 384), (512, 384), (512, 384), (512, 384), (512, 384), (512, 384), (512, 384), (512, 384), (512, 384), (512, 384), (512, 384), (512, 384), (512, 384), (512, 384), (512, 384), (512, 384), (512, 384), (512, 384), (512, 384), (512, 384), (512, 384), (512, 384), (512, 384), (512, 384), (512, 384), (512, 384), (512, 384), (512, 384), (512, 384), (512, 384), (512, 384), (512, 384), (510, 383), (505, 383), (501, 384), (496, 389), (487, 395), (463, 412), (446, 425), (425, 445), (400, 471), (346, 525), (323, 554)]",138.0295406556103,"[3, 7, 6, 9, 5, 1, 8, 4, 2]","(0, 0.25)",CHN004B,CHN,B,Chinese,Thu Oct  4 18:04:23 2018,Mouse
2,1,2,0,21,9,9,1,911,321,590,142,0,500,200,8000,"[(512, 384), (512, 384), (512, 384), (512, 384), (512, 384), (512, 384), (512, 384), (512, 384), (512, 384), (512, 384), (512, 384), (512, 384), (512, 384), (512, 384), (512, 384), (512, 384), (512, 384), (512, 384), (512, 384), (512, 384), (512, 384), (512, 384), (512, 384), (512, 384), (512, 384), (512, 384), (512, 384), (512, 384), (512, 384), (512, 384), (512, 384), (512, 384), (513, 384), (518, 389), (524, 398), (536, 413), (540, 419), (544, 424), (546, 426), (548, 429), (549, 430), (549, 430), (549, 430), (549, 430), (549, 430), (549, 430), (549, 430), (549, 430), (549, 430), (549, 430), (549, 430), (549, 430), (549, 430), (549, 430), (548, 430), (546, 429), (543, 429), (543, 429), (542, 429), (538, 429), (536, 429), (533, 429), (529, 429), (522, 429), (511, 431), (500, 435), (489, 438), (476, 441), (474, 443), (473, 443), (473, 443), (473, 443), (473, 443), (473, 443), (473, 443), (473, 443), (473, 443), (473, 443), (473, 443), (473, 443), (473, 443), (473, 443), (473, 443), (473, 443), (473, 443), (473, 443), (472, 443), (461, 449), (450, 455), (422, 471), (385, 490), (297, 525)]",146.74257846503957,"[3, 7, 6, 9, 5, 1, 8, 4, 2]","(0, 0.25)",CHN004B,CHN,B,Chinese,Thu Oct  4 18:04:23 2018,Mouse
2,1,2,0,22,5,5,1,935,895,40,141,0,500,200,8000,"[(512, 384), (512, 384), (512, 384), (512, 384), (512, 384), (512, 384), (512, 384), (512, 384), (512, 384), (512, 384), (512, 384), (512, 384), (512, 384), (512, 384), (512, 384), (512, 384), (512, 384), (512, 384), (512, 384), (512, 384), (512, 384), (512, 384), (512, 384), (512, 384), (512, 384), (512, 384), (512, 384), (512, 384), (512, 384), (512, 384), (512, 384), (512, 384), (512, 384), (512, 384), (512, 384), (512, 384), (512, 384), (512, 384), (512, 384), (512, 384), (512, 384), (512, 384), (512, 384), (512, 384), (512, 384), (512, 384), (512, 384), (512, 384), (512, 384), (512, 384), (512, 384), (512, 384), (512, 384), (512, 384), (512, 384), (512, 384), (512, 384), (512, 384), (512, 384), (512, 384), (512, 384), (512, 384), (512, 384), (512, 384), (512, 384), (512, 384), (512, 384), (512, 384), (512, 384), (512, 384), (512, 384), (512, 384), (512, 384), (512, 384), (512, 384), (512, 384), (512, 384), (512, 384), (512, 384), (512, 384), (512, 384), (512, 384), (512, 384), (512, 384), (512, 384), (512, 384), (512, 384), (512, 384), (512, 384), (504, 384), (474, 387), (334, 398), (265, 398), (196, 398)]",177.46323826184002,"[3, 7, 6, 9, 5, 1, 8, 4, 2]","(0, 0.25)",CHN004B,CHN,B,Chinese,Thu Oct  4 18:04:23 2018,Mouse
2,1,2,0,23,8,8,1,362,302,60,140,0,500,200,8000,"[(512, 384), (512, 384), (512, 384), (512, 384), (512, 384), (512, 384), (512, 384), (512, 384), (512, 384), (512, 384), (512, 384), (512, 384), (512, 384), (512, 384), (512, 384), (512, 384), (512, 384), (512, 384), (512, 384), (512, 384), (512, 384), (512, 384), (512, 384), (512, 384), (512, 384), (512, 384), (512, 384), (512, 384), (512, 384), (512, 384), (512, 379), (506, 341), (500, 301), (496, 253), (487, 162), (487, 139), (482, 118)]",263.56526084896325,"[3, 7, 6, 9, 5, 1, 8, 4, 2]","(0, 0.25)",CHN004B,CHN,B,Chinese,Thu Oct  4 18:04:23 2018,Mouse
2,1,2,0,24,3,7,0,-662,262,400,139,0,500,200,8000,"[(512, 384), (512, 384), (512, 384), (512, 384), (512, 384), (512, 384), (512, 384), (512, 384), (512, 384), (512, 384), (512, 384), (512, 384), (512, 384), (512, 384), (512, 384), (512, 384), (512, 384), (512, 384), (512, 384), (512, 384), (512, 384), (512, 384), (512, 384), (512, 384), (512, 384), (512, 384), (512, 385), (511, 385), (511, 385), (510, 386), (510, 386), (509, 386), (509, 386), (509, 386), (509, 386), (509, 386), (508, 387), (508, 387), (508, 388), (508, 389), (508, 391), (508, 393), (511, 396), (514, 397), (515, 398), (519, 400), (521, 402), (524, 403), (525, 404), (528, 407), (532, 411), (536, 417), (539, 422), (543, 426), (548, 436), (551, 440), (551, 440), (552, 442), (552, 443), (553, 445), (553, 445), (553, 447), (559, 466), (565, 484), (577, 516), (588, 544), (618, 613)]",65.16142654314821,"[3, 7, 6, 9, 5, 1, 8, 4, 2]","(0, 0.25)",CHN004B,CHN,B,Chinese,Thu Oct  4 18:04:23 2018,Mouse
2,1,2,0,25,5,7,0,-242,162,80,140,0,500,200,8000,"[(512, 384), (512, 384), (512, 384), (512, 384), (512, 384), (512, 384), (512, 384), (512, 384), (512, 384), (512, 384), (512, 384), (512, 384), (512, 384), (512, 384), (512, 384), (512, 384), (512, 387), (513, 392), (522, 402), (532, 416), (577, 459), (598, 485), (615, 510), (630, 535), (666, 590)]",53.21920924889906,"[3, 7, 6, 9, 5, 1, 8, 4, 2]","(0, 0.25)",CHN004B,CHN,B,Chinese,Thu Oct  4 18:04:23 2018,Mouse
2,1,2,0,26,5,5,1,472,272,200,141,0,500,200,8000,"[(512, 384), (512, 384), (512, 384), (512, 384), (512, 384), (512, 384), (512, 384), (512, 384), (512, 384), (512, 384), (512, 384), (512, 384), (512, 384), (512, 384), (512, 384), (512, 384), (512, 384), (512, 384), (512, 384), (512, 384), (512, 384), (512, 384), (512, 384), (512, 384), (512, 384), (512, 384), (512, 384), (512, 383), (505, 383), (497, 383), (491, 383), (486, 383), (472, 383), (468, 383), (463, 383), (460, 383), (456, 382), (451, 381), (445, 379), (434, 375), (399, 372), (375, 367), (354, 364), (332, 364), (292, 364), (280, 364), (267, 364), (257, 364)]",184.48460600954462,"[3, 7, 6, 9, 5, 1, 8, 4, 2]","(0, 0.25)",CHN004B,CHN,B,Chinese,Thu Oct  4 18:04:23 2018,Mouse
2,1,2,0,27,9,9,1,736,646,90,141,0,500,200,8000,"[(512, 384), (512, 384), (512, 384), (512, 384), (512, 384), (512, 384), (512, 384), (512, 384), (512, 384), (512, 384), (512, 384), (512, 384), (512, 384), (512, 384), (512, 384), (512, 384), (512, 384), (512, 384), (512, 384), (512, 384), (512, 384), (512, 384), (512, 384), (512, 384), (512, 384), (512, 384), (512, 384), (512, 384), (512, 384), (512, 384), (512, 384), (512, 384), (512, 384), (512, 384), (512, 384), (512, 384), (512, 384), (512, 384), (512, 384), (512, 384), (512, 384), (512, 384), (512, 384), (512, 384), (512, 384), (512, 384), (512, 384), (512, 384), (512, 384), (512, 384), (512, 384), (512, 384), (512, 384), (512, 384), (512, 384), (512, 384), (512, 384), (512, 384), (512, 384), (512, 384), (512, 384), (512, 384), (512, 384), (512, 384), (506, 387), (499, 396), (493, 405), (485, 412), (456, 431), (441, 444), (427, 459), (411, 482), (345, 547), (297, 587)]",136.64440326469511,"[3, 7, 6, 9, 5, 1, 8, 4, 2]","(0, 0.25)",CHN004B,CHN,B,Chinese,Thu Oct  4 18:04:23 2018,Mouse
2,1,2,0,28,3,5,0,-335,275,60,140,0,500,200,8000,"[(512, 384), (512, 384), (512, 384), (512, 384), (512, 384), (512, 384), (512, 384), (512, 384), (512, 384), (512, 384), (512, 384), (512, 384), (512, 384), (512, 384), (512, 384), (512, 384), (512, 384), (512, 384), (512, 384), (512, 384), (512, 384), (512, 384), (512, 384), (512, 384), (512, 384), (512, 384), (512, 384), (508, 384), (496, 384), (475, 384), (392, 373), (343, 365), (294, 357), (252, 353)]",186.79932144195848,"[3, 7, 6, 9, 5, 1, 8, 4, 2]","(0, 0.25)",CHN004B,CHN,B,Chinese,Thu Oct  4 18:04:23 2018,Mouse
2,1,2,0,29,8,4,0,-1052,852,200,141,0,500,200,8000,"[(512, 384), (512, 384), (512, 384), (512, 384), (512, 384), (512, 384), (512, 384), (512, 384), (512, 384), (512, 384), (512, 384), (512, 384), (512, 384), (512, 384), (512, 384), (512, 384), (512, 384), (512, 384), (512, 384), (512, 384), (512, 384), (512, 384), (512, 384), (512, 384), (512, 384), (512, 384), (512, 384), (512, 384), (512, 384), (512, 384), (512, 384), (512, 384), (512, 384), (512, 384), (512, 384), (512, 384), (512, 384), (512, 384), (512, 384), (512, 384), (512, 384), (512, 384), (512, 384), (512, 384), (512, 384), (512, 384), (512, 384), (512, 384), (512, 384), (512, 384), (512, 384), (512, 384), (512, 384), (512, 384), (512, 384), (512, 384), (512, 384), (512, 384), (512, 384), (512, 384), (512, 384), (512, 384), (512, 384), (512, 384), (512, 384), (512, 384), (512, 384), (512, 384), (512, 384), (512, 384), (512, 384), (512, 384), (512, 384), (512, 384), (512, 384), (512, 384), (512, 384), (512, 384), (512, 384), (512, 384), (512, 384), (512, 384), (512, 384), (512, 384), (512, 384), (507, 371), (501, 362), (500, 357), (496, 352), (491, 347), (491, 346), (490, 345), (490, 345), (490, 345), (490, 345), (490, 345), (490, 345), (490, 345), (490, 345), (490, 345), (490, 345), (493, 336), (501, 316), (520, 275), (543, 224), (583, 125)]",285.32996618433947,"[3, 7, 6, 9, 5, 1, 8, 4, 2]","(0, 0.25)",CHN004B,CHN,B,Chinese,Thu Oct  4 18:04:23 2018,Mouse
2,1,2,0,30,7,7,1,402,242,160,142,0,500,200,8000,"[(512, 384), (512, 384), (512, 384), (512, 384), (512, 384), (512, 384), (512, 384), (512, 384), (512, 384), (512, 384), (512, 384), (512, 384), (512, 384), (512, 384), (512, 384), (512, 384), (512, 384), (512, 384), (512, 384), (512, 384), (512, 384), (512, 384), (512, 384), (512, 384), (511, 387), (511, 389), (511, 392), (511, 397), (512, 408), (517, 416), (520, 423), (523, 432), (529, 448), (534, 456), (538, 465), (544, 480), (556, 508), (567, 531), (580, 556), (590, 581), (613, 631)]",67.76000925766047,"[3, 7, 6, 9, 5, 1, 8, 4, 2]","(0, 0.25)",CHN004B,CHN,B,Chinese,Thu Oct  4 18:04:23 2018,Mouse
2,1,2,0,31,9,9,1,454,354,100,142,0,500,200,8000,"[(512, 384), (512, 384), (512, 384), (512, 384), (512, 384), (512, 384), (512, 384), (512, 384), (512, 384), (512, 384), (512, 384), (512, 384), (512, 384), (512, 384), (512, 384), (512, 384), (512, 384), (512, 384), (512, 384), (512, 384), (512, 384), (512, 384), (512, 384), (512, 384), (512, 384), (512, 384), (512, 384), (512, 384), (512, 384), (512, 384), (512, 384), (512, 384), (512, 384), (512, 384), (512, 384), (510, 384), (503, 388), (485, 399), (458, 414), (393, 448), (367, 460), (347, 473), (327, 482), (305, 495), (296, 502), (292, 509)]",150.39554925399509,"[3, 7, 6, 9, 5, 1, 8, 4, 2]","(0, 0.25)",CHN004B,CHN,B,Chinese,Thu Oct  4 18:04:23 2018,Mouse
2,1,2,0,32,5,5,1,835,355,480,141,0,500,200,8000,"[(512, 384), (512, 384), (512, 384), (512, 384), (512, 384), (512, 384), (512, 384), (512, 384), (512, 384), (512, 384), (512, 384), (512, 384), (512, 384), (512, 384), (512, 384), (512, 384), (512, 384), (512, 384), (512, 384), (512, 384), (512, 384), (512, 384), (512, 384), (512, 384), (512, 384), (512, 384), (512, 384), (512, 384), (512, 384), (512, 384), (512, 384), (512, 384), (512, 384), (512, 384), (512, 384), (513, 384), (513, 384), (511, 380), (508, 370), (507, 363), (503, 357), (499, 347), (498, 346), (498, 345), (498, 345), (498, 345), (498, 345), (498, 345), (498, 345), (498, 345), (498, 345), (498, 345), (498, 345), (496, 346), (491, 352), (487, 355), (476, 360), (451, 368), (435, 371), (421, 371), (408, 371), (383, 369), (371, 366), (356, 361), (344, 357), (324, 352), (316, 350), (306, 350), (299, 350), (292, 350), (291, 350), (289, 350), (289, 350), (289, 350), (289, 350), (289, 350), (289, 350), (289, 350), (288, 350), (286, 350), (284, 350), (275, 351), (269, 353), (262, 354)]",186.84277341263095,"[3, 7, 6, 9, 5, 1, 8, 4, 2]","(0, 0.25)",CHN004B,CHN,B,Chinese,Thu Oct  4 18:04:23 2018,Mouse
2,1,2,0,33,1,7,0,-1531,461,1070,140,0,500,200,8000,"[(512, 384), (512, 384), (512, 384), (512, 384), (512, 384), (512, 384), (512, 384), (512, 384), (512, 384), (512, 384), (512, 384), (512, 384), (512, 384), (512, 384), (512, 384), (512, 384), (512, 384), (512, 384), (512, 384), (512, 384), (512, 384), (512, 384), (512, 384), (512, 384), (512, 384), (512, 384), (512, 384), (512, 384), (512, 384), (512, 384), (512, 384), (512, 384), (512, 384), (512, 384), (512, 384), (512, 384), (512, 384), (512, 384), (512, 384), (512, 384), (512, 384), (512, 384), (512, 384), (512, 384), (512, 384), (512, 384), (512, 386), (512, 389), (512, 390), (512, 392), (512, 393), (512, 393), (512, 393), (512, 393), (512, 393), (512, 393), (512, 393), (512, 393), (512, 393), (512, 393), (512, 393), (512, 393), (512, 393), (512, 393), (512, 393), (512, 393), (512, 393), (511, 393), (507, 393), (506, 393), (503, 392), (501, 392), (500, 391), (499, 391), (497, 391), (495, 389), (494, 389), (493, 389), (492, 388), (492, 388), (492, 388), (492, 388), (492, 388), (492, 388), (492, 388), (492, 388), (492, 388), (495, 388), (497, 388), (502, 390), (512, 393), (519, 395), (525, 396), (531, 398), (536, 400), (538, 400), (538, 400), (538, 400), (538, 400), (538, 400), (538, 400), (538, 400), (538, 400), (538, 400), (538, 400), (538, 400), (539, 400), (542, 400), (545, 400), (549, 400), (550, 400), (552, 400), (554, 400), (557, 402), (560, 403), (561, 403), (566, 406), (568, 407), (572, 411), (578, 414), (583, 417), (589, 422), (604, 432), (610, 438), (616, 442), (621, 446), (634, 457), (638, 461), (643, 466), (645, 467), (650, 472), (651, 473), (652, 474), (653, 475), (653, 476), (653, 477), (653, 478), (653, 479), (653, 480), (654, 480), (654, 480), (654, 480), (654, 481), (654, 481), (654, 483), (654, 487), (654, 503), (654, 513), (654, 524), (654, 532), (654, 551), (658, 564), (663, 575), (670, 592)]",52.77913719091436,"[3, 7, 6, 9, 5, 1, 8, 4, 2]","(0, 0.25)",CHN004B,CHN,B,Chinese,Thu Oct  4 18:04:23 2018,Mouse
2,1,2,0,34,4,6,0,-533,243,290,141,0,500,200,8000,"[(512, 384), (512, 384), (512, 384), (512, 384), (512, 384), (512, 384), (512, 384), (512, 384), (512, 384), (512, 384), (512, 384), (512, 384), (512, 384), (512, 384), (512, 384), (512, 384), (512, 384), (512, 384), (512, 384), (512, 384), (512, 384), (512, 384), (512, 384), (512, 384), (514, 387), (521, 399), (526, 406), (528, 412), (531, 417), (536, 423), (537, 426), (539, 427), (541, 430), (548, 438), (549, 440), (550, 442), (552, 445), (552, 451), (552, 454), (552, 457), (552, 460), (551, 468), (547, 473), (544, 481), (539, 489), (528, 518), (520, 535), (509, 558), (506, 572), (496, 605), (494, 618), (491, 626), (490, 632), (490, 638)]",94.95027223429175,"[3, 7, 6, 9, 5, 1, 8, 4, 2]","(0, 0.25)",CHN004B,CHN,B,Chinese,Thu Oct  4 18:04:23 2018,Mouse
2,1,2,0,35,6,6,1,522,282,240,142,0,500,200,8000,"[(512, 384), (512, 384), (512, 384), (512, 384), (512, 384), (512, 384), (512, 384), (512, 384), (512, 384), (512, 384), (512, 384), (512, 384), (512, 384), (512, 384), (512, 384), (512, 384), (512, 384), (512, 384), (512, 384), (512, 384), (512, 384), (512, 384), (512, 384), (512, 384), (512, 384), (512, 384), (512, 384), (512, 384), (507, 414), (497, 445), (487, 468), (482, 482), (479, 504), (479, 513), (479, 521), (479, 528), (482, 538), (484, 543), (484, 544), (485, 546), (485, 546), (485, 546), (486, 546), (486, 546), (490, 553), (490, 559), (490, 568), (490, 585), (488, 615), (487, 622), (486, 628), (484, 632), (484, 635)]",96.3652445556439,"[3, 7, 6, 9, 5, 1, 8, 4, 2]","(0, 0.25)",CHN004B,CHN,B,Chinese,Thu Oct  4 18:04:23 2018,Mouse
2,1,2,0,36,5,5,1,322,202,120,142,0,500,200,8000,"[(512, 384), (512, 384), (512, 384), (512, 384), (512, 384), (512, 384), (512, 384), (512, 384), (512, 384), (512, 384), (512, 384), (512, 384), (512, 384), (512, 384), (512, 384), (512, 384), (512, 384), (512, 384), (512, 384), (512, 384), (511, 384), (509, 384), (502, 384), (491, 385), (451, 386), (423, 386), (387, 386), (359, 386), (314, 386), (299, 386), (283, 386), (268, 386), (245, 386)]",179.57082615779774,"[3, 7, 6, 9, 5, 1, 8, 4, 2]","(0, 0.25)",CHN004B,CHN,B,Chinese,Thu Oct  4 18:04:23 2018,Mouse
2,1,2,0,37,8,8,1,902,852,50,141,0,500,200,8000,"[(512, 384), (512, 384), (512, 384), (512, 384), (512, 384), (512, 384), (512, 384), (512, 384), (512, 384), (512, 384), (512, 384), (512, 384), (512, 384), (512, 384), (512, 384), (512, 384), (512, 384), (512, 384), (512, 384), (512, 384), (512, 384), (512, 384), (512, 384), (512, 384), (512, 384), (512, 384), (512, 384), (512, 384), (512, 384), (512, 384), (512, 384), (512, 384), (512, 384), (512, 384), (512, 384), (512, 384), (512, 384), (512, 384), (512, 384), (512, 384), (512, 384), (512, 384), (512, 384), (512, 384), (512, 384), (512, 384), (512, 384), (512, 384), (512, 384), (512, 384), (512, 384), (512, 384), (512, 384), (512, 384), (512, 384), (512, 384), (512, 384), (512, 384), (512, 384), (512, 384), (512, 384), (512, 384), (512, 384), (512, 384), (512, 384), (512, 384), (512, 384), (512, 384), (512, 384), (512, 384), (512, 384), (512, 384), (512, 384), (512, 384), (512, 384), (512, 384), (512, 384), (512, 384), (512, 384), (512, 384), (512, 384), (512, 384), (512, 384), (512, 384), (512, 384), (514, 381), (514, 352), (518, 307), (532, 199), (537, 148), (539, 100)]",275.4308112967108,"[3, 7, 6, 9, 5, 1, 8, 4, 2]","(0, 0.25)",CHN004B,CHN,B,Chinese,Thu Oct  4 18:04:23 2018,Mouse
2,1,2,0,38,7,7,1,902,572,330,140,0,500,200,8000,"[(512, 384), (512, 384), (512, 384), (512, 384), (512, 384), (512, 384), (512, 384), (512, 384), (512, 384), (512, 384), (512, 384), (512, 384), (512, 384), (512, 384), (512, 384), (512, 384), (512, 384), (512, 384), (512, 384), (512, 384), (512, 384), (512, 384), (512, 384), (512, 384), (512, 384), (512, 384), (512, 384), (512, 384), (512, 384), (512, 384), (512, 384), (512, 384), (512, 384), (512, 384), (512, 384), (512, 384), (512, 384), (512, 384), (512, 384), (512, 384), (512, 384), (512, 384), (512, 384), (512, 384), (512, 384), (512, 384), (512, 384), (512, 384), (512, 384), (512, 384), (512, 384), (512, 384), (512, 384), (512, 384), (512, 384), (512, 384), (512, 384), (512, 385), (512, 388), (512, 389), (512, 391), (512, 392), (511, 395), (511, 396), (511, 396), (511, 396), (511, 398), (511, 398), (511, 398), (511, 398), (511, 398), (511, 398), (511, 398), (511, 398), (511, 401), (511, 401), (511, 403), (511, 404), (513, 407), (515, 410), (517, 414), (523, 421), (532, 437), (538, 448), (543, 455), (551, 465), (573, 498), (588, 525), (606, 558), (623, 592), (642, 644)]",63.43494882292201,"[3, 7, 6, 9, 5, 1, 8, 4, 2]","(0, 0.25)",CHN004B,CHN,B,Chinese,Thu Oct  4 18:04:23 2018,Mouse
2,1,2,0,39,2,4,0,-581,341,240,139,0,500,200,8000,"[(512, 384), (512, 384), (512, 384), (512, 384), (512, 384), (512, 384), (512, 384), (512, 384), (512, 384), (512, 384), (512, 384), (512, 384), (512, 384), (512, 384), (512, 384), (512, 384), (512, 384), (512, 384), (512, 384), (512, 384), (512, 384), (512, 384), (512, 384), (512, 384), (512, 384), (512, 384), (512, 384), (512, 384), (512, 384), (512, 384), (512, 384), (512, 384), (512, 384), (512, 384), (511, 383), (508, 383), (507, 380), (506, 379), (506, 379), (506, 379), (505, 379), (505, 379), (505, 379), (505, 379), (505, 379), (505, 379), (505, 379), (505, 379), (505, 379), (505, 379), (505, 379), (505, 377), (520, 359), (533, 346), (551, 328), (572, 310), (633, 257), (685, 219), (739, 178)]",317.7766035239023,"[3, 7, 6, 9, 5, 1, 8, 4, 2]","(0, 0.25)",CHN004B,CHN,B,Chinese,Thu Oct  4 18:04:23 2018,Mouse
2,1,2,0,40,5,5,1,383,233,150,140,0,500,200,8000,"[(512, 384), (512, 384), (512, 384), (512, 384), (512, 384), (512, 384), (512, 384), (512, 384), (512, 384), (512, 384), (512, 384), (512, 384), (512, 384), (512, 384), (512, 384), (512, 384), (512, 384), (512, 384), (512, 384), (512, 384), (512, 384), (512, 384), (512, 384), (512, 385), (512, 385), (510, 385), (508, 385), (507, 386), (505, 387), (501, 389), (480, 393), (468, 394), (454, 396), (435, 399), (382, 407), (355, 412), (318, 415), (294, 418), (227, 428)]",171.22362641437437,"[3, 7, 6, 9, 5, 1, 8, 4, 2]","(0, 0.25)",CHN004B,CHN,B,Chinese,Thu Oct  4 18:04:23 2018,Mouse
2,1,2,0,41,4,2,0,-362,92,270,140,0,500,200,8000,"[(512, 384), (512, 384), (512, 384), (512, 384), (512, 384), (512, 384), (512, 384), (512, 384), (512, 384), (511, 384), (511, 384), (510, 384), (510, 384), (510, 384), (510, 384), (510, 384), (510, 384), (510, 384), (510, 384), (510, 384), (510, 384), (510, 384), (510, 384), (510, 384), (510, 383), (510, 383), (513, 381), (519, 378), (536, 368), (548, 362), (562, 359), (575, 357), (610, 351), (640, 351), (676, 351), (710, 351), (790, 343)]",351.6103815465747,"[3, 7, 6, 9, 5, 1, 8, 4, 2]","(0, 0.25)",CHN004B,CHN,B,Chinese,Thu Oct  4 18:04:23 2018,Mouse
2,1,2,0,42,1,9,0,-1322,522,800,141,0,500,200,8000,"[(512, 384), (512, 384), (512, 384), (512, 384), (512, 384), (512, 384), (512, 384), (512, 384), (512, 384), (512, 384), (512, 384), (512, 384), (512, 384), (512, 384), (512, 384), (512, 384), (512, 384), (512, 384), (512, 384), (512, 384), (512, 384), (512, 384), (512, 384), (512, 384), (512, 384), (512, 384), (512, 384), (512, 384), (512, 384), (512, 384), (512, 384), (512, 384), (512, 384), (512, 384), (512, 384), (512, 384), (512, 384), (512, 384), (512, 384), (512, 384), (512, 384), (512, 384), (512, 384), (512, 384), (512, 384), (512, 384), (512, 384), (512, 384), (512, 384), (512, 384), (512, 384), (512, 384), (510, 384), (510, 384), (510, 384), (510, 384), (510, 384), (510, 384), (510, 384), (510, 384), (510, 384), (510, 384), (510, 384), (510, 384), (510, 384), (510, 384), (510, 384), (510, 384), (510, 384), (510, 384), (510, 384), (510, 384), (510, 384), (510, 384), (510, 384), (510, 384), (510, 384), (510, 384), (510, 384), (510, 384), (509, 384), (507, 384), (507, 384), (505, 384), (505, 384), (505, 384), (503, 384), (503, 384), (502, 386), (501, 386), (501, 386), (501, 386), (500, 387), (500, 387), (500, 387), (499, 387), (497, 389), (494, 390), (489, 391), (481, 394), (461, 396), (452, 398), (441, 400), (432, 401), (418, 404), (413, 405), (411, 408), (410, 408), (410, 412), (410, 414), (410, 414), (411, 416), (415, 416), (417, 418), (419, 419), (421, 419), (422, 419), (423, 419), (423, 419), (423, 419), (423, 419), (423, 421), (422, 422), (419, 424), (407, 429), (397, 433), (386, 439), (371, 446), (345, 469), (334, 489), (326, 509), (318, 537), (304, 584)]",136.12330271407544,"[3, 7, 6, 9, 5, 1, 8, 4, 2]","(0, 0.25)",CHN004B,CHN,B,Chinese,Thu Oct  4 18:04:23 2018,Mouse
2,1,2,0,43,7,7,1,572,332,240,142,0,500,200,8000,"[(512, 384), (512, 384), (512, 384), (512, 384), (512, 384), (512, 384), (512, 384), (512, 384), (512, 384), (512, 384), (512, 384), (512, 384), (512, 384), (512, 384), (512, 384), (512, 384), (512, 384), (512, 384), (512, 384), (512, 384), (512, 384), (512, 384), (512, 384), (512, 384), (512, 384), (512, 384), (512, 384), (512, 384), (512, 384), (512, 384), (512, 384), (512, 384), (512, 384), (511, 384), (511, 384), (510, 384), (508, 384), (508, 384), (507, 384), (507, 384), (507, 384), (507, 384), (507, 384), (506, 387), (512, 397), (521, 406), (530, 414), (540, 423), (560, 444), (570, 465), (584, 492), (599, 529), (606, 572), (606, 584), (606, 595), (602, 606), (602, 615), (601, 619)]",69.25715038568971,"[3, 7, 6, 9, 5, 1, 8, 4, 2]","(0, 0.25)",CHN004B,CHN,B,Chinese,Thu Oct  4 18:04:23 2018,Mouse
2,1,2,0,44,6,6,1,432,342,90,142,0,500,200,8000,"[(512, 384), (512, 384), (512, 384), (512, 384), (512, 384), (512, 384), (512, 384), (512, 384), (512, 384), (512, 384), (512, 384), (512, 384), (512, 384), (512, 384), (512, 384), (512, 384), (512, 384), (512, 384), (512, 384), (512, 384), (512, 384), (512, 384), (512, 384), (512, 384), (512, 384), (512, 384), (512, 384), (512, 384), (512, 384), (512, 384), (512, 384), (512, 384), (512, 384), (512, 384), (512, 390), (506, 450), (505, 486), (502, 507), (498, 529), (495, 559), (494, 574), (493, 588), (492, 609), (484, 659)]",95.81371717933489,"[3, 7, 6, 9, 5, 1, 8, 4, 2]","(0, 0.25)",CHN004B,CHN,B,Chinese,Thu Oct  4 18:04:23 2018,Mouse
2,1,2,0,45,2,9,0,-1183,933,250,141,0,500,200,8000,"[(512, 384), (512, 384), (512, 384), (512, 384), (512, 384), (512, 384), (512, 384), (512, 384), (512, 384), (512, 384), (512, 384), (512, 384), (512, 384), (512, 384), (512, 384), (512, 384), (512, 384), (512, 384), (512, 384), (512, 384), (512, 384), (512, 384), (512, 384), (512, 384), (512, 384), (512, 384), (512, 384), (512, 384), (512, 384), (512, 384), (512, 384), (512, 384), (512, 384), (512, 384), (512, 384), (512, 384), (512, 384), (512, 384), (512, 384), (512, 384), (512, 384), (512, 384), (512, 384), (512, 384), (512, 384), (512, 384), (512, 384), (512, 384), (512, 384), (512, 384), (512, 384), (512, 384), (512, 384), (512, 384), (512, 384), (512, 384), (512, 384), (512, 384), (512, 384), (512, 384), (512, 384), (512, 384), (512, 384), (512, 384), (512, 384), (512, 384), (512, 384), (512, 384), (512, 384), (512, 384), (512, 384), (512, 384), (512, 384), (512, 384), (512, 384), (512, 384), (512, 384), (512, 384), (512, 384), (512, 384), (512, 384), (512, 384), (512, 384), (512, 384), (512, 384), (512, 384), (512, 384), (512, 384), (512, 384), (512, 384), (512, 384), (512, 384), (512, 384), (512, 385), (511, 386), (510, 387), (507, 390), (506, 391), (499, 396), (490, 402), (487, 403), (481, 406), (475, 409), (468, 411), (467, 411), (467, 411), (467, 411), (467, 411), (467, 411), (467, 411), (467, 411), (467, 411), (467, 411), (467, 411), (466, 414), (442, 436), (411, 464), (361, 500), (303, 532)]",144.69639354113903,"[3, 7, 6, 9, 5, 1, 8, 4, 2]","(0, 0.25)",CHN004B,CHN,B,Chinese,Thu Oct  4 18:04:23 2018,Mouse
2,1,2,0,46,8,8,1,903,603,300,142,0,500,200,8000,"[(512, 384), (512, 384), (512, 384), (512, 384), (512, 384), (512, 384), (512, 384), (512, 384), (512, 384), (512, 384), (512, 384), (512, 384), (512, 384), (512, 384), (512, 384), (512, 384), (512, 384), (512, 384), (512, 384), (512, 384), (512, 384), (512, 384), (512, 384), (512, 384), (512, 384), (512, 384), (512, 384), (512, 384), (512, 384), (512, 384), (512, 384), (512, 384), (512, 384), (512, 384), (512, 384), (512, 384), (512, 384), (512, 384), (512, 384), (512, 384), (512, 384), (512, 384), (512, 384), (512, 384), (512, 384), (512, 384), (512, 384), (512, 384), (512, 384), (512, 384), (512, 384), (512, 384), (512, 384), (512, 384), (512, 384), (512, 384), (512, 384), (512, 384), (512, 384), (512, 384), (510, 384), (510, 384), (509, 384), (509, 384), (509, 384), (509, 384), (509, 384), (509, 384), (509, 384), (509, 384), (509, 384), (509, 384), (509, 384), (509, 384), (509, 384), (509, 384), (509, 384), (509, 384), (509, 384), (509, 384), (509, 384), (509, 384), (509, 384), (509, 384), (506, 376), (498, 345), (494, 318), (490, 283), (490, 242), (489, 152), (489, 105)]",265.28734831021154,"[3, 7, 6, 9, 5, 1, 8, 4, 2]","(0, 0.25)",CHN004B,CHN,B,Chinese,Thu Oct  4 18:04:23 2018,Mouse
2,1,2,0,47,8,8,1,785,275,510,142,0,500,200,8000,"[(512, 384), (512, 384), (512, 384), (512, 384), (512, 384), (512, 384), (512, 384), (512, 384), (512, 384), (512, 384), (512, 384), (512, 384), (512, 384), (512, 384), (512, 384), (512, 384), (512, 384), (512, 384), (512, 384), (512, 384), (512, 384), (512, 384), (512, 384), (512, 384), (512, 384), (512, 384), (512, 384), (512, 386), (512, 395), (512, 401), (512, 421), (509, 428), (508, 432), (507, 436), (507, 438), (507, 438), (507, 438), (507, 438), (507, 438), (507, 439), (507, 439), (507, 439), (507, 439), (507, 439), (507, 438), (507, 429), (503, 407), (502, 396), (501, 388), (499, 381), (496, 368), (493, 363), (489, 356), (486, 350), (476, 335), (471, 330), (466, 323), (461, 321), (455, 316), (453, 315), (451, 315), (450, 314), (450, 314), (450, 314), (450, 314), (450, 314), (450, 314), (450, 314), (450, 314), (450, 314), (450, 314), (450, 314), (450, 314), (450, 314), (450, 313), (450, 293), (450, 229), (457, 154), (481, 7)]",265.2992515655862,"[3, 7, 6, 9, 5, 1, 8, 4, 2]","(0, 0.25)",CHN004B,CHN,B,Chinese,Thu Oct  4 18:04:23 2018,Mouse
2,1,2,0,48,1,6,0,-1152,942,210,141,0,500,200,8000,"[(512, 384), (512, 384), (512, 384), (512, 384), (512, 384), (512, 384), (512, 384), (512, 384), (512, 384), (512, 384), (512, 384), (512, 384), (512, 384), (512, 384), (512, 384), (512, 384), (512, 384), (512, 384), (512, 384), (512, 384), (512, 384), (512, 384), (512, 384), (512, 384), (512, 384), (512, 384), (512, 384), (512, 384), (512, 384), (512, 384), (512, 384), (512, 384), (512, 384), (512, 384), (512, 384), (512, 384), (512, 384), (512, 384), (512, 384), (512, 384), (512, 384), (512, 384), (512, 384), (512, 384), (512, 384), (512, 384), (512, 384), (512, 384), (512, 384), (512, 384), (512, 384), (512, 384), (512, 384), (512, 384), (512, 384), (512, 384), (512, 384), (512, 384), (512, 384), (512, 384), (512, 384), (512, 384), (512, 384), (512, 384), (512, 384), (512, 384), (512, 384), (512, 384), (512, 384), (512, 384), (512, 384), (512, 384), (512, 384), (512, 384), (512, 384), (512, 384), (512, 384), (512, 384), (512, 384), (512, 384), (512, 384), (512, 384), (512, 384), (512, 384), (512, 384), (512, 384), (512, 384), (512, 384), (512, 384), (512, 384), (512, 384), (512, 384), (512, 384), (512, 384), (512, 385), (512, 388), (511, 390), (510, 391), (510, 391), (510, 391), (509, 392), (509, 393), (509, 394), (509, 394), (508, 395), (508, 395), (508, 395), (508, 396), (508, 406), (508, 418), (508, 434), (508, 465), (505, 538), (497, 579), (490, 614), (485, 641)]",95.99740057391553,"[3, 7, 6, 9, 5, 1, 8, 4, 2]","(0, 0.25)",CHN004B,CHN,B,Chinese,Thu Oct  4 18:04:23 2018,Mouse
2,1,2,0,49,4,4,1,402,342,60,142,0,500,200,8000,"[(512, 384), (512, 384), (512, 384), (512, 384), (512, 384), (512, 384), (512, 384), (512, 384), (512, 384), (512, 384), (512, 384), (512, 384), (512, 384), (512, 384), (512, 384), (512, 384), (512, 384), (512, 384), (512, 384), (512, 384), (512, 384), (512, 384), (512, 384), (512, 384), (512, 384), (512, 384), (512, 384), (512, 384), (512, 384), (512, 384), (512, 384), (512, 384), (512, 384), (512, 384), (515, 378), (527, 362), (537, 348), (571, 298), (595, 252), (627, 192), (658, 139)]",300.7914907266981,"[3, 7, 6, 9, 5, 1, 8, 4, 2]","(0, 0.25)",CHN004B,CHN,B,Chinese,Thu Oct  4 18:04:23 2018,Mouse
2,1,2,0,50,1,7,0,-851,292,559,142,0,500,200,8000,"[(512, 384), (512, 384), (512, 384), (512, 384), (512, 384), (512, 384), (512, 384), (512, 384), (512, 384), (512, 384), (512, 384), (512, 384), (512, 384), (512, 384), (512, 384), (512, 384), (512, 384), (512, 384), (512, 384), (512, 384), (512, 384), (512, 384), (512, 384), (512, 384), (512, 384), (512, 384), (512, 384), (512, 384), (512, 384), (511, 386), (509, 386), (508, 387), (506, 387), (504, 387), (504, 388), (504, 388), (502, 388), (502, 388), (501, 388), (499, 390), (499, 390), (498, 390), (498, 390), (498, 390), (498, 390), (498, 390), (498, 390), (498, 390), (498, 390), (498, 390), (498, 390), (498, 390), (498, 390), (498, 390), (498, 390), (498, 390), (498, 390), (498, 390), (498, 390), (498, 390), (498, 390), (498, 390), (498, 390), (498, 390), (498, 390), (498, 390), (498, 390), (498, 390), (498, 390), (498, 390), (498, 390), (498, 391), (498, 391), (498, 393), (498, 393), (498, 393), (498, 397), (502, 405), (505, 410), (511, 420), (522, 434), (553, 474), (575, 502), (596, 531), (615, 559), (649, 611)]",58.88800116090679,"[3, 7, 6, 9, 5, 1, 8, 4, 2]","(0, 0.25)",CHN004B,CHN,B,Chinese,Thu Oct  4 18:04:23 2018,Mouse
2,1,2,0,51,1,5,0,-325,114,211,143,0,500,200,8000,"[(512, 384), (512, 384), (512, 384), (512, 384), (512, 384), (512, 384), (512, 384), (512, 384), (512, 384), (512, 384), (512, 384), (510, 384), (510, 384), (510, 384), (510, 384), (509, 384), (508, 384), (507, 384), (505, 386), (495, 387), (488, 388), (477, 388), (466, 390), (446, 390), (434, 390), (420, 390), (399, 390), (349, 390), (323, 390), (310, 387), (293, 387), (266, 387), (252, 387)]",179.33892418841458,"[3, 7, 6, 9, 5, 1, 8, 4, 2]","(0, 0.25)",CHN004B,CHN,B,Chinese,Thu Oct  4 18:04:23 2018,Mouse
2,1,2,0,52,6,6,1,412,342,70,144,0,500,200,8000,"[(512, 384), (512, 384), (512, 384), (512, 384), (512, 384), (512, 384), (512, 384), (512, 384), (512, 384), (512, 384), (512, 384), (512, 384), (512, 384), (512, 384), (512, 384), (512, 384), (512, 384), (512, 384), (512, 384), (512, 384), (512, 384), (512, 384), (512, 384), (512, 384), (512, 384), (512, 384), (512, 384), (512, 384), (512, 384), (512, 384), (512, 384), (512, 384), (512, 384), (512, 384), (512, 396), (498, 469), (491, 504), (488, 536), (483, 563), (479, 602), (475, 623), (473, 637)]",98.76317912558711,"[3, 7, 6, 9, 5, 1, 8, 4, 2]","(0, 0.25)",CHN004B,CHN,B,Chinese,Thu Oct  4 18:04:23 2018,Mouse
2,1,2,0,53,7,7,1,852,782,70,144,0,500,200,8000,"[(512, 384), (512, 384), (512, 384), (512, 384), (512, 384), (512, 384), (512, 384), (512, 384), (512, 384), (512, 384), (512, 384), (512, 384), (512, 384), (512, 384), (512, 384), (512, 384), (512, 384), (512, 384), (512, 384), (512, 384), (512, 384), (512, 384), (512, 384), (512, 384), (512, 384), (512, 384), (512, 384), (512, 384), (512, 384), (512, 384), (512, 384), (512, 384), (512, 384), (512, 384), (512, 384), (512, 384), (512, 384), (512, 384), (512, 384), (512, 384), (512, 384), (512, 384), (512, 384), (512, 384), (512, 384), (512, 384), (512, 384), (512, 384), (512, 384), (512, 384), (512, 384), (512, 384), (512, 384), (512, 384), (512, 384), (512, 384), (512, 384), (512, 384), (512, 384), (512, 384), (512, 384), (512, 384), (512, 384), (512, 384), (512, 384), (512, 384), (512, 384), (512, 384), (512, 384), (512, 384), (512, 384), (512, 384), (512, 384), (512, 384), (512, 384), (512, 384), (512, 384), (512, 384), (516, 394), (531, 416), (547, 441), (567, 472), (615, 527), (638, 556), (656, 579), (674, 599)]",53.00240023386341,"[3, 7, 6, 9, 5, 1, 8, 4, 2]","(0, 0.25)",CHN004B,CHN,B,Chinese,Thu Oct  4 18:04:23 2018,Mouse
2,1,2,0,54,8,8,1,562,502,60,143,0,500,200,8000,"[(512, 384), (512, 384), (512, 384), (512, 384), (512, 384), (512, 384), (512, 384), (512, 384), (512, 384), (512, 384), (512, 384), (512, 384), (512, 384), (512, 384), (512, 384), (512, 384), (512, 384), (512, 384), (512, 384), (512, 384), (512, 384), (512, 384), (512, 384), (512, 384), (512, 384), (512, 384), (512, 384), (512, 384), (512, 384), (512, 384), (512, 384), (512, 384), (512, 384), (512, 384), (512, 384), (512, 384), (512, 384), (512, 384), (512, 384), (512, 384), (512, 384), (512, 384), (512, 384), (512, 384), (512, 384), (512, 384), (512, 384), (512, 384), (512, 384), (512, 384), (511, 382), (501, 364), (481, 337), (441, 258), (427, 206), (413, 156), (408, 113)]",249.00500376730446,"[3, 7, 6, 9, 5, 1, 8, 4, 2]","(0, 0.25)",CHN004B,CHN,B,Chinese,Thu Oct  4 18:04:23 2018,Mouse
2,1,2,0,55,5,5,1,850,340,510,142,0,500,200,8000,"[(512, 384), (512, 384), (512, 384), (512, 384), (512, 384), (512, 384), (512, 384), (512, 384), (512, 384), (512, 384), (512, 384), (512, 384), (512, 384), (512, 384), (512, 384), (512, 384), (512, 384), (512, 384), (512, 384), (512, 384), (512, 384), (512, 384), (512, 384), (512, 384), (512, 384), (512, 384), (512, 384), (512, 384), (512, 384), (512, 384), (512, 384), (512, 384), (512, 384), (512, 385), (514, 389), (514, 391), (515, 394), (516, 396), (516, 396), (516, 398), (516, 399), (516, 399), (516, 400), (514, 402), (514, 402), (514, 402), (514, 402), (514, 402), (514, 402), (514, 402), (514, 402), (513, 402), (506, 402), (501, 402), (496, 401), (492, 398), (482, 393), (479, 392), (474, 392), (471, 389), (468, 388), (468, 388), (466, 388), (466, 388), (466, 388), (466, 388), (466, 388), (466, 388), (466, 388), (466, 388), (466, 388), (466, 388), (466, 388), (466, 388), (465, 388), (453, 389), (440, 394), (422, 397), (399, 400), (375, 403), (333, 409), (307, 411), (285, 411), (271, 411), (248, 411)]",174.16050768848257,"[3, 7, 6, 9, 5, 1, 8, 4, 2]","(0, 0.25)",CHN004B,CHN,B,Chinese,Thu Oct  4 18:04:23 2018,Mouse
2,1,2,0,56,4,4,1,402,302,100,141,0,500,200,8000,"[(512, 384), (512, 384), (512, 384), (512, 384), (512, 384), (512, 384), (512, 384), (512, 384), (512, 384), (512, 384), (512, 384), (512, 384), (512, 384), (512, 384), (512, 384), (512, 384), (512, 384), (512, 384), (512, 384), (512, 384), (512, 384), (512, 384), (512, 384), (512, 384), (512, 384), (512, 384), (512, 384), (512, 384), (512, 384), (512, 384), (516, 376), (534, 323), (545, 299), (554, 281), (563, 260), (577, 220), (585, 201), (591, 184), (594, 172), (599, 154), (600, 148)]",290.4495476107926,"[3, 7, 6, 9, 5, 1, 8, 4, 2]","(0, 0.25)",CHN004B,CHN,B,Chinese,Thu Oct  4 18:04:23 2018,Mouse
2,1,2,0,57,4,3,0,-641,591,50,140,0,500,200,8000,"[(512, 384), (512, 384), (512, 384), (512, 384), (512, 384), (512, 384), (512, 384), (512, 384), (512, 384), (512, 384), (512, 384), (512, 384), (512, 384), (512, 384), (512, 384), (512, 384), (512, 384), (512, 384), (512, 384), (512, 384), (512, 384), (512, 384), (512, 384), (512, 384), (512, 384), (512, 384), (512, 384), (512, 384), (512, 384), (512, 384), (512, 384), (512, 384), (512, 384), (512, 384), (512, 384), (512, 384), (512, 384), (512, 384), (512, 384), (512, 384), (512, 384), (512, 384), (512, 384), (512, 384), (512, 384), (512, 384), (512, 384), (512, 384), (512, 384), (512, 384), (512, 384), (512, 384), (512, 384), (512, 384), (512, 384), (512, 384), (512, 384), (512, 384), (512, 384), (518, 395), (562, 430), (595, 455), (645, 486), (697, 517), (806, 578)]",33.41938081777189,"[3, 7, 6, 9, 5, 1, 8, 4, 2]","(0, 0.25)",CHN004B,CHN,B,Chinese,Thu Oct  4 18:04:23 2018,Mouse
2,1,2,0,58,6,6,1,403,33,370,141,0,500,200,8000,"[(512, 384), (512, 384), (512, 384), (512, 385), (506, 386), (506, 386), (506, 386), (506, 386), (506, 386), (506, 386), (506, 386), (506, 386), (506, 386), (506, 386), (506, 386), (506, 386), (506, 386), (506, 386), (506, 386), (506, 386), (506, 386), (506, 386), (506, 386), (506, 386), (506, 386), (506, 386), (506, 386), (506, 386), (506, 386), (506, 386), (506, 386), (506, 386), (506, 386), (506, 386), (506, 386), (506, 386), (506, 457), (500, 492), (500, 534), (498, 590), (496, 706)]",92.8446556047734,"[3, 7, 6, 9, 5, 1, 8, 4, 2]","(0, 0.25)",CHN004B,CHN,B,Chinese,Thu Oct  4 18:04:23 2018,Mouse
2,1,2,0,59,2,2,1,512,342,170,141,0,500,200,8000,"[(512, 384), (512, 384), (512, 384), (512, 384), (512, 384), (512, 384), (512, 384), (512, 384), (512, 384), (512, 384), (512, 384), (512, 384), (512, 384), (512, 384), (512, 384), (512, 384), (512, 384), (512, 384), (512, 384), (512, 384), (512, 384), (512, 384), (512, 384), (512, 384), (512, 384), (512, 384), (512, 384), (512, 384), (512, 384), (512, 384), (512, 384), (512, 384), (512, 384), (512, 384), (513, 383), (514, 383), (519, 382), (522, 382), (526, 382), (531, 382), (540, 382), (544, 382), (549, 384), (556, 384), (573, 384), (586, 383), (604, 379), (625, 375), (675, 361), (704, 351), (738, 334), (778, 317)]",345.8624378410197,"[3, 7, 6, 9, 5, 1, 8, 4, 2]","(0, 0.25)",CHN004B,CHN,B,Chinese,Thu Oct  4 18:04:23 2018,Mouse
2,1,2,0,60,4,4,1,872,812,60,140,0,500,200,8000,"[(512, 384), (512, 384), (512, 384), (512, 384), (512, 384), (512, 384), (512, 384), (512, 384), (512, 384), (512, 384), (512, 384), (512, 384), (512, 384), (512, 384), (512, 384), (512, 384), (512, 384), (512, 384), (512, 384), (512, 384), (512, 384), (512, 384), (512, 384), (512, 384), (512, 384), (512, 384), (512, 384), (512, 384), (512, 384), (512, 384), (512, 384), (512, 384), (512, 384), (512, 384), (512, 384), (512, 384), (512, 384), (512, 384), (512, 384), (512, 384), (512, 384), (512, 384), (512, 384), (512, 384), (512, 384), (512, 384), (512, 384), (512, 384), (512, 384), (512, 384), (512, 384), (512, 384), (512, 384), (512, 384), (512, 384), (512, 384), (512, 384), (512, 384), (512, 384), (512, 384), (512, 384), (512, 384), (512, 384), (512, 384), (512, 384), (512, 384), (512, 384), (512, 384), (512, 384), (512, 384), (512, 384), (512, 384), (512, 384), (512, 384), (512, 384), (512, 384), (512, 384), (512, 384), (512, 384), (512, 384), (512, 384), (511, 369), (516, 360), (525, 348), (537, 329), (570, 257), (597, 203), (619, 157)]",295.2375790676053,"[3, 7, 6, 9, 5, 1, 8, 4, 2]","(0, 0.25)",CHN004B,CHN,B,Chinese,Thu Oct  4 18:04:23 2018,Mouse
2,1,2,0,61,3,5,0,-926,416,510,139,0,500,200,8000,"[(512, 384), (512, 384), (512, 384), (512, 384), (512, 384), (512, 384), (512, 384), (512, 384), (512, 384), (512, 384), (512, 384), (512, 384), (512, 384), (512, 384), (512, 384), (512, 384), (512, 384), (512, 384), (512, 384), (512, 384), (512, 384), (512, 384), (512, 384), (512, 384), (512, 384), (512, 384), (512, 384), (512, 384), (512, 384), (512, 384), (512, 384), (512, 384), (512, 384), (512, 384), (512, 384), (512, 384), (512, 384), (512, 384), (512, 384), (512, 384), (512, 384), (512, 385), (510, 385), (508, 385), (505, 385), (504, 384), (503, 384), (503, 384), (503, 384), (503, 384), (503, 384), (503, 384), (503, 384), (503, 384), (503, 384), (503, 384), (503, 384), (502, 385), (501, 386), (501, 386), (501, 386), (501, 386), (501, 387), (501, 388), (499, 389), (499, 390), (497, 391), (494, 393), (486, 398), (483, 402), (480, 406), (476, 410), (473, 415), (467, 423), (465, 426), (464, 427), (461, 429), (461, 430), (460, 431), (460, 431), (457, 431), (453, 431), (445, 431), (438, 431), (416, 429), (406, 428), (392, 426), (377, 426), (350, 426), (335, 426), (318, 426), (306, 427), (257, 439)]",167.82854179141253,"[3, 7, 6, 9, 5, 1, 8, 4, 2]","(0, 0.25)",CHN004B,CHN,B,Chinese,Thu Oct  4 18:04:23 2018,Mouse
2,1,2,0,62,4,4,1,592,542,50,140,0,500,200,8000,"[(512, 384), (512, 384), (512, 384), (512, 384), (512, 384), (512, 384), (512, 384), (512, 384), (512, 384), (512, 384), (512, 384), (512, 384), (512, 384), (512, 384), (512, 384), (512, 384), (512, 384), (512, 384), (512, 384), (512, 384), (512, 384), (512, 384), (512, 384), (512, 384), (512, 384), (512, 384), (512, 384), (512, 384), (512, 384), (512, 384), (512, 384), (512, 384), (512, 384), (512, 384), (512, 384), (512, 384), (512, 384), (512, 384), (512, 384), (512, 384), (512, 384), (512, 384), (512, 384), (512, 384), (512, 384), (512, 384), (512, 384), (512, 384), (512, 384), (512, 384), (512, 384), (512, 384), (512, 384), (512, 384), (514, 382), (526, 366), (571, 304), (603, 252), (627, 203), (644, 168)]",301.4295656148385,"[3, 7, 6, 9, 5, 1, 8, 4, 2]","(0, 0.25)",CHN004B,CHN,B,Chinese,Thu Oct  4 18:04:23 2018,Mouse
2,1,2,0,63,6,6,1,311,31,280,140,0,500,200,8000,"[(512, 384), (512, 384), (512, 384), (512, 389), (512, 396), (510, 402), (510, 409), (510, 411), (509, 411), (509, 412), (507, 414), (507, 414), (507, 415), (507, 415), (507, 416), (506, 418), (506, 420), (504, 422), (504, 426), (503, 427), (502, 429), (502, 429), (501, 432), (501, 435), (501, 445), (500, 456), (497, 498), (494, 530), (490, 564), (486, 586), (483, 621), (483, 638)]",96.51343979526374,"[3, 7, 6, 9, 5, 1, 8, 4, 2]","(0, 0.25)",CHN004B,CHN,B,Chinese,Thu Oct  4 18:04:23 2018,Mouse
2,1,2,0,64,3,5,0,-493,273,220,139,0,500,200,8000,"[(512, 384), (512, 384), (512, 384), (512, 384), (512, 384), (512, 384), (512, 384), (512, 384), (512, 384), (512, 384), (512, 384), (512, 384), (512, 384), (512, 384), (512, 384), (512, 384), (512, 384), (512, 384), (512, 384), (512, 384), (512, 384), (512, 384), (512, 384), (512, 384), (512, 384), (512, 384), (512, 384), (512, 381), (510, 372), (508, 367), (507, 366), (507, 366), (507, 366), (507, 366), (507, 366), (507, 366), (507, 366), (507, 366), (507, 366), (506, 368), (503, 371), (497, 377), (492, 381), (468, 389), (446, 395), (413, 402), (378, 409), (299, 413), (266, 413), (230, 413)]",174.12852057559635,"[3, 7, 6, 9, 5, 1, 8, 4, 2]","(0, 0.25)",CHN004B,CHN,B,Chinese,Thu Oct  4 18:04:23 2018,Mouse
2,1,2,0,65,3,5,0,-74,14,60,140,0,500,200,8000,"[(512, 384), (432, 393), (398, 395), (369, 398), (337, 403), (279, 408), (264, 408), (252, 408)]",174.72610404264825,"[3, 7, 6, 9, 5, 1, 8, 4, 2]","(0, 0.25)",CHN004B,CHN,B,Chinese,Thu Oct  4 18:04:23 2018,Mouse
2,1,2,0,66,1,7,0,-862,512,350,141,0,500,200,8000,"[(512, 384), (512, 384), (512, 384), (512, 384), (512, 384), (512, 384), (512, 384), (512, 384), (512, 384), (512, 384), (512, 384), (512, 384), (512, 384), (512, 384), (512, 384), (512, 384), (512, 384), (512, 384), (512, 384), (512, 384), (512, 384), (512, 384), (512, 384), (512, 384), (512, 384), (512, 384), (512, 384), (512, 384), (512, 384), (512, 384), (512, 384), (512, 384), (512, 384), (512, 384), (512, 384), (512, 384), (512, 384), (512, 384), (512, 384), (512, 384), (512, 384), (512, 384), (512, 384), (512, 384), (512, 384), (512, 384), (512, 384), (512, 384), (512, 384), (512, 384), (512, 384), (515, 386), (519, 391), (528, 398), (536, 402), (543, 404), (546, 406), (549, 407), (550, 407), (551, 408), (551, 408), (551, 408), (551, 408), (551, 408), (551, 408), (551, 408), (551, 408), (551, 408), (551, 408), (551, 408), (551, 408), (551, 408), (551, 408), (551, 408), (551, 408), (551, 408), (551, 408), (551, 408), (551, 408), (552, 408), (558, 420), (569, 446), (598, 502), (614, 532), (631, 562), (646, 587), (663, 617)]",57.05399167690892,"[3, 7, 6, 9, 5, 1, 8, 4, 2]","(0, 0.25)",CHN004B,CHN,B,Chinese,Thu Oct  4 18:04:23 2018,Mouse
2,1,2,0,67,6,6,1,345,285,60,142,0,500,200,8000,"[(512, 384), (512, 384), (512, 384), (512, 384), (512, 384), (512, 384), (512, 384), (512, 384), (512, 384), (512, 384), (512, 384), (512, 384), (512, 384), (512, 384), (512, 384), (512, 384), (512, 384), (512, 384), (512, 384), (512, 384), (512, 384), (512, 384), (512, 384), (512, 384), (512, 384), (512, 384), (512, 384), (512, 384), (508, 409), (497, 445), (461, 525), (443, 558), (429, 587), (422, 607), (416, 629)]",111.3970705423591,"[3, 7, 6, 9, 5, 1, 8, 4, 2]","(0, 0.25)",CHN004B,CHN,B,Chinese,Thu Oct  4 18:04:23 2018,Mouse
2,1,2,0,68,6,6,1,362,182,180,142,0,500,200,8000,"[(512, 384), (512, 384), (512, 384), (512, 384), (512, 384), (512, 384), (512, 384), (512, 384), (512, 384), (512, 384), (512, 384), (512, 384), (512, 384), (512, 384), (512, 384), (512, 384), (512, 384), (512, 384), (511, 384), (511, 384), (511, 384), (511, 384), (511, 384), (511, 384), (511, 384), (511, 384), (511, 391), (511, 402), (511, 449), (511, 490), (511, 518), (511, 546), (504, 581), (502, 599), (500, 613), (498, 627), (494, 653)]",93.82821146847502,"[3, 7, 6, 9, 5, 1, 8, 4, 2]","(0, 0.25)",CHN004B,CHN,B,Chinese,Thu Oct  4 18:04:23 2018,Mouse
2,1,2,0,69,3,5,0,-363,183,180,141,0,500,200,8000,"[(512, 384), (512, 384), (512, 384), (512, 384), (512, 384), (512, 384), (512, 384), (512, 384), (512, 384), (512, 384), (512, 384), (512, 384), (512, 384), (512, 384), (512, 384), (512, 384), (512, 384), (512, 384), (512, 383), (512, 382), (512, 382), (512, 382), (511, 382), (511, 382), (509, 381), (508, 381), (505, 380), (501, 378), (484, 376), (467, 375), (445, 371), (420, 369), (362, 357), (342, 355), (316, 355), (296, 354), (243, 354)]",186.36356823564222,"[3, 7, 6, 9, 5, 1, 8, 4, 2]","(0, 0.25)",CHN004B,CHN,B,Chinese,Thu Oct  4 18:04:23 2018,Mouse
2,1,2,0,70,2,6,0,-486,426,60,142,0,500,200,8000,"[(512, 384), (512, 384), (512, 384), (512, 384), (512, 384), (512, 384), (512, 384), (512, 384), (512, 384), (512, 384), (512, 384), (512, 384), (512, 384), (512, 384), (512, 384), (512, 384), (512, 384), (512, 384), (512, 384), (512, 384), (512, 384), (512, 384), (512, 384), (512, 384), (512, 384), (512, 384), (512, 384), (512, 384), (512, 384), (512, 384), (512, 384), (512, 384), (512, 384), (512, 384), (512, 384), (512, 384), (512, 384), (512, 384), (512, 384), (512, 384), (512, 384), (512, 384), (512, 385), (512, 406), (512, 429), (512, 473), (512, 520), (509, 621), (503, 669)]",91.80873932249206,"[3, 7, 6, 9, 5, 1, 8, 4, 2]","(0, 0.25)",CHN004B,CHN,B,Chinese,Thu Oct  4 18:04:23 2018,Mouse
2,1,2,0,71,5,5,1,322,12,310,143,0,500,200,8000,"[(512, 384), (512, 383), (511, 383), (504, 383), (500, 383), (488, 383), (474, 383), (448, 383), (436, 383), (424, 383), (414, 383), (401, 385), (398, 385), (397, 385), (395, 385), (394, 385), (394, 385), (394, 385), (394, 385), (393, 386), (393, 386), (392, 386), (392, 386), (391, 386), (389, 387), (387, 388), (380, 389), (362, 393), (352, 396), (340, 400), (323, 405), (276, 416), (228, 420)]",172.77568430595468,"[3, 7, 6, 9, 5, 1, 8, 4, 2]","(0, 0.25)",CHN004B,CHN,B,Chinese,Thu Oct  4 18:04:23 2018,Mouse
2,1,2,0,72,3,3,1,562,212,350,143,0,500,200,8000,"[(512, 384), (512, 384), (512, 384), (512, 384), (512, 384), (512, 384), (512, 384), (512, 384), (512, 384), (512, 384), (512, 384), (512, 384), (512, 384), (512, 384), (512, 384), (512, 384), (512, 384), (512, 384), (512, 384), (512, 384), (512, 384), (515, 384), (521, 384), (533, 386), (541, 389), (547, 391), (555, 394), (571, 400), (581, 407), (590, 413), (601, 419), (619, 434), (627, 439), (633, 442), (636, 445), (642, 450), (642, 450), (642, 450), (642, 450), (642, 450), (642, 450), (642, 450), (642, 450), (643, 450), (643, 450), (643, 450), (645, 450), (646, 450), (648, 450), (651, 450), (664, 450), (672, 450), (683, 450), (695, 450), (709, 450), (745, 455), (775, 460)]",16.117886437050686,"[3, 7, 6, 9, 5, 1, 8, 4, 2]","(0, 0.25)",CHN004B,CHN,B,Chinese,Thu Oct  4 18:04:23 2018,Mouse
2,1,2,0,73,1,6,0,-382,312,70,142,0,500,200,8000,"[(512, 384), (512, 384), (512, 384), (512, 384), (512, 384), (512, 384), (512, 384), (512, 384), (512, 384), (512, 384), (512, 384), (512, 384), (512, 384), (512, 384), (512, 384), (512, 384), (512, 384), (512, 384), (512, 384), (512, 384), (512, 384), (512, 384), (512, 384), (512, 384), (512, 384), (512, 384), (512, 384), (512, 384), (512, 384), (512, 384), (512, 384), (512, 389), (512, 407), (512, 433), (502, 494), (495, 515), (490, 536), (486, 561), (484, 639)]",96.26619809847925,"[3, 7, 6, 9, 5, 1, 8, 4, 2]","(0, 0.25)",CHN004B,CHN,B,Chinese,Thu Oct  4 18:04:23 2018,Mouse
2,1,2,0,74,9,9,1,882,432,450,143,0,500,200,8000,"[(512, 384), (512, 384), (512, 384), (512, 384), (512, 384), (512, 384), (512, 384), (512, 384), (512, 384), (512, 384), (512, 384), (512, 384), (512, 384), (512, 384), (512, 384), (512, 384), (512, 384), (512, 384), (512, 384), (512, 384), (512, 384), (512, 384), (512, 384), (512, 384), (512, 384), (512, 384), (512, 384), (512, 384), (512, 384), (512, 384), (512, 384), (512, 384), (512, 384), (512, 384), (512, 384), (512, 384), (512, 384), (512, 384), (512, 384), (512, 384), (512, 384), (512, 384), (512, 384), (518, 389), (538, 418), (560, 440), (584, 464), (614, 483), (640, 508), (649, 519), (651, 525), (652, 527), (654, 529), (654, 529), (654, 529), (654, 529), (649, 529), (638, 526), (625, 522), (612, 520), (593, 514), (587, 511), (587, 511), (587, 511), (587, 511), (587, 511), (587, 511), (587, 511), (583, 510), (582, 510), (578, 510), (573, 508), (567, 505), (562, 502), (560, 501), (556, 498), (553, 496), (551, 496), (549, 494), (547, 493), (535, 490), (523, 488), (508, 488), (489, 488), (433, 497), (407, 509), (376, 517), (335, 527), (278, 538)]",146.65029943753765,"[3, 7, 6, 9, 5, 1, 8, 4, 2]","(0, 0.25)",CHN004B,CHN,B,Chinese,Thu Oct  4 18:04:23 2018,Mouse
2,1,2,0,75,3,5,0,-342,92,250,143,0,500,200,8000,"[(512, 384), (512, 384), (512, 384), (512, 384), (512, 384), (512, 384), (512, 384), (512, 384), (512, 384), (511, 384), (503, 384), (497, 384), (488, 384), (485, 384), (484, 384), (483, 384), (482, 383), (482, 383), (482, 383), (482, 383), (482, 383), (482, 383), (482, 383), (482, 383), (482, 383), (482, 383), (482, 383), (482, 383), (479, 383), (468, 383), (447, 383), (414, 383), (329, 378), (284, 374), (232, 366)]",183.67823872199338,"[3, 7, 6, 9, 5, 1, 8, 4, 2]","(0, 0.25)",CHN004B,CHN,B,Chinese,Thu Oct  4 18:04:23 2018,Mouse
2,1,2,0,76,5,5,1,134,14,120,144,0,500,200,8000,"[(512, 384), (474, 393), (451, 398), (430, 401), (412, 404), (365, 408), (343, 408), (331, 408), (316, 408), (291, 408), (281, 408), (275, 408), (267, 408), (258, 409)]",174.37875693356054,"[3, 7, 6, 9, 5, 1, 8, 4, 2]","(0, 0.25)",CHN004B,CHN,B,Chinese,Thu Oct  4 18:04:23 2018,Mouse
2,1,2,0,77,5,5,1,83,43,40,144,0,500,200,8000,"[(512, 384), (512, 384), (512, 384), (512, 384), (486, 385), (454, 388), (408, 396), (359, 404), (250, 412)]",173.89994003967834,"[3, 7, 6, 9, 5, 1, 8, 4, 2]","(0, 0.25)",CHN004B,CHN,B,Chinese,Thu Oct  4 18:04:23 2018,Mouse
2,1,2,0,78,2,2,1,515,405,110,143,0,500,200,8000,"[(512, 384), (512, 384), (512, 384), (512, 384), (512, 384), (512, 384), (512, 384), (512, 384), (512, 384), (512, 384), (512, 384), (512, 384), (512, 384), (512, 384), (512, 384), (512, 384), (512, 384), (512, 384), (512, 384), (512, 384), (512, 384), (512, 384), (512, 384), (512, 384), (512, 384), (512, 384), (512, 384), (512, 384), (512, 384), (512, 384), (512, 384), (512, 384), (512, 384), (512, 384), (512, 384), (512, 384), (512, 384), (512, 384), (512, 384), (512, 384), (513, 384), (513, 384), (513, 384), (513, 384), (518, 381), (525, 378), (535, 375), (563, 369), (581, 367), (612, 367), (660, 365), (769, 361)]",354.88598616860486,"[3, 7, 6, 9, 5, 1, 8, 4, 2]","(0, 0.25)",CHN004B,CHN,B,Chinese,Thu Oct  4 18:04:23 2018,Mouse
2,1,2,0,79,8,8,1,612,272,340,142,0,500,200,8000,"[(512, 384), (512, 384), (512, 384), (512, 384), (512, 384), (512, 384), (512, 384), (512, 384), (512, 384), (512, 384), (512, 384), (512, 384), (512, 384), (512, 384), (512, 384), (512, 384), (512, 384), (512, 384), (512, 384), (512, 384), (512, 384), (512, 384), (512, 384), (512, 384), (512, 384), (512, 384), (512, 384), (506, 393), (498, 401), (490, 406), (486, 408), (481, 412), (479, 412), (479, 412), (478, 412), (478, 412), (477, 413), (477, 413), (477, 413), (477, 413), (477, 413), (476, 413), (476, 413), (473, 413), (471, 410), (470, 399), (467, 387), (462, 359), (459, 346), (455, 335), (453, 324), (447, 308), (444, 303), (444, 300), (443, 299), (441, 296), (441, 295), (441, 293), (441, 284), (441, 229), (442, 176), (442, 128)]",254.7070123140142,"[3, 7, 6, 9, 5, 1, 8, 4, 2]","(0, 0.25)",CHN004B,CHN,B,Chinese,Thu Oct  4 18:04:23 2018,Mouse
2,1,2,0,80,3,3,1,532,322,210,141,0,500,200,8000,"[(512, 384), (512, 384), (512, 384), (512, 384), (512, 384), (512, 384), (512, 384), (512, 384), (512, 384), (512, 384), (512, 384), (512, 384), (512, 384), (512, 384), (512, 384), (512, 384), (512, 384), (512, 384), (512, 384), (512, 384), (512, 384), (512, 384), (512, 384), (512, 384), (512, 384), (512, 384), (512, 384), (512, 384), (512, 384), (512, 384), (512, 384), (512, 384), (518, 383), (525, 379), (544, 371), (552, 370), (558, 369), (562, 369), (567, 369), (569, 369), (569, 369), (570, 369), (573, 372), (575, 374), (576, 378), (578, 379), (581, 386), (583, 392), (589, 399), (598, 411), (645, 451), (676, 475), (718, 502), (751, 527)]",30.893195262926902,"[3, 7, 6, 9, 5, 1, 8, 4, 2]","(0, 0.25)",CHN004B,CHN,B,Chinese,Thu Oct  4 18:04:23 2018,Mouse
2,1,2,0,81,4,4,1,441,351,90,140,0,500,200,8000,"[(512, 384), (512, 384), (512, 384), (512, 384), (512, 384), (512, 384), (512, 384), (512, 384), (512, 384), (512, 384), (512, 384), (512, 384), (512, 384), (512, 384), (512, 384), (512, 384), (512, 384), (512, 384), (512, 384), (512, 384), (512, 384), (512, 384), (512, 384), (512, 384), (512, 384), (512, 384), (512, 384), (512, 384), (512, 384), (512, 384), (512, 384), (512, 384), (512, 384), (512, 384), (512, 384), (512, 383), (512, 366), (524, 303), (527, 282), (534, 255), (539, 232), (554, 187), (560, 165), (565, 143), (572, 120)]",282.80426606528675,"[3, 7, 6, 9, 5, 1, 8, 4, 2]","(0, 0.25)",CHN004B,CHN,B,Chinese,Thu Oct  4 18:04:23 2018,Mouse
2,1,2,0,82,9,9,1,751,461,290,139,0,500,200,8000,"[(512, 384), (512, 384), (512, 384), (512, 384), (512, 384), (512, 384), (512, 384), (512, 384), (512, 384), (512, 384), (512, 384), (512, 384), (512, 384), (512, 384), (512, 384), (512, 384), (512, 384), (512, 384), (512, 384), (512, 384), (512, 384), (512, 384), (512, 384), (512, 384), (512, 384), (512, 384), (512, 384), (512, 384), (512, 384), (512, 384), (512, 384), (512, 384), (512, 384), (512, 384), (512, 384), (512, 384), (512, 384), (512, 384), (512, 384), (512, 384), (512, 384), (512, 384), (512, 384), (512, 384), (512, 384), (512, 384), (512, 385), (512, 385), (512, 385), (512, 385), (512, 385), (512, 385), (512, 385), (512, 385), (512, 385), (512, 385), (512, 385), (512, 385), (512, 385), (512, 385), (512, 385), (512, 385), (512, 385), (512, 385), (512, 385), (512, 385), (512, 385), (511, 385), (508, 385), (501, 393), (471, 430), (448, 452), (418, 469), (390, 487), (338, 520), (310, 536)]",143.03944455083666,"[3, 7, 6, 9, 5, 1, 8, 4, 2]","(0, 0.25)",CHN004B,CHN,B,Chinese,Thu Oct  4 18:04:23 2018,Mouse
2,1,2,0,83,4,5,0,-545,485,60,138,0,500,200,8000,"[(512, 384), (512, 384), (512, 384), (512, 384), (512, 384), (512, 384), (512, 384), (512, 384), (512, 384), (512, 384), (512, 384), (512, 384), (512, 384), (512, 384), (512, 384), (512, 384), (512, 384), (512, 384), (512, 384), (512, 384), (512, 384), (512, 384), (512, 384), (512, 384), (512, 384), (512, 384), (512, 384), (512, 384), (512, 384), (512, 384), (512, 384), (512, 384), (512, 384), (512, 384), (512, 384), (512, 384), (512, 384), (512, 384), (512, 384), (512, 384), (512, 384), (512, 384), (512, 384), (512, 384), (512, 384), (512, 384), (512, 384), (512, 384), (509, 384), (501, 384), (461, 384), (414, 386), (376, 392), (282, 403), (231, 407)]",175.32074083959517,"[3, 7, 6, 9, 5, 1, 8, 4, 2]","(0, 0.25)",CHN004B,CHN,B,Chinese,Thu Oct  4 18:04:23 2018,Mouse
2,1,2,0,84,2,2,1,552,502,50,139,0,500,200,8000,"[(512, 384), (512, 384), (512, 384), (512, 384), (512, 384), (512, 384), (512, 384), (512, 384), (512, 384), (512, 384), (512, 384), (512, 384), (512, 384), (512, 384), (512, 384), (512, 384), (512, 384), (512, 384), (512, 384), (512, 384), (512, 384), (512, 384), (512, 384), (512, 384), (512, 384), (512, 384), (512, 384), (512, 384), (512, 384), (512, 384), (512, 384), (512, 384), (512, 384), (512, 384), (512, 384), (512, 384), (512, 384), (512, 384), (512, 384), (512, 384), (512, 384), (512, 384), (512, 384), (512, 384), (512, 384), (512, 384), (512, 384), (512, 384), (512, 384), (512, 384), (516, 384), (549, 376), (637, 351), (687, 337), (735, 331), (829, 321)]",348.75960120484456,"[3, 7, 6, 9, 5, 1, 8, 4, 2]","(0, 0.25)",CHN004B,CHN,B,Chinese,Thu Oct  4 18:04:23 2018,Mouse
2,1,2,0,85,1,6,0,-542,72,470,139,0,500,200,8000,"[(512, 384), (512, 384), (512, 384), (512, 384), (512, 384), (512, 384), (512, 384), (508, 381), (508, 380), (508, 380), (508, 380), (509, 380), (509, 380), (509, 380), (509, 380), (509, 380), (509, 380), (509, 380), (509, 380), (509, 380), (509, 380), (509, 380), (509, 380), (509, 380), (509, 380), (509, 380), (509, 380), (509, 380), (509, 380), (509, 380), (509, 380), (509, 380), (509, 380), (509, 380), (509, 380), (509, 380), (509, 380), (509, 380), (509, 380), (509, 380), (509, 380), (509, 380), (509, 380), (509, 380), (509, 380), (509, 380), (509, 380), (509, 380), (509, 384), (509, 399), (509, 424), (509, 468), (495, 566), (483, 618), (469, 668)]",98.60967178077357,"[3, 7, 6, 9, 5, 1, 8, 4, 2]","(0, 0.25)",CHN004B,CHN,B,Chinese,Thu Oct  4 18:04:23 2018,Mouse
2,1,2,0,86,2,2,1,322,192,130,140,0,500,200,8000,"[(512, 384), (512, 384), (512, 384), (512, 384), (512, 384), (512, 384), (512, 384), (512, 384), (512, 384), (512, 384), (512, 384), (512, 384), (512, 384), (512, 384), (512, 384), (512, 384), (512, 384), (512, 384), (512, 384), (513, 382), (517, 378), (520, 377), (528, 375), (532, 374), (538, 374), (545, 373), (560, 369), (571, 367), (589, 356), (614, 348), (686, 326), (729, 311), (769, 294)]",340.70002383645436,"[3, 7, 6, 9, 5, 1, 8, 4, 2]","(0, 0.25)",CHN004B,CHN,B,Chinese,Thu Oct  4 18:04:23 2018,Mouse
2,1,2,0,87,4,4,1,672,302,370,140,0,500,200,8000,"[(512, 384), (512, 384), (512, 384), (512, 384), (512, 384), (512, 384), (512, 384), (512, 384), (512, 384), (512, 384), (512, 384), (512, 384), (512, 384), (512, 384), (512, 384), (512, 384), (512, 384), (512, 384), (512, 384), (512, 384), (512, 384), (512, 384), (512, 384), (512, 384), (512, 384), (512, 384), (512, 384), (512, 384), (512, 384), (512, 384), (511, 382), (516, 366), (537, 338), (558, 309), (611, 251), (625, 236), (637, 223), (649, 212), (665, 199), (668, 196), (670, 195), (670, 194), (670, 194), (670, 194), (670, 194), (670, 194), (670, 194), (670, 194), (670, 194), (670, 197), (667, 208), (663, 216), (658, 222), (652, 230), (639, 244), (632, 250), (623, 257), (611, 262), (593, 272), (586, 276), (582, 278), (579, 279), (579, 279), (579, 279), (578, 279), (578, 274), (614, 192), (634, 152)]",297.73817962838723,"[3, 7, 6, 9, 5, 1, 8, 4, 2]","(0, 0.25)",CHN004B,CHN,B,Chinese,Thu Oct  4 18:04:23 2018,Mouse
2,1,2,0,88,3,5,0,-552,302,250,139,0,500,200,8000,"[(512, 384), (512, 384), (512, 384), (512, 384), (512, 384), (512, 384), (512, 384), (512, 384), (512, 384), (512, 384), (512, 384), (512, 384), (512, 384), (512, 384), (512, 384), (512, 384), (512, 384), (512, 384), (512, 384), (512, 384), (512, 384), (512, 384), (512, 384), (512, 384), (512, 384), (512, 384), (512, 384), (512, 384), (512, 384), (512, 384), (511, 384), (509, 384), (506, 384), (504, 384), (501, 384), (497, 384), (494, 385), (491, 385), (490, 386), (487, 386), (485, 386), (482, 386), (478, 386), (466, 386), (457, 386), (448, 387), (438, 388), (416, 393), (400, 396), (388, 398), (374, 399), (337, 399), (317, 399), (300, 399), (285, 399), (261, 396)]",177.26284369493933,"[3, 7, 6, 9, 5, 1, 8, 4, 2]","(0, 0.25)",CHN004B,CHN,B,Chinese,Thu Oct  4 18:04:23 2018,Mouse
2,1,2,0,89,9,9,1,722,271,451,140,0,500,200,8000,"[(512, 384), (512, 384), (512, 384), (512, 384), (512, 384), (512, 384), (512, 384), (512, 384), (512, 384), (512, 384), (512, 384), (512, 384), (512, 384), (512, 384), (512, 384), (512, 384), (512, 384), (512, 384), (512, 384), (512, 384), (512, 384), (512, 384), (512, 384), (512, 384), (512, 384), (512, 384), (512, 384), (513, 384), (513, 391), (511, 408), (508, 416), (508, 425), (508, 434), (508, 453), (508, 461), (508, 470), (508, 475), (508, 481), (508, 484), (508, 488), (511, 496), (516, 517), (519, 531), (521, 546), (524, 559), (524, 578), (525, 585), (526, 588), (526, 590), (526, 592), (526, 593), (521, 593), (507, 590), (499, 586), (487, 582), (479, 579), (469, 575), (458, 568), (454, 566), (450, 564), (443, 563), (429, 559), (423, 557), (419, 556), (415, 556), (412, 556), (409, 557), (404, 562), (393, 578), (388, 583), (382, 589), (378, 593), (376, 595)]",122.80379466866115,"[3, 7, 6, 9, 5, 1, 8, 4, 2]","(0, 0.25)",CHN004B,CHN,B,Chinese,Thu Oct  4 18:04:23 2018,Mouse
2,1,2,0,90,2,2,1,545,475,70,140,0,500,200,8000,"[(512, 384), (512, 384), (512, 384), (512, 384), (512, 384), (512, 384), (512, 384), (512, 384), (512, 384), (512, 384), (512, 384), (512, 384), (512, 384), (512, 384), (512, 384), (512, 384), (512, 384), (512, 384), (512, 384), (512, 384), (512, 384), (512, 384), (512, 384), (512, 384), (512, 384), (512, 384), (512, 384), (512, 384), (512, 384), (512, 384), (512, 384), (512, 384), (512, 384), (512, 384), (512, 384), (512, 384), (512, 384), (512, 384), (512, 384), (512, 384), (512, 384), (512, 384), (512, 384), (512, 384), (512, 384), (512, 384), (512, 384), (522, 375), (536, 364), (559, 355), (587, 348), (664, 326), (705, 319), (749, 309), (788, 298)]",342.69326860889,"[3, 7, 6, 9, 5, 1, 8, 4, 2]","(0, 0.25)",CHN004B,CHN,B,Chinese,Thu Oct  4 18:04:23 2018,Mouse
2,1,2,0,91,9,9,1,1442,932,510,139,0,500,200,8000,"[(512, 384), (512, 384), (512, 384), (512, 384), (512, 384), (512, 384), (512, 384), (512, 384), (512, 384), (512, 384), (512, 384), (512, 384), (512, 384), (512, 384), (512, 384), (512, 384), (512, 384), (512, 384), (512, 384), (512, 384), (512, 384), (512, 384), (512, 384), (512, 384), (512, 384), (512, 384), (512, 384), (512, 384), (512, 384), (512, 384), (512, 384), (512, 384), (512, 384), (512, 384), (512, 384), (512, 384), (512, 384), (512, 384), (512, 384), (512, 384), (512, 384), (512, 384), (512, 384), (512, 384), (512, 384), (512, 384), (512, 384), (512, 384), (512, 384), (512, 384), (512, 384), (512, 384), (512, 384), (512, 384), (512, 384), (512, 384), (512, 384), (512, 384), (512, 384), (512, 384), (512, 384), (512, 384), (512, 384), (512, 384), (512, 384), (512, 384), (512, 384), (512, 384), (512, 384), (512, 384), (512, 384), (512, 384), (512, 384), (512, 384), (512, 384), (512, 384), (512, 384), (512, 384), (512, 384), (512, 384), (512, 384), (512, 384), (512, 384), (512, 384), (512, 384), (512, 384), (512, 384), (512, 384), (512, 384), (512, 384), (512, 384), (512, 384), (512, 384), (510, 384), (505, 384), (502, 384), (496, 385), (474, 392), (465, 395), (456, 397), (452, 398), (446, 402), (444, 402), (442, 402), (441, 403), (440, 403), (439, 403), (439, 404), (439, 404), (437, 404), (436, 404), (436, 404), (433, 404), (430, 404), (426, 404), (420, 404), (411, 404), (401, 404), (395, 404), (392, 404), (390, 404), (389, 404), (389, 404), (389, 404), (389, 404), (389, 404), (389, 404), (389, 404), (389, 404), (389, 404), (389, 404), (389, 404), (389, 404), (389, 404), (389, 404), (389, 404), (389, 404), (390, 408), (390, 412), (390, 420), (386, 430), (357, 454), (339, 469), (319, 493), (300, 520)]",147.3194452566366,"[3, 7, 6, 9, 5, 1, 8, 4, 2]","(0, 0.25)",CHN004B,CHN,B,Chinese,Thu Oct  4 18:04:23 2018,Mouse
2,1,2,0,92,7,7,1,972,442,530,138,0,500,200,8000,"[(512, 384), (512, 384), (512, 384), (512, 384), (512, 384), (512, 384), (512, 384), (512, 384), (512, 384), (512, 384), (512, 384), (512, 384), (512, 384), (512, 384), (512, 384), (512, 384), (512, 384), (512, 384), (512, 384), (512, 384), (512, 384), (512, 384), (512, 384), (512, 384), (512, 384), (512, 384), (512, 384), (512, 384), (512, 384), (512, 384), (512, 384), (512, 384), (512, 384), (512, 384), (512, 384), (512, 384), (512, 384), (512, 384), (512, 384), (512, 384), (512, 384), (512, 384), (512, 384), (512, 384), (512, 386), (513, 391), (513, 391), (513, 393), (513, 393), (513, 393), (513, 393), (513, 393), (513, 393), (513, 393), (513, 393), (513, 393), (513, 393), (513, 393), (513, 393), (513, 393), (513, 393), (513, 393), (513, 393), (513, 393), (513, 394), (513, 398), (515, 402), (519, 406), (525, 411), (539, 422), (544, 426), (549, 430), (550, 431), (550, 434), (550, 434), (550, 435), (550, 435), (550, 439), (545, 441), (543, 442), (542, 443), (541, 444), (541, 446), (541, 452), (541, 460), (542, 482), (547, 496), (550, 509), (555, 520), (567, 542), (577, 555), (587, 567), (596, 578), (614, 595), (620, 601), (624, 604), (626, 606), (633, 609)]",61.7296237536881,"[3, 7, 6, 9, 5, 1, 8, 4, 2]","(0, 0.25)",CHN004B,CHN,B,Chinese,Thu Oct  4 18:04:23 2018,Mouse
2,1,2,0,93,7,8,0,-1862,1822,40,137,0,500,200,8000,"[(512, 384), (512, 384), (512, 384), (512, 384), (512, 384), (512, 384), (512, 384), (512, 384), (512, 384), (512, 384), (512, 384), (512, 384), (512, 384), (512, 384), (512, 384), (512, 384), (512, 384), (512, 384), (512, 384), (512, 384), (512, 384), (512, 384), (512, 384), (512, 384), (512, 384), (512, 384), (512, 384), (512, 384), (512, 384), (512, 384), (512, 384), (512, 384), (512, 384), (512, 384), (512, 384), (512, 384), (512, 384), (512, 384), (512, 384), (512, 384), (512, 384), (512, 384), (512, 384), (512, 384), (512, 384), (512, 384), (512, 384), (512, 384), (512, 384), (512, 384), (512, 384), (512, 384), (512, 384), (512, 384), (512, 384), (512, 384), (512, 384), (512, 384), (512, 384), (512, 384), (512, 384), (512, 384), (512, 384), (512, 384), (512, 384), (512, 384), (512, 384), (512, 384), (512, 384), (512, 384), (512, 384), (512, 384), (512, 384), (512, 384), (512, 384), (512, 384), (512, 384), (512, 384), (512, 384), (512, 384), (512, 384), (512, 384), (512, 384), (512, 384), (512, 384), (512, 384), (512, 384), (512, 384), (512, 384), (512, 384), (512, 384), (512, 384), (512, 384), (512, 384), (512, 384), (512, 384), (512, 384), (512, 384), (512, 384), (512, 384), (512, 384), (512, 384), (512, 384), (512, 384), (512, 384), (512, 384), (512, 384), (512, 384), (512, 384), (512, 384), (512, 384), (512, 384), (512, 384), (512, 384), (512, 384), (512, 384), (512, 384), (512, 384), (512, 384), (512, 384), (512, 384), (512, 384), (512, 384), (512, 384), (512, 384), (512, 384), (512, 384), (512, 384), (512, 384), (512, 384), (512, 384), (512, 384), (512, 384), (512, 384), (512, 384), (512, 384), (512, 384), (512, 384), (512, 384), (512, 384), (512, 384), (512, 384), (512, 384), (512, 384), (512, 384), (512, 384), (512, 384), (512, 384), (512, 384), (512, 384), (512, 384), (512, 384), (512, 384), (512, 384), (512, 384), (512, 384), (512, 384), (512, 384), (512, 384), (512, 384), (512, 384), (512, 384), (512, 384), (512, 384), (512, 384), (512, 384), (512, 384), (512, 384), (512, 384), (512, 384), (512, 384), (512, 384), (512, 384), (512, 384), (512, 384), (512, 384), (512, 384), (512, 384), (512, 384), (512, 384), (512, 384), (512, 384), (507, 365), (501, 330), (485, 216), (481, 144), (481, 83)]",264.1198374741174,"[3, 7, 6, 9, 5, 1, 8, 4, 2]","(0, 0.25)",CHN004B,CHN,B,Chinese,Thu Oct  4 18:04:23 2018,Mouse
2,1,2,0,94,4,9,0,-1261,411,850,138,0,500,200,8000,"[(512, 384), (512, 384), (512, 384), (512, 384), (512, 384), (512, 384), (512, 384), (512, 384), (512, 384), (512, 384), (512, 384), (512, 384), (512, 384), (512, 384), (512, 384), (512, 384), (512, 384), (512, 384), (512, 384), (512, 384), (512, 384), (512, 384), (512, 384), (512, 384), (512, 384), (512, 384), (512, 384), (512, 384), (512, 384), (512, 384), (512, 384), (512, 384), (512, 384), (512, 384), (512, 384), (512, 384), (512, 384), (512, 384), (512, 384), (512, 384), (512, 384), (512, 388), (504, 391), (501, 392), (494, 393), (486, 396), (480, 398), (480, 398), (478, 398), (478, 398), (478, 398), (478, 398), (478, 398), (478, 398), (478, 398), (478, 401), (480, 402), (486, 404), (503, 408), (513, 412), (523, 419), (527, 423), (542, 437), (551, 446), (558, 454), (564, 465), (570, 473), (578, 487), (580, 492), (583, 497), (584, 497), (584, 497), (584, 497), (584, 497), (584, 497), (584, 497), (584, 497), (584, 497), (584, 497), (584, 497), (584, 497), (584, 497), (574, 500), (565, 503), (558, 507), (549, 512), (540, 525), (538, 532), (536, 536), (535, 541), (535, 543), (535, 544), (535, 545), (535, 545), (535, 545), (535, 545), (535, 545), (535, 545), (535, 545), (535, 545), (535, 545), (535, 540), (535, 527), (535, 524), (533, 521), (531, 520), (528, 518), (528, 518), (525, 517), (523, 517), (513, 517), (507, 517), (498, 517), (486, 517), (476, 517), (452, 517), (442, 517), (434, 518), (425, 519), (423, 519), (423, 519), (420, 520), (416, 523), (406, 528), (389, 536), (357, 552), (237, 594)]",142.6333305872313,"[3, 7, 6, 9, 5, 1, 8, 4, 2]","(0, 0.25)",CHN004B,CHN,B,Chinese,Thu Oct  4 18:04:23 2018,Mouse
2,1,2,0,95,6,6,1,1083,713,370,139,0,500,200,8000,"[(512, 384), (512, 384), (512, 384), (512, 384), (512, 384), (512, 384), (512, 384), (512, 384), (512, 384), (512, 384), (512, 384), (512, 384), (512, 384), (512, 384), (512, 384), (512, 384), (512, 384), (512, 384), (512, 384), (512, 384), (512, 384), (512, 384), (512, 384), (512, 384), (512, 384), (512, 384), (512, 384), (512, 384), (512, 384), (512, 384), (512, 384), (512, 384), (512, 384), (512, 384), (512, 384), (512, 384), (512, 384), (512, 384), (512, 384), (512, 384), (512, 384), (512, 384), (512, 384), (512, 384), (512, 384), (512, 384), (512, 384), (512, 384), (512, 384), (512, 384), (512, 384), (512, 384), (512, 384), (512, 384), (512, 384), (512, 384), (512, 384), (512, 384), (512, 384), (512, 384), (512, 384), (512, 384), (512, 384), (512, 384), (512, 384), (512, 384), (512, 384), (512, 384), (512, 384), (512, 384), (512, 384), (508, 384), (498, 384), (495, 384), (493, 384), (492, 384), (491, 384), (491, 384), (491, 384), (491, 384), (491, 384), (491, 384), (491, 384), (491, 384), (491, 384), (491, 384), (491, 384), (491, 384), (491, 384), (491, 384), (491, 384), (491, 384), (491, 384), (491, 384), (491, 384), (491, 384), (491, 384), (491, 384), (491, 384), (491, 384), (490, 394), (490, 407), (490, 423), (490, 448), (487, 519), (481, 551), (473, 581), (461, 613), (444, 656)]",104.03624346792648,"[3, 7, 6, 9, 5, 1, 8, 4, 2]","(0, 0.25)",CHN004B,CHN,B,Chinese,Thu Oct  4 18:04:23 2018,Mouse
2,1,2,0,96,2,3,0,-402,322,80,139,0,500,200,8000,"[(512, 384), (512, 384), (512, 384), (512, 384), (512, 384), (512, 384), (512, 384), (512, 384), (512, 384), (512, 384), (512, 384), (512, 384), (512, 384), (512, 384), (512, 384), (512, 384), (512, 384), (512, 384), (512, 384), (512, 384), (512, 384), (512, 384), (512, 384), (512, 384), (512, 384), (512, 384), (512, 384), (512, 384), (512, 384), (512, 384), (512, 384), (512, 384), (533, 384), (552, 384), (571, 384), (603, 386), (676, 398), (706, 407), (729, 413), (754, 421), (784, 431)]",9.803567604345043,"[3, 7, 6, 9, 5, 1, 8, 4, 2]","(0, 0.25)",CHN004B,CHN,B,Chinese,Thu Oct  4 18:04:23 2018,Mouse
2,1,2,0,97,3,3,1,522,372,150,140,0,500,200,8000,"[(512, 384), (512, 384), (512, 384), (512, 384), (512, 384), (512, 384), (512, 384), (512, 384), (512, 384), (512, 384), (512, 384), (512, 384), (512, 384), (512, 384), (512, 384), (512, 384), (512, 384), (512, 384), (512, 384), (512, 384), (512, 384), (512, 384), (512, 384), (512, 384), (512, 384), (512, 384), (512, 384), (512, 384), (512, 384), (512, 384), (512, 384), (512, 384), (512, 384), (512, 384), (512, 384), (512, 384), (512, 384), (514, 383), (523, 382), (529, 379), (543, 379), (553, 380), (561, 381), (572, 382), (603, 384), (619, 384), (643, 387), (665, 392), (705, 400), (723, 407), (736, 410), (747, 413), (763, 420)]",8.162057609913001,"[3, 7, 6, 9, 5, 1, 8, 4, 2]","(0, 0.25)",CHN004B,CHN,B,Chinese,Thu Oct  4 18:04:23 2018,Mouse
2,1,2,0,98,8,8,1,1122,1072,50,140,0,500,200,8000,"[(512, 384), (512, 384), (512, 384), (512, 384), (512, 384), (512, 384), (512, 384), (512, 384), (512, 384), (512, 384), (512, 384), (512, 384), (512, 384), (512, 384), (512, 384), (512, 384), (512, 384), (512, 384), (512, 384), (512, 384), (512, 384), (512, 384), (512, 384), (512, 384), (512, 384), (512, 384), (512, 384), (512, 384), (512, 384), (512, 384), (512, 384), (512, 384), (512, 384), (512, 384), (512, 384), (512, 384), (512, 384), (512, 384), (512, 384), (512, 384), (512, 384), (512, 384), (512, 384), (512, 384), (512, 384), (512, 384), (512, 384), (512, 384), (512, 384), (512, 384), (512, 384), (512, 384), (512, 384), (512, 384), (512, 384), (512, 384), (512, 384), (512, 384), (512, 384), (512, 384), (512, 384), (512, 384), (512, 384), (512, 384), (512, 384), (512, 384), (512, 384), (512, 384), (512, 384), (512, 384), (512, 384), (512, 384), (512, 384), (512, 384), (512, 384), (512, 384), (512, 384), (512, 384), (512, 384), (512, 384), (512, 384), (512, 384), (512, 384), (512, 384), (512, 384), (512, 384), (512, 384), (512, 384), (512, 384), (512, 384), (512, 384), (512, 384), (512, 384), (512, 384), (512, 384), (512, 384), (512, 384), (512, 384), (512, 384), (512, 384), (512, 384), (512, 384), (512, 384), (512, 384), (512, 384), (512, 384), (512, 384), (508, 373), (493, 328), (485, 302), (474, 255), (464, 217), (450, 133)]",256.1250012644898,"[3, 7, 6, 9, 5, 1, 8, 4, 2]","(0, 0.25)",CHN004B,CHN,B,Chinese,Thu Oct  4 18:04:23 2018,Mouse
2,1,2,0,99,5,5,1,1175,705,470,139,0,500,200,8000,"[(512, 384), (512, 384), (512, 384), (512, 384), (512, 384), (512, 384), (512, 384), (512, 384), (512, 384), (512, 384), (512, 384), (512, 384), (512, 384), (512, 384), (512, 384), (512, 384), (512, 384), (512, 384), (512, 384), (512, 384), (512, 384), (512, 384), (512, 384), (512, 384), (512, 384), (512, 384), (512, 384), (512, 384), (512, 384), (512, 384), (512, 384), (512, 384), (512, 384), (512, 384), (512, 384), (512, 384), (512, 384), (512, 384), (512, 384), (512, 384), (512, 384), (512, 384), (512, 384), (512, 384), (512, 384), (512, 384), (512, 384), (512, 384), (512, 384), (512, 384), (512, 384), (512, 384), (512, 384), (512, 384), (512, 384), (512, 384), (512, 384), (512, 384), (512, 384), (512, 384), (512, 384), (512, 384), (512, 384), (512, 384), (512, 384), (512, 384), (512, 384), (512, 384), (512, 384), (512, 384), (511, 386), (509, 387), (507, 387), (507, 388), (505, 389), (504, 389), (502, 389), (502, 390), (501, 390), (501, 390), (501, 390), (501, 391), (501, 391), (501, 391), (501, 391), (501, 391), (501, 391), (500, 392), (500, 392), (500, 392), (500, 392), (500, 392), (500, 392), (500, 392), (500, 392), (500, 392), (500, 392), (500, 392), (499, 392), (496, 392), (494, 392), (486, 392), (474, 390), (444, 382), (428, 378), (407, 377), (392, 377), (356, 377), (343, 377), (328, 377), (313, 377), (290, 377), (290, 377), (283, 377), (274, 377), (266, 379), (263, 379), (261, 379)]",181.1411992555871,"[3, 7, 6, 9, 5, 1, 8, 4, 2]","(0, 0.25)",CHN004B,CHN,B,Chinese,Thu Oct  4 18:04:23 2018,Mouse
2,1,2,0,100,2,2,1,933,483,450,138,0,500,200,8000,"[(512, 384), (512, 384), (512, 384), (512, 384), (512, 384), (512, 384), (512, 384), (512, 384), (512, 384), (512, 384), (512, 384), (512, 384), (512, 384), (512, 384), (512, 384), (512, 384), (512, 384), (512, 384), (512, 384), (512, 384), (512, 384), (512, 384), (512, 384), (512, 384), (512, 384), (512, 384), (512, 384), (512, 384), (512, 384), (512, 384), (512, 384), (512, 384), (512, 384), (512, 384), (512, 384), (512, 384), (512, 384), (512, 384), (512, 384), (512, 384), (512, 384), (512, 384), (512, 384), (512, 384), (512, 384), (512, 384), (512, 384), (512, 384), (510, 383), (496, 372), (482, 357), (476, 349), (474, 345), (470, 337), (467, 328), (467, 324), (467, 323), (467, 320), (469, 316), (476, 313), (485, 310), (496, 309), (522, 309), (535, 312), (549, 313), (562, 318), (579, 322), (583, 324), (585, 324), (585, 324), (587, 326), (587, 326), (587, 326), (586, 327), (580, 329), (578, 330), (574, 330), (571, 331), (566, 333), (566, 333), (566, 333), (566, 333), (566, 333), (566, 333), (566, 333), (566, 333), (570, 333), (579, 332), (591, 331), (605, 329), (661, 319), (695, 317), (729, 317), (768, 317)]",345.3335808862134,"[3, 7, 6, 9, 5, 1, 8, 4, 2]","(0, 0.25)",CHN004B,CHN,B,Chinese,Thu Oct  4 18:04:23 2018,Mouse
2,1,2,0,101,7,9,0,-892,292,600,137,0,500,200,8000,"[(512, 384), (512, 384), (512, 384), (512, 384), (512, 384), (512, 384), (512, 384), (512, 384), (512, 384), (512, 384), (512, 384), (512, 384), (512, 384), (512, 384), (512, 384), (512, 384), (512, 384), (512, 384), (512, 384), (512, 384), (512, 384), (512, 384), (512, 384), (512, 384), (512, 384), (512, 384), (512, 384), (512, 384), (512, 384), (511, 384), (511, 384), (511, 384), (511, 384), (511, 384), (511, 384), (511, 384), (511, 384), (511, 384), (511, 384), (511, 384), (511, 384), (511, 384), (511, 384), (511, 384), (511, 384), (511, 384), (511, 384), (511, 384), (511, 384), (511, 384), (511, 384), (511, 384), (509, 384), (509, 384), (509, 384), (509, 384), (509, 385), (502, 409), (493, 430), (486, 453), (477, 471), (468, 492), (466, 502), (464, 509), (463, 512), (463, 517), (463, 517), (463, 517), (463, 517), (463, 517), (463, 517), (463, 517), (463, 517), (463, 517), (463, 517), (460, 517), (455, 517), (444, 515), (441, 514), (437, 512), (433, 511), (430, 511), (428, 510), (428, 510), (427, 510), (427, 510), (424, 510), (412, 510), (385, 520), (286, 546)]",144.3665099570121,"[3, 7, 6, 9, 5, 1, 8, 4, 2]","(0, 0.25)",CHN004B,CHN,B,Chinese,Thu Oct  4 18:04:23 2018,Mouse
