NativeLangNumber,LanuageNumber,SessionNumber,Block,TrialNum,ConditionNumber,Response,Accuracy,RT,MovementOnsetTime,TimeInMotion,SignalContrast,SignalContrastNumber,StimDisplayTime,MaskTime,MaxResponseTime,MousePositionXY,MouseAngle,WheelOrder,NoiseMuSigma,ParticipantID,LanuageTested,SessionTested,NativeLanuage,Date,ResponseDevice
1,1,1,0,1,8,8,1,672,512,160,153,0,500,200,8000,"[(960, 540), (960, 540), (960, 540), (960, 540), (960, 540), (960, 540), (960, 540), (960, 540), (960, 540), (960, 540), (960, 540), (960, 540), (960, 540), (960, 540), (960, 540), (960, 540), (960, 540), (960, 540), (960, 540), (960, 540), (960, 540), (960, 540), (960, 540), (960, 540), (960, 540), (960, 540), (960, 540), (960, 540), (960, 540), (960, 540), (960, 540), (960, 540), (960, 540), (960, 540), (960, 540), (960, 540), (960, 540), (960, 540), (960, 540), (960, 540), (960, 540), (960, 540), (960, 540), (960, 540), (960, 540), (960, 540), (960, 540), (960, 540), (960, 540), (960, 540), (960, 540), (968, 540), (977, 539), (988, 535), (1001, 531), (1036, 522), (1050, 517), (1068, 510), (1083, 502), (1105, 492), (1115, 487), (1126, 481), (1145, 471), (1204, 453), (1240, 442), (1276, 433), (1318, 422), (1391, 398)]",341.76468723160235,"[6, 7, 3, 5, 1, 9, 4, 2, 8]","(0, 0.25)",CHN003A,CHN,A,English,Mon Aug 06 16:10:12 2018,Mouse
1,1,1,0,2,8,8,1,299,199,100,153,0,500,200,8000,"[(960, 540), (960, 540), (960, 540), (960, 540), (960, 540), (960, 540), (960, 540), (960, 540), (960, 540), (960, 540), (960, 540), (960, 540), (960, 540), (960, 540), (960, 540), (960, 540), (960, 540), (960, 540), (960, 540), (962, 540), (967, 540), (975, 537), (997, 525), (1021, 516), (1052, 505), (1095, 496), (1189, 470), (1247, 456), (1313, 443), (1362, 435)]",345.3617214616263,"[6, 7, 3, 5, 1, 9, 4, 2, 8]","(0, 0.25)",CHN003A,CHN,A,English,Mon Aug 06 16:10:12 2018,Mouse
1,1,1,0,3,5,5,1,359,199,160,152,0,500,200,8000,"[(960, 540), (960, 540), (960, 540), (960, 540), (960, 540), (960, 540), (960, 540), (960, 540), (960, 540), (960, 540), (960, 540), (960, 540), (960, 540), (960, 540), (960, 540), (960, 540), (960, 540), (960, 540), (960, 540), (960, 541), (960, 541), (957, 545), (951, 551), (935, 561), (928, 568), (918, 575), (909, 582), (874, 610), (859, 624), (835, 644), (817, 661), (774, 706), (750, 726), (724, 753), (697, 775), (639, 826)]",138.30005646733994,"[6, 7, 3, 5, 1, 9, 4, 2, 8]","(0, 0.25)",CHN003A,CHN,A,English,Mon Aug 06 16:10:12 2018,Mouse
1,1,1,0,4,7,7,1,1350,1240,110,151,0,500,200,8000,"[(960, 540), (960, 540), (960, 540), (960, 540), (960, 540), (960, 540), (960, 540), (960, 540), (960, 540), (960, 540), (960, 540), (960, 540), (960, 540), (960, 540), (960, 540), (960, 540), (960, 540), (960, 540), (960, 540), (960, 540), (960, 540), (960, 540), (960, 540), (960, 540), (960, 540), (960, 540), (960, 540), (960, 540), (960, 540), (960, 540), (960, 540), (960, 540), (960, 540), (960, 540), (960, 540), (960, 540), (960, 540), (960, 540), (960, 540), (960, 540), (960, 540), (960, 540), (960, 540), (960, 540), (960, 540), (960, 540), (960, 540), (960, 540), (960, 540), (960, 540), (960, 540), (960, 540), (960, 540), (960, 540), (960, 540), (960, 540), (960, 540), (960, 540), (960, 540), (960, 540), (960, 540), (960, 540), (960, 540), (960, 540), (960, 540), (960, 540), (960, 540), (960, 540), (960, 540), (960, 540), (960, 540), (960, 540), (960, 540), (960, 540), (960, 540), (960, 540), (960, 540), (960, 540), (960, 540), (960, 540), (960, 540), (960, 540), (960, 540), (960, 540), (960, 540), (960, 540), (960, 540), (960, 540), (960, 540), (960, 540), (960, 540), (960, 540), (960, 540), (960, 540), (960, 540), (960, 540), (960, 540), (960, 540), (960, 540), (960, 540), (960, 540), (960, 540), (960, 540), (960, 540), (960, 540), (960, 540), (960, 540), (960, 540), (960, 540), (960, 540), (960, 540), (960, 540), (960, 540), (960, 540), (960, 540), (960, 540), (960, 540), (960, 540), (960, 540), (960, 540), (960, 540), (960, 540), (960, 540), (962, 540), (967, 540), (977, 551), (991, 585), (1000, 605), (1011, 627), (1022, 653), (1049, 719), (1067, 764), (1086, 804), (1103, 844), (1135, 926)]",65.61198718531904,"[6, 7, 3, 5, 1, 9, 4, 2, 8]","(0, 0.25)",CHN003A,CHN,A,English,Mon Aug 06 16:10:12 2018,Mouse
1,1,1,0,5,3,3,1,1070,960,110,150,0,500,200,8000,"[(960, 540), (960, 540), (960, 540), (960, 540), (960, 540), (960, 540), (960, 540), (960, 540), (960, 540), (960, 540), (960, 540), (960, 540), (960, 540), (960, 540), (960, 540), (960, 540), (960, 540), (960, 540), (960, 540), (960, 540), (960, 540), (960, 540), (960, 540), (960, 540), (960, 540), (960, 540), (960, 540), (960, 540), (960, 540), (960, 540), (960, 540), (960, 540), (960, 540), (960, 540), (960, 540), (960, 540), (960, 540), (960, 540), (960, 540), (960, 540), (960, 540), (960, 540), (960, 540), (960, 540), (960, 540), (960, 540), (960, 540), (960, 540), (960, 540), (960, 540), (960, 540), (960, 540), (960, 540), (960, 540), (960, 540), (960, 540), (960, 540), (960, 540), (960, 540), (960, 540), (960, 540), (960, 540), (960, 540), (960, 540), (960, 540), (960, 540), (960, 540), (960, 540), (960, 540), (960, 540), (960, 540), (960, 540), (960, 540), (960, 540), (960, 540), (960, 540), (960, 540), (960, 540), (960, 540), (960, 540), (960, 540), (960, 540), (960, 540), (960, 540), (960, 540), (960, 540), (960, 540), (960, 540), (960, 540), (960, 540), (960, 540), (960, 540), (960, 540), (960, 540), (960, 540), (960, 551), (960, 568), (956, 589), (948, 625), (943, 643), (935, 669), (933, 697), (933, 778), (933, 830), (926, 874), (918, 917), (906, 987)]",96.88825827699469,"[6, 7, 3, 5, 1, 9, 4, 2, 8]","(0, 0.25)",CHN003A,CHN,A,English,Mon Aug 06 16:10:12 2018,Mouse
1,1,1,0,6,1,1,1,779,709,70,149,0,500,200,8000,"[(960, 540), (960, 540), (960, 540), (960, 540), (960, 540), (960, 540), (960, 540), (960, 540), (960, 540), (960, 540), (960, 540), (960, 540), (960, 540), (960, 540), (960, 540), (960, 540), (960, 540), (960, 540), (960, 540), (960, 540), (960, 540), (960, 540), (960, 540), (960, 540), (960, 540), (960, 540), (960, 540), (960, 540), (960, 540), (960, 540), (960, 540), (960, 540), (960, 540), (960, 540), (960, 540), (960, 540), (960, 540), (960, 540), (960, 540), (960, 540), (960, 540), (960, 540), (960, 540), (960, 540), (960, 540), (960, 540), (960, 540), (960, 540), (960, 540), (960, 540), (960, 540), (960, 540), (960, 540), (960, 540), (960, 540), (960, 540), (960, 540), (960, 540), (960, 540), (960, 540), (960, 540), (960, 540), (960, 540), (960, 540), (960, 540), (960, 540), (960, 540), (960, 540), (960, 540), (960, 540), (954, 540), (941, 541), (924, 543), (889, 549), (764, 553), (675, 553), (576, 553), (457, 553)]",178.5195241396702,"[6, 7, 3, 5, 1, 9, 4, 2, 8]","(0, 0.25)",CHN003A,CHN,A,English,Mon Aug 06 16:10:12 2018,Mouse
1,1,1,0,7,9,9,1,1010,360,650,148,0,500,200,8000,"[(960, 540), (960, 540), (960, 540), (960, 540), (960, 540), (960, 540), (960, 540), (960, 540), (960, 540), (960, 540), (960, 540), (960, 540), (960, 540), (960, 540), (960, 540), (960, 540), (960, 540), (960, 540), (960, 540), (960, 540), (960, 540), (960, 540), (960, 540), (960, 540), (960, 540), (960, 540), (960, 540), (960, 540), (960, 540), (960, 540), (960, 540), (960, 540), (960, 540), (960, 540), (960, 540), (959, 540), (953, 547), (948, 558), (941, 571), (925, 590), (917, 598), (912, 603), (907, 608), (902, 616), (900, 619), (899, 620), (897, 621), (897, 622), (897, 622), (897, 622), (897, 622), (897, 622), (897, 622), (897, 622), (897, 622), (897, 622), (897, 622), (897, 622), (897, 622), (897, 622), (897, 622), (897, 622), (897, 622), (897, 622), (897, 622), (897, 622), (897, 622), (897, 622), (897, 622), (897, 622), (897, 622), (897, 622), (897, 622), (897, 622), (897, 622), (897, 622), (897, 622), (897, 622), (897, 622), (897, 622), (897, 622), (897, 622), (897, 622), (897, 622), (897, 622), (897, 622), (897, 622), (897, 622), (897, 622), (897, 622), (897, 622), (897, 622), (896, 622), (893, 615), (888, 604), (871, 562), (850, 524), (811, 463), (773, 410), (694, 297), (663, 252)]",224.11859600341785,"[6, 7, 3, 5, 1, 9, 4, 2, 8]","(0, 0.25)",CHN003A,CHN,A,English,Mon Aug 06 16:10:12 2018,Mouse
1,1,1,0,8,6,6,1,700,500,200,147,0,500,200,8000,"[(960, 540), (960, 540), (960, 540), (960, 540), (960, 540), (960, 540), (960, 540), (960, 540), (960, 540), (960, 540), (960, 540), (960, 540), (960, 540), (960, 540), (960, 540), (960, 540), (960, 540), (960, 540), (960, 540), (960, 540), (960, 540), (960, 540), (960, 540), (960, 540), (960, 540), (960, 540), (960, 540), (960, 540), (960, 540), (960, 540), (960, 540), (960, 540), (960, 540), (960, 540), (960, 540), (960, 540), (960, 540), (960, 540), (960, 540), (960, 540), (960, 540), (960, 540), (960, 540), (960, 540), (960, 540), (960, 540), (960, 540), (960, 540), (960, 540), (960, 541), (960, 541), (960, 541), (960, 541), (960, 541), (960, 541), (960, 543), (960, 543), (962, 545), (965, 547), (968, 548), (974, 551), (990, 555), (1001, 557), (1019, 562), (1043, 565), (1127, 578), (1178, 584), (1226, 592), (1283, 600), (1399, 614)]",9.568111931813949,"[6, 7, 3, 5, 1, 9, 4, 2, 8]","(0, 0.25)",CHN003A,CHN,A,English,Mon Aug 06 16:10:12 2018,Mouse
1,1,1,0,9,2,2,1,1510,1460,50,146,0,500,200,8000,"[(960, 540), (960, 540), (960, 540), (960, 540), (960, 540), (960, 540), (960, 540), (960, 540), (960, 540), (960, 540), (960, 540), (960, 540), (960, 540), (960, 540), (960, 540), (960, 540), (960, 540), (960, 540), (960, 540), (960, 540), (960, 540), (960, 540), (960, 540), (960, 540), (960, 540), (960, 540), (960, 540), (960, 540), (960, 540), (960, 540), (960, 540), (960, 540), (960, 540), (960, 540), (960, 540), (960, 540), (960, 540), (960, 540), (960, 540), (960, 540), (960, 540), (960, 540), (960, 540), (960, 540), (960, 540), (960, 540), (960, 540), (960, 540), (960, 540), (960, 540), (960, 540), (960, 540), (960, 540), (960, 540), (960, 540), (960, 540), (960, 540), (960, 540), (960, 540), (960, 540), (960, 540), (960, 540), (960, 540), (960, 540), (960, 540), (960, 540), (960, 540), (960, 540), (960, 540), (960, 540), (960, 540), (960, 540), (960, 540), (960, 540), (960, 540), (960, 540), (960, 540), (960, 540), (960, 540), (960, 540), (960, 540), (960, 540), (960, 540), (960, 540), (960, 540), (960, 540), (960, 540), (960, 540), (960, 540), (960, 540), (960, 540), (960, 540), (960, 540), (960, 540), (960, 540), (960, 540), (960, 540), (960, 540), (960, 540), (960, 540), (960, 540), (960, 540), (960, 540), (960, 540), (960, 540), (960, 540), (960, 540), (960, 540), (960, 540), (960, 540), (960, 540), (960, 540), (960, 540), (960, 540), (960, 540), (960, 540), (960, 540), (960, 540), (960, 540), (960, 540), (960, 540), (960, 540), (960, 540), (960, 540), (960, 540), (960, 540), (960, 540), (960, 540), (960, 540), (960, 540), (960, 540), (960, 540), (960, 540), (960, 540), (960, 540), (960, 540), (960, 540), (960, 540), (960, 540), (960, 540), (960, 540), (960, 540), (960, 540), (960, 540), (960, 540), (961, 528), (986, 454), (1009, 400), (1036, 338), (1062, 279), (1142, 162)]",295.70995378081125,"[6, 7, 3, 5, 1, 9, 4, 2, 8]","(0, 0.25)",CHN003A,CHN,A,English,Mon Aug 06 16:10:12 2018,Mouse
1,1,1,0,10,7,7,1,1170,1040,130,145,0,500,200,8000,"[(960, 540), (960, 540), (960, 540), (960, 540), (960, 540), (960, 540), (960, 540), (960, 540), (960, 540), (960, 540), (960, 540), (960, 540), (960, 540), (960, 540), (960, 540), (960, 540), (960, 540), (960, 540), (960, 540), (960, 540), (960, 540), (960, 540), (960, 540), (960, 540), (960, 540), (960, 540), (960, 540), (960, 540), (960, 540), (960, 540), (960, 540), (960, 540), (960, 540), (960, 540), (960, 540), (960, 540), (960, 540), (960, 540), (960, 540), (960, 540), (960, 540), (960, 540), (960, 540), (960, 540), (960, 540), (960, 540), (960, 540), (960, 540), (960, 540), (960, 540), (960, 540), (960, 540), (960, 540), (960, 540), (960, 540), (960, 540), (960, 540), (960, 540), (960, 540), (960, 540), (960, 540), (960, 540), (960, 540), (960, 540), (960, 540), (960, 540), (960, 540), (960, 540), (960, 540), (960, 540), (960, 540), (960, 540), (960, 540), (960, 540), (960, 540), (960, 540), (960, 540), (960, 540), (960, 540), (960, 540), (960, 540), (960, 540), (960, 540), (960, 540), (960, 540), (960, 540), (960, 540), (960, 540), (960, 540), (960, 540), (960, 540), (960, 540), (960, 540), (960, 540), (960, 540), (960, 540), (960, 540), (960, 540), (960, 540), (960, 540), (960, 540), (960, 540), (960, 540), (961, 540), (963, 540), (964, 541), (969, 548), (971, 550), (980, 559), (992, 572), (1017, 608), (1040, 647), (1071, 699), (1098, 745), (1154, 836), (1175, 874), (1199, 908)]",56.998028222066694,"[6, 7, 3, 5, 1, 9, 4, 2, 8]","(0, 0.25)",CHN003A,CHN,A,English,Mon Aug 06 16:10:12 2018,Mouse
1,1,1,0,11,5,5,1,741,611,130,144,0,500,200,8000,"[(960, 540), (960, 540), (960, 540), (960, 540), (960, 540), (960, 540), (960, 540), (960, 540), (960, 540), (960, 540), (960, 540), (960, 540), (960, 540), (960, 540), (960, 540), (960, 540), (960, 540), (960, 540), (960, 540), (960, 540), (960, 540), (960, 540), (960, 540), (960, 540), (960, 540), (960, 540), (960, 540), (960, 540), (960, 540), (960, 540), (960, 540), (960, 540), (960, 540), (960, 540), (960, 540), (960, 540), (960, 540), (960, 540), (960, 540), (960, 540), (960, 540), (960, 540), (960, 540), (960, 540), (960, 540), (960, 540), (960, 540), (960, 540), (960, 540), (960, 540), (960, 540), (960, 540), (960, 540), (960, 540), (960, 540), (960, 540), (960, 540), (960, 540), (960, 540), (960, 540), (960, 540), (958, 540), (954, 542), (949, 548), (944, 553), (924, 568), (908, 580), (885, 596), (860, 613), (810, 648), (779, 670), (748, 694), (717, 715), (664, 753), (632, 777)]",144.14959339439912,"[6, 7, 3, 5, 1, 9, 4, 2, 8]","(0, 0.25)",CHN003A,CHN,A,English,Mon Aug 06 16:10:12 2018,Mouse
1,1,1,0,12,7,7,1,1980,1910,70,143,0,500,200,8000,"[(960, 540), (960, 540), (960, 540), (960, 540), (960, 540), (960, 540), (960, 540), (960, 540), (960, 540), (960, 540), (960, 540), (960, 540), (960, 540), (960, 540), (960, 540), (960, 540), (960, 540), (960, 540), (960, 540), (960, 540), (960, 540), (960, 540), (960, 540), (960, 540), (960, 540), (960, 540), (960, 540), (960, 540), (960, 540), (960, 540), (960, 540), (960, 540), (960, 540), (960, 540), (960, 540), (960, 540), (960, 540), (960, 540), (960, 540), (960, 540), (960, 540), (960, 540), (960, 540), (960, 540), (960, 540), (960, 540), (960, 540), (960, 540), (960, 540), (960, 540), (960, 540), (960, 540), (960, 540), (960, 540), (960, 540), (960, 540), (960, 540), (960, 540), (960, 540), (960, 540), (960, 540), (960, 540), (960, 540), (960, 540), (960, 540), (960, 540), (960, 540), (960, 540), (960, 540), (960, 540), (960, 540), (960, 540), (960, 540), (960, 540), (960, 540), (960, 540), (960, 540), (960, 540), (960, 540), (960, 540), (960, 540), (960, 540), (960, 540), (960, 540), (960, 540), (960, 540), (960, 540), (960, 540), (960, 540), (960, 540), (960, 540), (960, 540), (960, 540), (960, 540), (960, 540), (960, 540), (960, 540), (960, 540), (960, 540), (960, 540), (960, 540), (960, 540), (960, 540), (960, 540), (960, 540), (960, 540), (960, 540), (960, 540), (960, 540), (960, 540), (960, 540), (960, 540), (960, 540), (960, 540), (960, 540), (960, 540), (960, 540), (960, 540), (960, 540), (960, 540), (960, 540), (960, 540), (960, 540), (960, 540), (960, 540), (960, 540), (960, 540), (960, 540), (960, 540), (960, 540), (960, 540), (960, 540), (960, 540), (960, 540), (960, 540), (960, 540), (960, 540), (960, 540), (960, 540), (960, 540), (960, 540), (960, 540), (960, 540), (960, 540), (960, 540), (960, 540), (960, 540), (960, 540), (960, 540), (960, 540), (960, 540), (960, 540), (960, 540), (960, 540), (960, 540), (960, 540), (960, 540), (960, 540), (960, 540), (960, 540), (960, 540), (960, 540), (960, 540), (960, 540), (960, 540), (960, 540), (960, 540), (960, 540), (960, 540), (960, 540), (960, 540), (960, 540), (960, 540), (960, 540), (960, 540), (960, 540), (960, 540), (960, 540), (960, 540), (960, 540), (960, 540), (960, 540), (960, 540), (960, 540), (960, 540), (960, 540), (960, 540), (960, 540), (960, 540), (960, 540), (964, 542), (973, 556), (992, 581), (1034, 660), (1063, 714), (1094, 766), (1126, 821), (1185, 933)]",60.208039190635326,"[6, 7, 3, 5, 1, 9, 4, 2, 8]","(0, 0.25)",CHN003A,CHN,A,English,Mon Aug 06 16:10:12 2018,Mouse
1,1,1,0,13,2,3,0,-829,709,120,142,0,500,200,8000,"[(960, 540), (960, 540), (960, 540), (960, 540), (960, 540), (960, 540), (960, 540), (960, 540), (960, 540), (960, 540), (960, 540), (960, 540), (960, 540), (960, 540), (960, 540), (960, 540), (960, 540), (960, 540), (960, 540), (960, 540), (960, 540), (960, 540), (960, 540), (960, 540), (960, 540), (960, 540), (960, 540), (960, 540), (960, 540), (960, 540), (960, 540), (960, 540), (960, 540), (960, 540), (960, 540), (960, 540), (960, 540), (960, 540), (960, 540), (960, 540), (960, 540), (960, 540), (960, 540), (960, 540), (960, 540), (960, 540), (960, 540), (960, 540), (960, 540), (960, 540), (960, 540), (960, 540), (960, 540), (960, 540), (960, 540), (960, 540), (960, 540), (960, 540), (960, 540), (960, 540), (960, 540), (960, 540), (960, 540), (960, 540), (960, 540), (960, 540), (960, 540), (960, 540), (960, 540), (960, 540), (954, 549), (952, 554), (949, 561), (947, 570), (943, 590), (938, 602), (933, 618), (930, 642), (925, 724), (925, 771), (925, 829), (925, 898), (930, 1024)]",93.54685365749965,"[6, 7, 3, 5, 1, 9, 4, 2, 8]","(0, 0.25)",CHN003A,CHN,A,English,Mon Aug 06 16:10:12 2018,Mouse
1,1,1,0,14,7,7,1,830,750,80,143,0,500,200,8000,"[(960, 540), (960, 540), (960, 540), (960, 540), (960, 540), (960, 540), (960, 540), (960, 540), (960, 540), (960, 540), (960, 540), (960, 540), (960, 540), (960, 540), (960, 540), (960, 540), (960, 540), (960, 540), (960, 540), (960, 540), (960, 540), (960, 540), (960, 540), (960, 540), (960, 540), (960, 540), (960, 540), (960, 540), (960, 540), (960, 540), (960, 540), (960, 540), (960, 540), (960, 540), (960, 540), (960, 540), (960, 540), (960, 540), (960, 540), (960, 540), (960, 540), (960, 540), (960, 540), (960, 540), (960, 540), (960, 540), (960, 540), (960, 540), (960, 540), (960, 540), (960, 540), (960, 540), (960, 540), (960, 540), (960, 540), (960, 540), (960, 540), (960, 540), (960, 540), (960, 540), (960, 540), (960, 540), (960, 540), (960, 540), (960, 540), (960, 540), (960, 540), (960, 540), (960, 540), (960, 540), (960, 540), (960, 540), (960, 540), (960, 540), (960, 545), (964, 553), (967, 567), (975, 586), (1016, 669), (1041, 721), (1063, 775), (1084, 825), (1124, 924)]",66.8734796112512,"[6, 7, 3, 5, 1, 9, 4, 2, 8]","(0, 0.25)",CHN003A,CHN,A,English,Mon Aug 06 16:10:12 2018,Mouse
1,1,1,0,15,1,1,1,509,439,70,143,0,500,200,8000,"[(960, 540), (960, 540), (960, 540), (960, 540), (960, 540), (960, 540), (960, 540), (960, 540), (960, 540), (960, 540), (960, 540), (960, 540), (960, 540), (960, 540), (960, 540), (960, 540), (960, 540), (960, 540), (960, 540), (960, 540), (960, 540), (960, 540), (960, 540), (960, 540), (960, 540), (960, 540), (960, 540), (960, 540), (960, 540), (960, 540), (960, 540), (960, 540), (960, 540), (960, 540), (960, 540), (960, 540), (960, 540), (960, 540), (960, 540), (960, 540), (960, 540), (960, 540), (960, 540), (956, 541), (938, 541), (902, 541), (794, 541), (727, 541), (644, 541), (564, 541), (404, 541)]",179.89695014796288,"[6, 7, 3, 5, 1, 9, 4, 2, 8]","(0, 0.25)",CHN003A,CHN,A,English,Mon Aug 06 16:10:12 2018,Mouse
1,1,1,0,16,3,3,1,1230,1110,120,142,0,500,200,8000,"[(960, 540), (960, 540), (960, 540), (960, 540), (960, 540), (960, 540), (960, 540), (960, 540), (960, 540), (960, 540), (960, 540), (960, 540), (960, 540), (960, 540), (960, 540), (960, 540), (960, 540), (960, 540), (960, 540), (960, 540), (960, 540), (960, 540), (960, 540), (960, 540), (960, 540), (960, 540), (960, 540), (960, 540), (960, 540), (960, 540), (960, 540), (960, 540), (960, 540), (960, 540), (960, 540), (960, 540), (960, 540), (960, 540), (960, 540), (960, 540), (960, 540), (960, 540), (960, 540), (960, 540), (960, 540), (960, 540), (960, 540), (960, 540), (960, 540), (960, 540), (960, 540), (960, 540), (960, 540), (960, 540), (960, 540), (960, 540), (960, 540), (960, 540), (960, 540), (960, 540), (960, 540), (960, 540), (960, 540), (960, 540), (960, 540), (960, 540), (960, 540), (960, 540), (960, 540), (960, 540), (960, 540), (960, 540), (960, 540), (960, 540), (960, 540), (960, 540), (960, 540), (960, 540), (960, 540), (960, 540), (960, 540), (960, 540), (960, 540), (960, 540), (960, 540), (960, 540), (960, 540), (960, 540), (960, 540), (960, 540), (960, 540), (960, 540), (960, 540), (960, 540), (960, 540), (960, 540), (960, 540), (960, 540), (960, 540), (960, 540), (960, 540), (960, 540), (960, 540), (960, 540), (960, 540), (960, 540), (960, 540), (960, 540), (960, 540), (960, 540), (963, 549), (963, 561), (963, 580), (963, 602), (963, 634), (963, 651), (962, 677), (962, 713), (962, 799), (962, 841), (960, 878), (955, 912), (946, 968)]",91.87349301359993,"[6, 7, 3, 5, 1, 9, 4, 2, 8]","(0, 0.25)",CHN003A,CHN,A,English,Mon Aug 06 16:10:12 2018,Mouse
1,1,1,0,17,6,6,1,950,830,120,141,0,500,200,8000,"[(960, 540), (960, 540), (960, 540), (960, 540), (960, 540), (960, 540), (960, 540), (960, 540), (960, 540), (960, 540), (960, 540), (960, 540), (960, 540), (960, 540), (960, 540), (960, 540), (960, 540), (960, 540), (960, 540), (960, 540), (960, 540), (960, 540), (960, 540), (960, 540), (960, 540), (960, 540), (960, 540), (960, 540), (960, 540), (960, 540), (960, 540), (960, 540), (960, 540), (960, 540), (960, 540), (960, 540), (960, 540), (960, 540), (960, 540), (960, 540), (960, 540), (960, 540), (960, 540), (960, 540), (960, 540), (960, 540), (960, 540), (960, 540), (960, 540), (960, 540), (960, 540), (960, 540), (960, 540), (960, 540), (960, 540), (960, 540), (960, 540), (960, 540), (960, 540), (960, 540), (960, 540), (960, 540), (960, 540), (960, 540), (960, 540), (960, 540), (960, 540), (960, 540), (960, 540), (960, 540), (960, 540), (960, 540), (960, 540), (960, 540), (960, 540), (960, 540), (960, 540), (960, 540), (960, 540), (960, 540), (960, 540), (960, 540), (961, 541), (965, 542), (970, 544), (975, 544), (991, 546), (1001, 547), (1016, 551), (1032, 553), (1084, 565), (1129, 579), (1184, 595), (1247, 610), (1377, 646)]",14.262324851835283,"[6, 7, 3, 5, 1, 9, 4, 2, 8]","(0, 0.25)",CHN003A,CHN,A,English,Mon Aug 06 16:10:12 2018,Mouse
1,1,1,0,18,5,5,1,430,260,170,140,0,500,200,8000,"[(960, 540), (960, 540), (960, 540), (960, 540), (960, 540), (960, 540), (960, 540), (960, 540), (960, 540), (960, 540), (960, 540), (960, 540), (960, 540), (960, 540), (960, 540), (960, 540), (960, 540), (960, 540), (960, 540), (960, 540), (960, 540), (960, 540), (960, 540), (960, 540), (960, 540), (959, 540), (955, 541), (954, 544), (951, 548), (947, 554), (936, 568), (928, 578), (921, 590), (910, 605), (879, 646), (860, 663), (837, 683), (811, 705), (755, 755), (730, 776), (701, 797), (674, 814), (636, 845)]",136.7301890152534,"[6, 7, 3, 5, 1, 9, 4, 2, 8]","(0, 0.25)",CHN003A,CHN,A,English,Mon Aug 06 16:10:12 2018,Mouse
1,1,1,0,19,1,1,1,430,350,80,139,0,500,200,8000,"[(960, 540), (960, 540), (960, 540), (960, 540), (960, 540), (960, 540), (960, 540), (960, 540), (960, 540), (960, 540), (960, 540), (960, 540), (960, 540), (960, 540), (960, 540), (960, 540), (960, 540), (960, 540), (960, 540), (960, 540), (960, 540), (960, 540), (960, 540), (960, 540), (960, 540), (960, 540), (960, 540), (960, 540), (960, 540), (960, 540), (960, 540), (960, 540), (960, 540), (960, 540), (946, 540), (933, 540), (913, 543), (872, 543), (774, 543), (725, 543), (666, 543), (605, 543), (492, 543)]",179.6327243926619,"[6, 7, 3, 5, 1, 9, 4, 2, 8]","(0, 0.25)",CHN003A,CHN,A,English,Mon Aug 06 16:10:12 2018,Mouse
1,1,1,0,20,6,6,1,1110,1050,60,138,0,500,200,8000,"[(960, 540), (960, 540), (960, 540), (960, 540), (960, 540), (960, 540), (960, 540), (960, 540), (960, 540), (960, 540), (960, 540), (960, 540), (960, 540), (960, 540), (960, 540), (960, 540), (960, 540), (960, 540), (960, 540), (960, 540), (960, 540), (960, 540), (960, 540), (960, 540), (960, 540), (960, 540), (960, 540), (960, 540), (960, 540), (960, 540), (960, 540), (960, 540), (960, 540), (960, 540), (960, 540), (960, 540), (960, 540), (960, 540), (960, 540), (960, 540), (960, 540), (960, 540), (960, 540), (960, 540), (960, 540), (960, 540), (960, 540), (960, 540), (960, 540), (960, 540), (960, 540), (960, 540), (960, 540), (960, 540), (960, 540), (960, 540), (960, 540), (960, 540), (960, 540), (960, 540), (960, 540), (960, 540), (960, 540), (960, 540), (960, 540), (960, 540), (960, 540), (960, 540), (960, 540), (960, 540), (960, 540), (960, 540), (960, 540), (960, 540), (960, 540), (960, 540), (960, 540), (960, 540), (960, 540), (960, 540), (960, 540), (960, 540), (960, 540), (960, 540), (960, 540), (960, 540), (960, 540), (960, 540), (960, 540), (960, 540), (960, 540), (960, 540), (960, 540), (960, 540), (960, 540), (960, 540), (960, 540), (960, 540), (960, 540), (960, 540), (960, 540), (960, 540), (960, 540), (960, 540), (963, 540), (975, 540), (1066, 564), (1143, 587), (1234, 609), (1325, 634), (1515, 680)]",14.157632649677245,"[6, 7, 3, 5, 1, 9, 4, 2, 8]","(0, 0.25)",CHN003A,CHN,A,English,Mon Aug 06 16:10:12 2018,Mouse
1,1,1,0,21,4,4,1,560,470,90,137,0,500,200,8000,"[(960, 540), (960, 540), (960, 540), (960, 540), (960, 540), (960, 540), (960, 540), (960, 540), (960, 540), (960, 540), (960, 540), (960, 540), (960, 540), (960, 540), (960, 540), (960, 540), (960, 540), (960, 540), (960, 540), (960, 540), (960, 540), (960, 540), (960, 540), (960, 540), (960, 540), (960, 540), (960, 540), (960, 540), (960, 540), (960, 540), (960, 540), (960, 540), (960, 540), (960, 540), (960, 540), (960, 540), (960, 540), (960, 540), (960, 540), (960, 540), (960, 540), (960, 540), (960, 540), (960, 540), (960, 540), (960, 540), (960, 536), (959, 526), (954, 508), (946, 483), (926, 406), (916, 359), (910, 313), (905, 273), (897, 183), (897, 144)]",260.9605171966449,"[6, 7, 3, 5, 1, 9, 4, 2, 8]","(0, 0.25)",CHN003A,CHN,A,English,Mon Aug 06 16:10:12 2018,Mouse
1,1,1,0,22,8,8,1,540,480,60,136,0,500,200,8000,"[(960, 540), (960, 540), (960, 540), (960, 540), (960, 540), (960, 540), (960, 540), (960, 540), (960, 540), (960, 540), (960, 540), (960, 540), (960, 540), (960, 540), (960, 540), (960, 540), (960, 540), (960, 540), (960, 540), (960, 540), (960, 540), (960, 540), (960, 540), (960, 540), (960, 540), (960, 540), (960, 540), (960, 540), (960, 540), (960, 540), (960, 540), (960, 540), (960, 540), (960, 540), (960, 540), (960, 540), (960, 540), (960, 540), (960, 540), (960, 540), (960, 540), (960, 540), (960, 540), (960, 540), (960, 540), (960, 540), (960, 540), (968, 538), (993, 529), (1089, 487), (1164, 463), (1239, 436), (1320, 409), (1491, 362)]",341.4679946134814,"[6, 7, 3, 5, 1, 9, 4, 2, 8]","(0, 0.25)",CHN003A,CHN,A,English,Mon Aug 06 16:10:12 2018,Mouse
1,1,1,0,23,8,8,1,280,230,50,135,0,500,200,8000,"[(960, 540), (960, 540), (960, 540), (960, 540), (960, 540), (960, 540), (960, 540), (960, 540), (960, 540), (960, 540), (960, 540), (960, 540), (960, 540), (960, 540), (960, 540), (960, 540), (960, 540), (960, 540), (960, 540), (960, 540), (960, 540), (960, 540), (972, 528), (1003, 506), (1042, 477), (1099, 445), (1234, 363), (1311, 318)]",327.68752137386997,"[6, 7, 3, 5, 1, 9, 4, 2, 8]","(0, 0.25)",CHN003A,CHN,A,English,Mon Aug 06 16:10:12 2018,Mouse
1,1,1,0,24,1,1,1,260,190,70,134,0,500,200,8000,"[(960, 540), (960, 540), (960, 540), (960, 540), (960, 540), (960, 540), (960, 540), (960, 540), (960, 540), (960, 540), (960, 540), (960, 540), (960, 540), (960, 540), (960, 540), (960, 540), (960, 540), (960, 540), (956, 543), (942, 546), (923, 549), (856, 559), (797, 563), (729, 572), (653, 580), (480, 591)]",173.93507755455204,"[6, 7, 3, 5, 1, 9, 4, 2, 8]","(0, 0.25)",CHN003A,CHN,A,English,Mon Aug 06 16:10:12 2018,Mouse
1,1,1,0,25,5,2,0,-670,630,40,133,0,500,200,8000,"[(960, 540), (960, 540), (960, 540), (960, 540), (960, 540), (960, 540), (960, 540), (960, 540), (960, 540), (960, 540), (960, 540), (960, 540), (960, 540), (960, 540), (960, 540), (960, 540), (960, 540), (960, 540), (960, 540), (960, 540), (960, 540), (960, 540), (960, 540), (960, 540), (960, 540), (960, 540), (960, 540), (960, 540), (960, 540), (960, 540), (960, 540), (960, 540), (960, 540), (960, 540), (960, 540), (960, 540), (960, 540), (960, 540), (960, 540), (960, 540), (960, 540), (960, 540), (960, 540), (960, 540), (960, 540), (960, 540), (960, 540), (960, 540), (960, 540), (960, 540), (960, 540), (960, 540), (960, 540), (960, 540), (960, 540), (960, 540), (960, 540), (960, 540), (960, 540), (960, 540), (960, 540), (960, 540), (963, 494), (971, 437), (981, 366), (1001, 292), (1079, 147)]",286.84625897425235,"[6, 7, 3, 5, 1, 9, 4, 2, 8]","(0, 0.25)",CHN003A,CHN,A,English,Mon Aug 06 16:10:12 2018,Mouse
1,1,1,0,26,2,5,0,-500,390,110,134,0,500,200,8000,"[(960, 540), (960, 540), (960, 540), (960, 540), (960, 540), (960, 540), (960, 540), (960, 540), (960, 540), (960, 540), (960, 540), (960, 540), (960, 540), (960, 540), (960, 540), (960, 540), (960, 540), (960, 540), (960, 540), (960, 540), (960, 540), (960, 540), (960, 540), (960, 540), (960, 540), (960, 540), (960, 540), (960, 540), (960, 540), (960, 540), (960, 540), (960, 540), (960, 540), (960, 540), (960, 540), (960, 540), (960, 540), (960, 540), (951, 548), (946, 552), (936, 556), (923, 563), (884, 582), (854, 600), (818, 621), (785, 645), (715, 696), (670, 726), (636, 753), (597, 782)]",146.30993247402023,"[6, 7, 3, 5, 1, 9, 4, 2, 8]","(0, 0.25)",CHN003A,CHN,A,English,Mon Aug 06 16:10:12 2018,Mouse
1,1,1,0,27,1,1,1,268,198,70,135,0,500,200,8000,"[(960, 540), (960, 540), (960, 540), (960, 540), (960, 540), (960, 540), (960, 540), (960, 540), (960, 540), (960, 540), (960, 540), (960, 540), (960, 540), (960, 540), (960, 540), (960, 540), (960, 540), (960, 540), (960, 540), (957, 541), (946, 542), (933, 544), (903, 547), (783, 553), (717, 553), (645, 553), (556, 553)]",178.15695986875787,"[6, 7, 3, 5, 1, 9, 4, 2, 8]","(0, 0.25)",CHN003A,CHN,A,English,Mon Aug 06 16:10:12 2018,Mouse
1,1,1,0,28,9,6,0,-320,250,70,135,0,500,200,8000,"[(960, 540), (960, 540), (960, 540), (960, 540), (960, 540), (960, 540), (960, 540), (960, 540), (960, 540), (960, 540), (960, 540), (960, 540), (960, 540), (960, 540), (960, 540), (960, 540), (960, 540), (960, 540), (960, 540), (960, 540), (960, 540), (960, 540), (960, 540), (960, 540), (964, 540), (973, 544), (994, 556), (1056, 586), (1106, 606), (1172, 639), (1259, 680), (1440, 754)]",24.0289059999062,"[6, 7, 3, 5, 1, 9, 4, 2, 8]","(0, 0.25)",CHN003A,CHN,A,English,Mon Aug 06 16:10:12 2018,Mouse
1,1,1,0,29,8,8,1,400,340,60,136,0,500,200,8000,"[(960, 540), (960, 540), (960, 540), (960, 540), (960, 540), (960, 540), (960, 540), (960, 540), (960, 540), (960, 540), (960, 540), (960, 540), (960, 540), (960, 540), (960, 540), (960, 540), (960, 540), (960, 540), (960, 540), (960, 540), (960, 540), (960, 540), (960, 540), (960, 540), (960, 540), (960, 540), (960, 540), (960, 540), (960, 540), (960, 540), (960, 540), (960, 540), (960, 540), (964, 536), (1003, 514), (1042, 491), (1093, 469), (1152, 443), (1298, 382), (1368, 351)]",335.14476286706355,"[6, 7, 3, 5, 1, 9, 4, 2, 8]","(0, 0.25)",CHN003A,CHN,A,English,Mon Aug 06 16:10:12 2018,Mouse
1,1,1,0,30,1,1,1,260,160,100,136,0,500,200,8000,"[(960, 540), (960, 540), (960, 540), (960, 540), (960, 540), (960, 540), (960, 540), (960, 540), (960, 540), (960, 540), (960, 540), (960, 540), (960, 540), (960, 540), (960, 540), (960, 541), (953, 544), (934, 549), (920, 552), (901, 553), (869, 558), (781, 567), (733, 571), (682, 575), (629, 575), (510, 575)]",175.5526151499095,"[6, 7, 3, 5, 1, 9, 4, 2, 8]","(0, 0.25)",CHN003A,CHN,A,English,Mon Aug 06 16:10:12 2018,Mouse
1,1,1,0,31,3,3,1,830,630,200,135,0,500,200,8000,"[(960, 540), (960, 540), (960, 540), (960, 540), (960, 540), (960, 540), (960, 540), (960, 540), (960, 540), (960, 540), (960, 540), (960, 540), (960, 540), (960, 540), (960, 540), (960, 540), (960, 540), (960, 540), (960, 540), (960, 540), (960, 540), (960, 540), (960, 540), (960, 540), (960, 540), (960, 540), (960, 540), (960, 540), (960, 540), (960, 540), (960, 540), (960, 540), (960, 540), (960, 540), (960, 540), (960, 540), (960, 540), (960, 540), (960, 540), (960, 540), (960, 540), (960, 540), (960, 540), (960, 540), (960, 540), (960, 540), (960, 540), (960, 540), (960, 540), (960, 540), (960, 540), (960, 540), (960, 540), (960, 540), (960, 540), (960, 540), (960, 540), (960, 540), (960, 540), (960, 540), (960, 540), (960, 540), (959, 540), (958, 540), (957, 542), (957, 544), (955, 548), (954, 552), (953, 560), (953, 568), (948, 594), (948, 607), (948, 623), (948, 646), (954, 688), (959, 715), (960, 733), (962, 761), (967, 819), (967, 855), (967, 897), (967, 933), (963, 990)]",89.61803379527097,"[6, 7, 3, 5, 1, 9, 4, 2, 8]","(0, 0.25)",CHN003A,CHN,A,English,Mon Aug 06 16:10:12 2018,Mouse
1,1,1,0,32,5,5,1,510,410,100,134,0,500,200,8000,"[(960, 540), (960, 540), (960, 540), (960, 540), (960, 540), (960, 540), (960, 540), (960, 540), (960, 540), (960, 540), (960, 540), (960, 540), (960, 540), (960, 540), (960, 540), (960, 540), (960, 540), (960, 540), (960, 540), (960, 540), (960, 540), (960, 540), (960, 540), (960, 540), (960, 540), (960, 540), (960, 540), (960, 540), (960, 540), (960, 540), (960, 540), (960, 540), (960, 540), (960, 540), (960, 540), (960, 540), (960, 540), (960, 540), (960, 540), (960, 540), (959, 540), (956, 543), (940, 561), (924, 573), (896, 592), (856, 611), (763, 649), (706, 676), (655, 697), (602, 717), (493, 769)]",153.87832949560965,"[6, 7, 3, 5, 1, 9, 4, 2, 8]","(0, 0.25)",CHN003A,CHN,A,English,Mon Aug 06 16:10:12 2018,Mouse
1,1,1,0,33,6,6,1,1070,770,300,133,0,500,200,8000,"[(960, 540), (960, 540), (960, 540), (960, 540), (960, 540), (960, 540), (960, 540), (960, 540), (960, 540), (960, 540), (960, 540), (960, 540), (960, 540), (960, 540), (960, 540), (960, 540), (960, 540), (960, 540), (960, 540), (960, 540), (960, 540), (960, 540), (960, 540), (960, 540), (960, 540), (960, 540), (960, 540), (960, 540), (960, 540), (960, 540), (960, 540), (960, 540), (960, 540), (960, 540), (960, 540), (960, 540), (960, 540), (960, 540), (960, 540), (960, 540), (960, 540), (960, 540), (960, 540), (960, 540), (960, 540), (960, 540), (960, 540), (960, 540), (960, 540), (960, 540), (960, 540), (960, 540), (960, 540), (960, 540), (960, 540), (960, 540), (960, 540), (960, 540), (960, 540), (960, 540), (960, 540), (960, 540), (960, 540), (960, 540), (960, 540), (960, 540), (960, 540), (960, 540), (960, 540), (960, 540), (960, 540), (960, 540), (960, 540), (960, 540), (960, 540), (960, 540), (959, 540), (959, 540), (961, 544), (964, 548), (966, 550), (968, 552), (970, 556), (971, 556), (972, 558), (972, 558), (973, 559), (973, 559), (973, 559), (973, 559), (974, 560), (974, 560), (974, 560), (975, 560), (975, 561), (977, 562), (979, 562), (983, 563), (997, 568), (1010, 571), (1030, 575), (1052, 583), (1133, 605), (1177, 619), (1233, 635), (1291, 652), (1413, 687)]",17.978418408822964,"[6, 7, 3, 5, 1, 9, 4, 2, 8]","(0, 0.25)",CHN003A,CHN,A,English,Mon Aug 06 16:10:12 2018,Mouse
1,1,1,0,34,1,1,1,520,120,400,132,0,500,200,8000,"[(960, 540), (960, 540), (960, 540), (960, 540), (960, 540), (960, 540), (960, 540), (960, 540), (960, 540), (960, 540), (960, 540), (960, 538), (960, 538), (959, 538), (958, 538), (958, 538), (958, 538), (958, 538), (958, 538), (958, 538), (958, 538), (958, 538), (958, 538), (958, 538), (958, 538), (958, 538), (958, 538), (958, 538), (958, 538), (958, 538), (958, 538), (958, 538), (958, 538), (958, 538), (958, 538), (958, 538), (958, 538), (958, 538), (958, 538), (958, 538), (958, 538), (958, 538), (958, 538), (958, 538), (958, 538), (958, 538), (926, 547), (870, 549), (810, 549), (746, 548), (571, 541), (457, 541)]",179.88609203970688,"[6, 7, 3, 5, 1, 9, 4, 2, 8]","(0, 0.25)",CHN003A,CHN,A,English,Mon Aug 06 16:10:12 2018,Mouse
1,1,1,0,35,4,1,0,-549,499,50,131,0,500,200,8000,"[(960, 540), (960, 540), (960, 540), (960, 540), (960, 540), (960, 540), (960, 540), (960, 540), (960, 540), (960, 540), (960, 540), (960, 540), (960, 540), (960, 540), (960, 540), (960, 540), (960, 540), (960, 540), (960, 540), (960, 540), (960, 540), (960, 540), (960, 540), (960, 540), (960, 540), (960, 540), (960, 540), (960, 540), (960, 540), (960, 540), (960, 540), (960, 540), (960, 540), (960, 540), (960, 540), (960, 540), (960, 540), (960, 540), (960, 540), (960, 540), (960, 540), (960, 540), (960, 540), (960, 540), (960, 540), (960, 540), (960, 540), (960, 540), (960, 540), (944, 540), (910, 536), (849, 536), (788, 536), (633, 532), (544, 530)]",181.37703719377274,"[6, 7, 3, 5, 1, 9, 4, 2, 8]","(0, 0.25)",CHN003A,CHN,A,English,Mon Aug 06 16:10:12 2018,Mouse
1,1,1,0,36,7,1,0,-370,310,60,132,0,500,200,8000,"[(960, 540), (960, 540), (960, 540), (960, 540), (960, 540), (960, 540), (960, 540), (960, 540), (960, 540), (960, 540), (960, 540), (960, 540), (960, 540), (960, 540), (960, 540), (960, 540), (960, 540), (960, 540), (960, 540), (960, 540), (960, 540), (960, 540), (960, 540), (960, 540), (960, 540), (960, 540), (960, 540), (960, 540), (960, 540), (960, 540), (952, 540), (931, 541), (899, 545), (787, 550), (723, 550), (646, 550), (560, 550)]",178.56790381583536,"[6, 7, 3, 5, 1, 9, 4, 2, 8]","(0, 0.25)",CHN003A,CHN,A,English,Mon Aug 06 16:10:12 2018,Mouse
1,1,1,0,37,8,6,0,-399,279,120,133,0,500,200,8000,"[(960, 540), (960, 540), (960, 540), (960, 540), (960, 540), (960, 540), (960, 540), (960, 540), (960, 540), (960, 540), (960, 540), (960, 540), (960, 540), (960, 540), (960, 540), (960, 540), (960, 540), (960, 540), (960, 540), (960, 540), (960, 540), (960, 540), (960, 540), (960, 540), (960, 540), (960, 540), (960, 540), (961, 540), (963, 540), (968, 540), (978, 540), (1003, 545), (1019, 550), (1039, 551), (1064, 555), (1135, 573), (1177, 584), (1232, 597), (1287, 613), (1414, 647)]",13.26162074145387,"[6, 7, 3, 5, 1, 9, 4, 2, 8]","(0, 0.25)",CHN003A,CHN,A,English,Mon Aug 06 16:10:12 2018,Mouse
1,1,1,0,38,2,1,0,-720,580,140,134,0,500,200,8000,"[(960, 540), (960, 540), (960, 540), (960, 540), (960, 540), (960, 540), (960, 540), (960, 540), (960, 540), (960, 540), (960, 540), (960, 540), (960, 540), (960, 540), (960, 540), (960, 540), (960, 540), (960, 540), (960, 540), (960, 540), (960, 540), (960, 540), (960, 540), (960, 540), (960, 540), (960, 540), (960, 540), (960, 540), (960, 540), (960, 540), (960, 540), (960, 540), (960, 540), (960, 540), (960, 540), (960, 540), (960, 540), (960, 540), (960, 540), (960, 540), (960, 540), (960, 540), (960, 540), (960, 540), (960, 540), (960, 540), (960, 540), (960, 540), (960, 540), (960, 540), (960, 540), (960, 540), (960, 540), (960, 540), (960, 540), (960, 540), (960, 540), (960, 541), (957, 543), (953, 544), (947, 545), (937, 547), (913, 547), (898, 547), (882, 547), (865, 547), (812, 547), (775, 549), (733, 549), (689, 549), (584, 549), (531, 549)]",178.7981669355479,"[6, 7, 3, 5, 1, 9, 4, 2, 8]","(0, 0.25)",CHN003A,CHN,A,English,Mon Aug 06 16:10:12 2018,Mouse
1,1,1,0,39,5,3,0,-1079,969,110,135,0,500,200,8000,"[(960, 540), (960, 540), (960, 540), (960, 540), (960, 540), (960, 540), (960, 540), (960, 540), (960, 540), (960, 540), (960, 540), (960, 540), (960, 540), (960, 540), (960, 540), (960, 540), (960, 540), (960, 540), (960, 540), (960, 540), (960, 540), (960, 540), (960, 540), (960, 540), (960, 540), (960, 540), (960, 540), (960, 540), (960, 540), (960, 540), (960, 540), (960, 540), (960, 540), (960, 540), (960, 540), (960, 540), (960, 540), (960, 540), (960, 540), (960, 540), (960, 540), (960, 540), (960, 540), (960, 540), (960, 540), (960, 540), (960, 540), (960, 540), (960, 540), (960, 540), (960, 540), (960, 540), (960, 540), (960, 540), (960, 540), (960, 540), (960, 540), (960, 540), (960, 540), (960, 540), (960, 540), (960, 540), (960, 540), (960, 540), (960, 540), (960, 540), (960, 540), (960, 540), (960, 540), (960, 540), (960, 540), (960, 540), (960, 540), (960, 540), (960, 540), (960, 540), (960, 540), (960, 540), (960, 540), (960, 540), (960, 540), (960, 540), (960, 540), (960, 540), (960, 540), (960, 540), (960, 540), (960, 540), (960, 540), (960, 540), (960, 540), (960, 540), (960, 540), (960, 540), (960, 540), (960, 540), (961, 540), (965, 551), (965, 563), (969, 587), (972, 624), (976, 700), (973, 746), (966, 789), (955, 825), (936, 892), (926, 930), (914, 964)]",96.19183428484205,"[6, 7, 3, 5, 1, 9, 4, 2, 8]","(0, 0.25)",CHN003A,CHN,A,English,Mon Aug 06 16:10:12 2018,Mouse
1,1,1,0,40,6,6,1,430,330,100,136,0,500,200,8000,"[(960, 540), (960, 540), (960, 540), (960, 540), (960, 540), (960, 540), (960, 540), (960, 540), (960, 540), (960, 540), (960, 540), (960, 540), (960, 540), (960, 540), (960, 540), (960, 540), (960, 540), (960, 540), (960, 540), (960, 540), (960, 540), (960, 540), (960, 540), (960, 540), (960, 540), (960, 540), (960, 540), (960, 540), (960, 540), (960, 540), (960, 540), (960, 540), (969, 539), (981, 539), (996, 539), (1013, 542), (1067, 550), (1115, 553), (1158, 559), (1198, 566), (1293, 578), (1333, 585), (1379, 591)]",6.939811711948676,"[6, 7, 3, 5, 1, 9, 4, 2, 8]","(0, 0.25)",CHN003A,CHN,A,English,Mon Aug 06 16:10:12 2018,Mouse
1,1,1,0,41,3,3,1,530,420,110,136,0,500,200,8000,"[(960, 540), (960, 540), (960, 540), (960, 540), (960, 540), (960, 540), (960, 540), (960, 540), (960, 540), (960, 540), (960, 540), (960, 540), (960, 540), (960, 540), (960, 540), (960, 540), (960, 540), (960, 540), (960, 540), (960, 540), (960, 540), (960, 540), (960, 540), (960, 540), (960, 540), (960, 540), (960, 540), (960, 540), (960, 540), (960, 540), (960, 540), (960, 540), (960, 540), (960, 540), (960, 540), (960, 540), (960, 540), (960, 540), (960, 540), (960, 540), (960, 540), (960, 542), (960, 544), (959, 549), (947, 573), (940, 594), (928, 620), (912, 657), (876, 748), (865, 789), (853, 833), (846, 879), (842, 983)]",104.9153160743003,"[6, 7, 3, 5, 1, 9, 4, 2, 8]","(0, 0.25)",CHN003A,CHN,A,English,Mon Aug 06 16:10:12 2018,Mouse
1,1,1,0,42,8,8,1,390,70,320,135,0,500,200,8000,"[(960, 540), (960, 540), (960, 540), (960, 540), (960, 540), (960, 540), (961, 540), (963, 540), (963, 540), (963, 540), (965, 539), (966, 539), (966, 538), (966, 538), (967, 538), (967, 538), (968, 538), (968, 538), (968, 538), (970, 538), (971, 537), (971, 537), (975, 535), (977, 535), (978, 535), (980, 534), (985, 533), (988, 531), (995, 529), (1004, 528), (1025, 523), (1035, 518), (1047, 514), (1064, 506), (1117, 483), (1152, 462), (1188, 442), (1226, 417), (1325, 361)]",333.8761617258912,"[6, 7, 3, 5, 1, 9, 4, 2, 8]","(0, 0.25)",CHN003A,CHN,A,English,Mon Aug 06 16:10:12 2018,Mouse
1,1,1,0,43,6,6,1,310,160,150,134,0,500,200,8000,"[(960, 540), (960, 540), (960, 540), (960, 540), (960, 540), (960, 540), (960, 540), (960, 540), (960, 540), (960, 540), (960, 540), (960, 540), (960, 540), (960, 540), (960, 540), (962, 542), (963, 543), (966, 546), (972, 553), (977, 558), (983, 563), (992, 569), (1014, 584), (1029, 593), (1051, 605), (1074, 616), (1157, 651), (1204, 662), (1250, 674), (1293, 689), (1388, 709)]",21.54707153844343,"[6, 7, 3, 5, 1, 9, 4, 2, 8]","(0, 0.25)",CHN003A,CHN,A,English,Mon Aug 06 16:10:12 2018,Mouse
1,1,1,0,44,5,6,0,-240,170,70,133,0,500,200,8000,"[(960, 540), (960, 540), (960, 540), (960, 540), (960, 540), (960, 540), (960, 540), (960, 540), (960, 540), (960, 540), (960, 540), (960, 540), (960, 540), (960, 540), (960, 540), (960, 540), (962, 540), (972, 540), (1033, 543), (1084, 549), (1142, 551), (1207, 557), (1345, 574), (1413, 583)]",5.422425235199403,"[6, 7, 3, 5, 1, 9, 4, 2, 8]","(0, 0.25)",CHN003A,CHN,A,English,Mon Aug 06 16:10:12 2018,Mouse
1,1,1,0,45,3,6,0,-679,619,60,134,0,500,200,8000,"[(960, 540), (960, 540), (960, 540), (960, 540), (960, 540), (960, 540), (960, 540), (960, 540), (960, 540), (960, 540), (960, 540), (960, 540), (960, 540), (960, 540), (960, 540), (960, 540), (960, 540), (960, 540), (960, 540), (960, 540), (960, 540), (960, 540), (960, 540), (960, 540), (960, 540), (960, 540), (960, 540), (960, 540), (960, 540), (960, 540), (960, 540), (960, 540), (960, 540), (960, 540), (960, 540), (960, 540), (960, 540), (960, 540), (960, 540), (960, 540), (960, 540), (960, 540), (960, 540), (960, 540), (960, 540), (960, 540), (960, 540), (960, 540), (960, 540), (960, 540), (960, 540), (960, 540), (960, 540), (960, 540), (960, 540), (960, 540), (960, 540), (960, 540), (960, 540), (960, 540), (960, 540), (975, 540), (999, 547), (1037, 554), (1087, 564), (1211, 580), (1285, 593), (1358, 604)]",9.13518835941016,"[6, 7, 3, 5, 1, 9, 4, 2, 8]","(0, 0.25)",CHN003A,CHN,A,English,Mon Aug 06 16:10:12 2018,Mouse
1,1,1,0,46,4,5,0,-569,49,520,135,0,500,200,8000,"[(960, 540), (960, 540), (960, 540), (960, 540), (959, 540), (959, 540), (959, 540), (959, 540), (959, 540), (959, 540), (959, 540), (959, 540), (959, 540), (959, 540), (959, 540), (959, 540), (959, 540), (959, 540), (959, 540), (959, 540), (959, 540), (959, 540), (959, 541), (959, 541), (958, 543), (956, 543), (954, 544), (953, 545), (946, 548), (944, 549), (941, 550), (938, 552), (931, 557), (927, 560), (925, 562), (923, 563), (917, 568), (913, 570), (909, 573), (904, 578), (895, 584), (889, 587), (883, 592), (879, 596), (868, 604), (860, 611), (856, 615), (849, 621), (835, 635), (827, 644), (817, 654), (805, 668), (773, 707), (746, 734), (723, 752), (690, 776), (605, 823)]",141.4387396011091,"[6, 7, 3, 5, 1, 9, 4, 2, 8]","(0, 0.25)",CHN003A,CHN,A,English,Mon Aug 06 16:10:12 2018,Mouse
1,1,1,0,47,5,9,0,-859,649,210,136,0,500,200,8000,"[(960, 540), (960, 540), (960, 540), (960, 540), (960, 540), (960, 540), (960, 540), (960, 540), (960, 540), (960, 540), (960, 540), (960, 540), (960, 540), (960, 540), (960, 540), (960, 540), (960, 540), (960, 540), (960, 540), (960, 540), (960, 540), (960, 540), (960, 540), (960, 540), (960, 540), (960, 540), (960, 540), (960, 540), (960, 540), (960, 540), (960, 540), (960, 540), (960, 540), (960, 540), (960, 540), (960, 540), (960, 540), (960, 540), (960, 540), (960, 540), (960, 540), (960, 540), (960, 540), (960, 540), (960, 540), (960, 540), (960, 540), (960, 540), (960, 540), (960, 540), (960, 540), (960, 540), (960, 540), (960, 540), (960, 540), (960, 540), (960, 540), (960, 540), (960, 540), (960, 540), (960, 540), (960, 540), (960, 540), (960, 540), (959, 539), (959, 539), (959, 538), (959, 538), (959, 538), (959, 538), (959, 538), (958, 538), (958, 538), (958, 538), (957, 537), (957, 537), (955, 535), (953, 532), (938, 513), (924, 497), (911, 480), (884, 451), (801, 378), (751, 343), (703, 305), (656, 273)]",221.29249705771136,"[6, 7, 3, 5, 1, 9, 4, 2, 8]","(0, 0.25)",CHN003A,CHN,A,English,Mon Aug 06 16:10:12 2018,Mouse
1,1,1,0,48,9,9,1,320,40,280,137,0,500,200,8000,"[(960, 540), (960, 540), (960, 540), (961, 540), (961, 538), (960, 535), (959, 530), (956, 526), (955, 524), (955, 523), (954, 522), (953, 520), (953, 520), (953, 520), (953, 520), (952, 518), (952, 517), (950, 515), (948, 512), (943, 507), (939, 504), (934, 499), (928, 492), (913, 480), (901, 472), (890, 465), (873, 456), (818, 424), (783, 405), (741, 375), (703, 352), (613, 290)]",215.77128255698022,"[6, 7, 3, 5, 1, 9, 4, 2, 8]","(0, 0.25)",CHN003A,CHN,A,English,Mon Aug 06 16:10:12 2018,Mouse
1,1,1,0,49,1,6,0,-579,209,370,137,0,500,200,8000,"[(960, 540), (960, 540), (960, 540), (960, 540), (960, 540), (960, 540), (960, 540), (960, 540), (960, 540), (960, 540), (960, 540), (960, 540), (960, 540), (960, 540), (960, 540), (960, 540), (960, 540), (960, 540), (960, 540), (960, 540), (961, 539), (965, 538), (972, 536), (979, 535), (986, 535), (992, 534), (1012, 531), (1021, 531), (1032, 531), (1043, 531), (1058, 531), (1066, 531), (1067, 531), (1070, 531), (1070, 531), (1070, 531), (1070, 531), (1070, 531), (1070, 531), (1071, 531), (1071, 531), (1072, 531), (1076, 532), (1080, 533), (1085, 536), (1090, 538), (1108, 547), (1121, 553), (1133, 558), (1146, 564), (1186, 579), (1212, 588), (1238, 602), (1264, 609), (1306, 623), (1326, 628), (1348, 634), (1366, 641)]",13.969813608402172,"[6, 7, 3, 5, 1, 9, 4, 2, 8]","(0, 0.25)",CHN003A,CHN,A,English,Mon Aug 06 16:10:12 2018,Mouse
1,1,1,0,50,2,2,1,1559,1359,200,138,0,500,200,8000,"[(960, 540), (960, 540), (960, 540), (960, 540), (960, 540), (960, 540), (960, 540), (960, 540), (960, 540), (960, 540), (960, 540), (960, 540), (960, 540), (960, 540), (960, 540), (960, 540), (960, 540), (960, 540), (960, 540), (960, 540), (960, 540), (960, 540), (960, 540), (960, 540), (960, 540), (960, 540), (960, 540), (960, 540), (960, 540), (960, 540), (960, 540), (960, 540), (960, 540), (960, 540), (960, 540), (960, 540), (960, 540), (960, 540), (960, 540), (960, 540), (960, 540), (960, 540), (960, 540), (960, 540), (960, 540), (960, 540), (960, 540), (960, 540), (960, 540), (960, 540), (960, 540), (960, 540), (960, 540), (960, 540), (960, 540), (960, 540), (960, 540), (960, 540), (960, 540), (960, 540), (960, 540), (960, 540), (960, 540), (960, 540), (960, 540), (960, 540), (960, 540), (960, 540), (960, 540), (960, 540), (960, 540), (960, 540), (960, 540), (960, 540), (960, 540), (960, 540), (960, 540), (960, 540), (960, 540), (960, 540), (960, 540), (960, 540), (960, 540), (960, 540), (960, 540), (960, 540), (960, 540), (960, 540), (960, 540), (960, 540), (960, 540), (960, 540), (960, 540), (960, 540), (960, 540), (960, 540), (960, 540), (960, 540), (960, 540), (960, 540), (960, 540), (960, 540), (960, 540), (960, 540), (960, 540), (960, 540), (960, 540), (960, 540), (960, 540), (960, 540), (960, 540), (960, 540), (960, 540), (960, 540), (960, 540), (960, 540), (960, 540), (960, 540), (960, 540), (960, 540), (960, 540), (960, 540), (960, 540), (960, 540), (960, 540), (960, 540), (960, 540), (960, 540), (960, 540), (960, 540), (960, 540), (960, 540), (960, 540), (960, 540), (960, 540), (961, 538), (962, 537), (963, 535), (964, 534), (968, 528), (969, 525), (972, 520), (975, 514), (985, 495), (991, 485), (999, 472), (1007, 462), (1030, 423), (1046, 396), (1064, 363), (1079, 336), (1114, 278), (1130, 256), (1146, 233), (1159, 216), (1178, 194)]",302.21329855081325,"[6, 7, 3, 5, 1, 9, 4, 2, 8]","(0, 0.25)",CHN003A,CHN,A,English,Mon Aug 06 16:10:12 2018,Mouse
1,1,1,0,51,7,7,1,489,319,170,138,0,500,200,8000,"[(960, 540), (960, 540), (960, 540), (960, 540), (960, 540), (960, 540), (960, 540), (960, 540), (960, 540), (960, 540), (960, 540), (960, 540), (960, 540), (960, 540), (960, 540), (960, 540), (960, 540), (960, 540), (960, 540), (960, 540), (960, 540), (960, 540), (960, 540), (960, 540), (960, 540), (960, 540), (960, 540), (960, 540), (960, 540), (960, 540), (960, 540), (961, 540), (962, 541), (962, 541), (962, 542), (962, 542), (962, 544), (963, 548), (966, 555), (968, 562), (972, 575), (978, 588), (996, 630), (1010, 665), (1031, 703), (1057, 749), (1101, 836), (1121, 884), (1138, 926)]",65.24368814541407,"[6, 7, 3, 5, 1, 9, 4, 2, 8]","(0, 0.25)",CHN003A,CHN,A,English,Mon Aug 06 16:10:12 2018,Mouse
1,1,1,0,52,3,3,1,1130,1010,120,137,0,500,200,8000,"[(960, 540), (960, 540), (960, 540), (960, 540), (960, 540), (960, 540), (960, 540), (960, 540), (960, 540), (960, 540), (960, 540), (960, 540), (960, 540), (960, 540), (960, 540), (960, 540), (960, 540), (960, 540), (960, 540), (960, 540), (960, 540), (960, 540), (960, 540), (960, 540), (960, 540), (960, 540), (960, 540), (960, 540), (960, 540), (960, 540), (960, 540), (960, 540), (960, 540), (960, 540), (960, 540), (960, 540), (960, 540), (960, 540), (960, 540), (960, 540), (960, 540), (960, 540), (960, 540), (960, 540), (960, 540), (960, 540), (960, 540), (960, 540), (960, 540), (960, 540), (960, 540), (960, 540), (960, 540), (960, 540), (960, 540), (960, 540), (960, 540), (960, 540), (960, 540), (960, 540), (960, 540), (960, 540), (960, 540), (960, 540), (960, 540), (960, 540), (960, 540), (960, 540), (960, 540), (960, 540), (960, 540), (960, 540), (960, 540), (960, 540), (960, 540), (960, 540), (960, 540), (960, 540), (960, 540), (960, 540), (960, 540), (960, 540), (960, 540), (960, 540), (960, 540), (960, 540), (960, 540), (960, 540), (960, 540), (960, 540), (960, 540), (960, 540), (960, 540), (960, 540), (960, 540), (960, 540), (960, 540), (960, 540), (960, 540), (960, 540), (960, 546), (960, 552), (960, 559), (962, 571), (969, 610), (970, 635), (972, 664), (973, 698), (973, 776), (973, 814), (973, 859), (973, 903), (973, 976)]",88.29214558987896,"[6, 7, 3, 5, 1, 9, 4, 2, 8]","(0, 0.25)",CHN003A,CHN,A,English,Mon Aug 06 16:10:12 2018,Mouse
1,1,1,0,53,7,7,1,640,550,90,136,0,500,200,8000,"[(960, 540), (960, 540), (960, 540), (960, 540), (960, 540), (960, 540), (960, 540), (960, 540), (960, 540), (960, 540), (960, 540), (960, 540), (960, 540), (960, 540), (960, 540), (960, 540), (960, 540), (960, 540), (960, 540), (960, 540), (960, 540), (960, 540), (960, 540), (960, 540), (960, 540), (960, 540), (960, 540), (960, 540), (960, 540), (960, 540), (960, 540), (960, 540), (960, 540), (960, 540), (960, 540), (960, 540), (960, 540), (960, 540), (960, 540), (960, 540), (960, 540), (960, 540), (960, 540), (960, 540), (960, 540), (960, 540), (960, 540), (960, 540), (960, 540), (960, 540), (960, 540), (960, 540), (960, 540), (960, 540), (960, 539), (964, 539), (969, 548), (978, 568), (1007, 637), (1026, 683), (1053, 732), (1077, 775), (1132, 871), (1155, 912)]",62.336761672181986,"[6, 7, 3, 5, 1, 9, 4, 2, 8]","(0, 0.25)",CHN003A,CHN,A,English,Mon Aug 06 16:10:12 2018,Mouse
1,1,1,0,54,4,6,0,-599,539,60,135,0,500,200,8000,"[(960, 540), (960, 540), (960, 540), (960, 540), (960, 540), (960, 540), (960, 540), (960, 540), (960, 540), (960, 540), (960, 540), (960, 540), (960, 540), (960, 540), (960, 540), (960, 540), (960, 540), (960, 540), (960, 540), (960, 540), (960, 540), (960, 540), (960, 540), (960, 540), (960, 540), (960, 540), (960, 540), (960, 540), (960, 540), (960, 540), (960, 540), (960, 540), (960, 540), (960, 540), (960, 540), (960, 540), (960, 540), (960, 540), (960, 540), (960, 540), (960, 540), (960, 540), (960, 540), (960, 540), (960, 540), (960, 540), (960, 540), (960, 540), (960, 540), (960, 540), (960, 540), (960, 540), (960, 540), (982, 555), (1014, 569), (1051, 582), (1101, 596), (1236, 634), (1306, 656), (1380, 676)]",17.942447089158676,"[6, 7, 3, 5, 1, 9, 4, 2, 8]","(0, 0.25)",CHN003A,CHN,A,English,Mon Aug 06 16:10:12 2018,Mouse
1,1,1,0,55,4,4,1,370,250,120,136,0,500,200,8000,"[(960, 540), (960, 540), (960, 540), (960, 540), (960, 540), (960, 540), (960, 540), (960, 540), (960, 540), (960, 540), (960, 540), (960, 540), (960, 540), (960, 540), (960, 540), (960, 540), (960, 540), (960, 540), (960, 540), (960, 540), (960, 540), (960, 540), (960, 540), (960, 540), (954, 530), (951, 522), (948, 509), (943, 493), (923, 424), (915, 396), (908, 363), (905, 337), (894, 262), (887, 226), (887, 198), (887, 168), (887, 106)]",260.45206593262077,"[6, 7, 3, 5, 1, 9, 4, 2, 8]","(0, 0.25)",CHN003A,CHN,A,English,Mon Aug 06 16:10:12 2018,Mouse
1,1,1,0,56,4,4,1,120,30,90,136,0,500,200,8000,"[(960, 540), (960, 540), (957, 520), (951, 498), (943, 473), (934, 439), (914, 359), (903, 320), (890, 284), (881, 251), (862, 181), (855, 154)]",254.7825676187469,"[6, 7, 3, 5, 1, 9, 4, 2, 8]","(0, 0.25)",CHN003A,CHN,A,English,Mon Aug 06 16:10:12 2018,Mouse
1,1,1,0,57,2,3,0,-1178,1048,130,135,0,500,200,8000,"[(960, 540), (960, 540), (960, 540), (960, 540), (960, 540), (960, 540), (960, 540), (960, 540), (960, 540), (960, 540), (960, 540), (960, 540), (960, 540), (960, 540), (960, 540), (960, 540), (960, 540), (960, 540), (960, 540), (960, 540), (960, 540), (960, 540), (960, 540), (960, 540), (960, 540), (960, 540), (960, 540), (960, 540), (960, 540), (960, 540), (960, 540), (960, 540), (960, 540), (960, 540), (960, 540), (960, 540), (960, 540), (960, 540), (960, 540), (960, 540), (960, 540), (960, 540), (960, 540), (960, 540), (960, 540), (960, 540), (960, 540), (960, 540), (960, 540), (960, 540), (960, 540), (960, 540), (960, 540), (960, 540), (960, 540), (960, 540), (960, 540), (960, 540), (960, 540), (960, 540), (960, 540), (960, 540), (960, 540), (960, 540), (960, 540), (960, 540), (960, 540), (960, 540), (960, 540), (960, 540), (960, 540), (960, 540), (960, 540), (960, 540), (960, 540), (960, 540), (960, 540), (960, 540), (960, 540), (960, 540), (960, 540), (960, 540), (960, 540), (960, 540), (960, 540), (960, 540), (960, 540), (960, 540), (960, 540), (960, 540), (960, 540), (960, 540), (960, 540), (960, 540), (960, 540), (960, 540), (960, 540), (960, 540), (960, 540), (960, 540), (960, 540), (960, 540), (960, 540), (960, 540), (960, 543), (959, 559), (959, 574), (959, 587), (959, 604), (956, 644), (953, 668), (948, 700), (944, 737), (933, 810), (928, 842), (921, 877), (915, 902), (904, 941)]",97.94999047254683,"[6, 7, 3, 5, 1, 9, 4, 2, 8]","(0, 0.25)",CHN003A,CHN,A,English,Mon Aug 06 16:10:12 2018,Mouse
1,1,1,0,58,5,5,1,419,179,240,136,0,500,200,8000,"[(960, 540), (960, 540), (960, 540), (960, 540), (960, 540), (960, 540), (960, 540), (960, 540), (960, 540), (960, 540), (960, 540), (960, 540), (960, 540), (960, 540), (960, 540), (960, 540), (960, 540), (960, 544), (950, 553), (942, 561), (936, 566), (927, 574), (910, 591), (898, 600), (884, 611), (868, 625), (834, 664), (816, 687), (801, 707), (785, 727), (760, 759), (750, 770), (741, 777), (732, 783), (716, 794), (710, 798), (704, 802), (699, 806), (685, 812), (681, 814), (675, 817), (669, 818)]",136.30881471648152,"[6, 7, 3, 5, 1, 9, 4, 2, 8]","(0, 0.25)",CHN003A,CHN,A,English,Mon Aug 06 16:10:12 2018,Mouse
1,1,1,0,59,7,2,0,-1440,930,510,136,0,500,200,8000,"[(960, 540), (960, 540), (960, 540), (960, 540), (960, 540), (960, 540), (960, 540), (960, 540), (960, 540), (960, 540), (960, 540), (960, 540), (960, 540), (960, 540), (960, 540), (960, 540), (960, 540), (960, 540), (960, 540), (960, 540), (960, 540), (960, 540), (960, 540), (960, 540), (960, 540), (960, 540), (960, 540), (960, 540), (960, 540), (960, 540), (960, 540), (960, 540), (960, 540), (960, 540), (960, 540), (960, 540), (960, 540), (960, 540), (960, 540), (960, 540), (960, 540), (960, 540), (960, 540), (960, 540), (960, 540), (960, 540), (960, 540), (960, 540), (960, 540), (960, 540), (960, 540), (960, 540), (960, 540), (960, 540), (960, 540), (960, 540), (960, 540), (960, 540), (960, 540), (960, 540), (960, 540), (960, 540), (960, 540), (960, 540), (960, 540), (960, 540), (960, 540), (960, 540), (960, 540), (960, 540), (960, 540), (960, 540), (960, 540), (960, 540), (960, 540), (960, 540), (960, 540), (960, 540), (960, 540), (960, 540), (960, 540), (960, 540), (960, 540), (960, 540), (960, 540), (960, 540), (960, 540), (960, 540), (960, 540), (960, 540), (960, 540), (960, 540), (961, 540), (961, 544), (962, 551), (963, 565), (963, 574), (963, 578), (963, 582), (963, 590), (963, 592), (963, 595), (963, 598), (963, 606), (963, 608), (963, 611), (963, 611), (963, 614), (963, 614), (963, 614), (963, 614), (963, 614), (963, 614), (963, 614), (963, 614), (963, 614), (963, 614), (963, 614), (963, 614), (963, 614), (963, 614), (963, 614), (963, 614), (963, 614), (963, 614), (963, 614), (963, 614), (963, 614), (963, 614), (963, 614), (963, 614), (963, 614), (963, 614), (963, 614), (963, 614), (963, 614), (963, 613), (967, 597), (980, 553), (1023, 425), (1051, 357), (1075, 290), (1103, 225), (1167, 106)]",295.4992061495164,"[6, 7, 3, 5, 1, 9, 4, 2, 8]","(0, 0.25)",CHN003A,CHN,A,English,Mon Aug 06 16:10:12 2018,Mouse
1,1,1,0,60,9,9,1,760,330,430,137,0,500,200,8000,"[(960, 540), (960, 540), (960, 540), (960, 540), (960, 540), (960, 540), (960, 540), (960, 540), (960, 540), (960, 540), (960, 540), (960, 540), (960, 540), (960, 540), (960, 540), (960, 540), (960, 540), (960, 540), (960, 540), (960, 540), (960, 540), (960, 540), (960, 540), (960, 540), (960, 540), (960, 540), (960, 540), (960, 540), (960, 540), (960, 540), (960, 540), (960, 540), (958, 541), (958, 541), (956, 542), (956, 542), (955, 543), (955, 543), (955, 543), (954, 543), (954, 543), (952, 543), (951, 544), (950, 545), (949, 545), (948, 546), (948, 546), (947, 547), (946, 547), (945, 547), (945, 547), (945, 547), (945, 547), (945, 547), (945, 547), (945, 547), (945, 547), (945, 547), (945, 547), (945, 547), (945, 547), (944, 547), (942, 547), (939, 547), (934, 544), (927, 538), (904, 521), (876, 501), (854, 485), (828, 467), (767, 423), (741, 402), (713, 381), (685, 362), (641, 325), (618, 308)]",214.15150006925032,"[6, 7, 3, 5, 1, 9, 4, 2, 8]","(0, 0.25)",CHN003A,CHN,A,English,Mon Aug 06 16:10:12 2018,Mouse
1,1,1,0,61,4,4,1,670,100,570,137,0,500,200,8000,"[(960, 540), (960, 540), (960, 540), (960, 540), (960, 540), (960, 540), (960, 540), (960, 540), (960, 540), (959, 540), (959, 540), (959, 540), (959, 540), (959, 540), (959, 540), (959, 540), (959, 540), (959, 540), (959, 540), (959, 540), (959, 540), (959, 527), (959, 514), (959, 497), (958, 479), (952, 429), (949, 405), (947, 388), (943, 363), (936, 321), (933, 300), (930, 281), (928, 266), (925, 238), (922, 225), (921, 215), (919, 205), (917, 191), (917, 188), (917, 186), (916, 183), (916, 180), (915, 179), (915, 179), (915, 179), (915, 178), (915, 178), (915, 178), (915, 178), (915, 178), (915, 178), (915, 178), (915, 178), (915, 178), (915, 178), (915, 178), (915, 178), (915, 178), (915, 178), (915, 178), (915, 176), (914, 169), (913, 166), (912, 161), (910, 156), (908, 145), (906, 139)]",262.33049692615236,"[6, 7, 3, 5, 1, 9, 4, 2, 8]","(0, 0.25)",CHN003A,CHN,A,English,Mon Aug 06 16:10:12 2018,Mouse
1,1,1,0,62,4,4,1,230,130,100,136,0,500,200,8000,"[(960, 540), (960, 540), (960, 540), (960, 540), (960, 540), (960, 540), (960, 540), (960, 540), (960, 540), (960, 540), (960, 540), (960, 540), (959, 540), (954, 524), (949, 506), (936, 472), (925, 436), (910, 344), (906, 304), (906, 259), (906, 221), (906, 157), (906, 123)]",262.62146415732616,"[6, 7, 3, 5, 1, 9, 4, 2, 8]","(0, 0.25)",CHN003A,CHN,A,English,Mon Aug 06 16:10:12 2018,Mouse
1,1,1,0,63,1,6,0,-1270,1140,130,135,0,500,200,8000,"[(960, 540), (960, 540), (960, 540), (960, 540), (960, 540), (960, 540), (960, 540), (960, 540), (960, 540), (960, 540), (960, 540), (960, 540), (960, 540), (960, 540), (960, 540), (960, 540), (960, 540), (960, 540), (960, 540), (960, 540), (960, 540), (960, 540), (960, 540), (960, 540), (960, 540), (960, 540), (960, 540), (960, 540), (960, 540), (960, 540), (960, 540), (960, 540), (960, 540), (960, 540), (960, 540), (960, 540), (960, 540), (960, 540), (960, 540), (960, 540), (960, 540), (960, 540), (960, 540), (960, 540), (960, 540), (960, 540), (960, 540), (960, 540), (960, 540), (960, 540), (960, 540), (960, 540), (960, 540), (960, 540), (960, 540), (960, 540), (960, 540), (960, 540), (960, 540), (960, 540), (960, 540), (960, 540), (960, 540), (960, 540), (960, 540), (960, 540), (960, 540), (960, 540), (960, 540), (960, 540), (960, 540), (960, 540), (960, 540), (960, 540), (960, 540), (960, 540), (960, 540), (960, 540), (960, 540), (960, 540), (960, 540), (960, 540), (960, 540), (960, 540), (960, 540), (960, 540), (960, 540), (960, 540), (960, 540), (960, 540), (960, 540), (960, 540), (960, 540), (960, 540), (960, 540), (960, 540), (960, 540), (960, 540), (960, 540), (960, 540), (960, 540), (960, 540), (960, 540), (960, 540), (960, 540), (960, 540), (960, 540), (960, 540), (960, 540), (960, 540), (960, 540), (960, 540), (960, 540), (960, 541), (960, 541), (960, 541), (961, 542), (966, 545), (974, 550), (987, 557), (1009, 565), (1084, 598), (1135, 619), (1182, 633), (1224, 646), (1316, 675), (1357, 685)]",20.0641799378924,"[6, 7, 3, 5, 1, 9, 4, 2, 8]","(0, 0.25)",CHN003A,CHN,A,English,Mon Aug 06 16:10:12 2018,Mouse
1,1,1,0,64,9,9,1,559,399,160,136,0,500,200,8000,"[(960, 540), (960, 540), (960, 540), (960, 540), (960, 540), (960, 540), (960, 540), (960, 540), (960, 540), (960, 540), (960, 540), (960, 540), (960, 540), (960, 540), (960, 540), (960, 540), (960, 540), (960, 540), (960, 540), (960, 540), (960, 540), (960, 540), (960, 540), (960, 540), (960, 540), (960, 540), (960, 540), (960, 540), (960, 540), (960, 540), (960, 540), (960, 540), (960, 540), (960, 540), (960, 540), (960, 540), (960, 540), (960, 540), (960, 540), (959, 540), (959, 540), (959, 540), (959, 540), (958, 540), (958, 540), (955, 540), (954, 540), (951, 539), (945, 534), (917, 515), (886, 491), (848, 471), (808, 441), (713, 362), (670, 325), (630, 289)]",217.2568386580844,"[6, 7, 3, 5, 1, 9, 4, 2, 8]","(0, 0.25)",CHN003A,CHN,A,English,Mon Aug 06 16:10:12 2018,Mouse
1,1,1,0,65,1,1,1,351,261,90,136,0,500,200,8000,"[(960, 540), (960, 540), (960, 540), (960, 540), (960, 540), (960, 540), (960, 540), (960, 540), (960, 540), (960, 540), (960, 540), (960, 540), (960, 540), (960, 540), (960, 540), (960, 540), (960, 540), (960, 540), (960, 540), (960, 540), (960, 540), (960, 540), (960, 540), (960, 540), (960, 540), (960, 540), (959, 540), (955, 540), (945, 540), (907, 540), (874, 540), (827, 540), (777, 540), (647, 540), (580, 540), (509, 540)]",180.0,"[6, 7, 3, 5, 1, 9, 4, 2, 8]","(0, 0.25)",CHN003A,CHN,A,English,Mon Aug 06 16:10:12 2018,Mouse
1,1,1,0,66,2,3,0,-1341,981,360,135,0,500,200,8000,"[(960, 540), (960, 540), (960, 540), (960, 540), (960, 540), (960, 540), (960, 540), (960, 540), (960, 540), (960, 540), (960, 540), (960, 540), (960, 540), (960, 540), (960, 540), (960, 540), (960, 540), (960, 540), (960, 540), (960, 540), (960, 540), (960, 540), (960, 540), (960, 540), (960, 540), (960, 540), (960, 540), (960, 540), (960, 540), (960, 540), (960, 540), (960, 540), (960, 540), (960, 540), (960, 540), (960, 540), (960, 540), (960, 540), (960, 540), (960, 540), (960, 540), (960, 540), (960, 540), (960, 540), (960, 540), (960, 540), (960, 540), (960, 540), (960, 540), (960, 540), (960, 540), (960, 540), (960, 540), (960, 540), (960, 540), (960, 540), (960, 540), (960, 540), (960, 540), (960, 540), (960, 540), (960, 540), (960, 540), (960, 540), (960, 540), (960, 540), (960, 540), (960, 540), (960, 540), (960, 540), (960, 540), (960, 540), (960, 540), (960, 540), (960, 540), (960, 540), (960, 540), (960, 540), (960, 540), (960, 540), (960, 540), (960, 540), (960, 540), (960, 540), (960, 540), (960, 540), (960, 540), (960, 540), (960, 540), (960, 540), (960, 540), (960, 540), (960, 540), (960, 540), (960, 540), (960, 540), (960, 540), (960, 540), (960, 544), (960, 550), (960, 560), (962, 592), (965, 610), (965, 627), (965, 649), (965, 688), (965, 705), (964, 715), (959, 724), (958, 735), (956, 740), (955, 741), (953, 745), (950, 751), (949, 754), (947, 758), (945, 761), (938, 770), (937, 772), (933, 777), (928, 782), (922, 789), (918, 794), (915, 800), (910, 806), (901, 822), (897, 832), (892, 843), (888, 856), (881, 881), (878, 893), (873, 905), (870, 912), (864, 928), (861, 934)]",104.10465630647467,"[6, 7, 3, 5, 1, 9, 4, 2, 8]","(0, 0.25)",CHN003A,CHN,A,English,Mon Aug 06 16:10:12 2018,Mouse
1,1,1,0,67,4,4,1,300,180,120,136,0,500,200,8000,"[(960, 540), (960, 540), (960, 540), (960, 540), (960, 540), (960, 540), (960, 540), (960, 540), (960, 540), (960, 540), (960, 540), (960, 540), (960, 540), (960, 540), (960, 540), (960, 540), (960, 540), (960, 531), (960, 523), (960, 514), (959, 503), (952, 462), (947, 429), (944, 398), (937, 362), (928, 293), (921, 250), (917, 221), (916, 189), (916, 131)]",263.8597658674357,"[6, 7, 3, 5, 1, 9, 4, 2, 8]","(0, 0.25)",CHN003A,CHN,A,English,Mon Aug 06 16:10:12 2018,Mouse
1,1,1,0,68,6,6,1,550,470,80,136,0,500,200,8000,"[(960, 540), (960, 540), (960, 540), (960, 540), (960, 540), (960, 540), (960, 540), (960, 540), (960, 540), (960, 540), (960, 540), (960, 540), (960, 540), (960, 540), (960, 540), (960, 540), (960, 540), (960, 540), (960, 540), (960, 540), (960, 540), (960, 540), (960, 540), (960, 540), (960, 540), (960, 540), (960, 540), (960, 540), (960, 540), (960, 540), (960, 540), (960, 540), (960, 540), (960, 540), (960, 540), (960, 540), (960, 540), (960, 540), (960, 540), (960, 540), (960, 540), (960, 540), (960, 540), (960, 540), (960, 540), (960, 540), (962, 541), (970, 545), (983, 553), (1002, 564), (1065, 591), (1116, 609), (1174, 623), (1232, 640), (1349, 665)]",17.814121020757213,"[6, 7, 3, 5, 1, 9, 4, 2, 8]","(0, 0.25)",CHN003A,CHN,A,English,Mon Aug 06 16:10:12 2018,Mouse
1,1,1,0,69,1,1,1,390,290,100,135,0,500,200,8000,"[(960, 540), (960, 540), (960, 540), (960, 540), (960, 540), (960, 540), (960, 540), (960, 540), (960, 540), (960, 540), (960, 540), (960, 540), (960, 540), (960, 540), (960, 540), (960, 540), (960, 540), (960, 540), (960, 540), (960, 540), (960, 540), (960, 540), (960, 540), (960, 540), (960, 540), (960, 540), (960, 540), (960, 540), (958, 538), (957, 537), (942, 533), (928, 531), (907, 529), (872, 524), (778, 524), (728, 524), (667, 524), (609, 524), (470, 524)]",181.87021809574844,"[6, 7, 3, 5, 1, 9, 4, 2, 8]","(0, 0.25)",CHN003A,CHN,A,English,Mon Aug 06 16:10:12 2018,Mouse
1,1,1,0,70,5,5,1,1709,999,710,134,0,500,200,8000,"[(960, 540), (960, 540), (960, 540), (960, 540), (960, 540), (960, 540), (960, 540), (960, 540), (960, 540), (960, 540), (960, 540), (960, 540), (960, 540), (960, 540), (960, 540), (960, 540), (960, 540), (960, 540), (960, 540), (960, 540), (960, 540), (960, 540), (960, 540), (960, 540), (960, 540), (960, 540), (960, 540), (960, 540), (960, 540), (960, 540), (960, 540), (960, 540), (960, 540), (960, 540), (960, 540), (960, 540), (960, 540), (960, 540), (960, 540), (960, 540), (960, 540), (960, 540), (960, 540), (960, 540), (960, 540), (960, 540), (960, 540), (960, 540), (960, 540), (960, 540), (960, 540), (960, 540), (960, 540), (960, 540), (960, 540), (960, 540), (960, 540), (960, 540), (960, 540), (960, 540), (960, 540), (960, 540), (960, 540), (960, 540), (960, 540), (960, 540), (960, 540), (960, 540), (960, 540), (960, 540), (960, 540), (960, 540), (960, 540), (960, 540), (960, 540), (960, 540), (960, 540), (960, 540), (960, 540), (960, 540), (960, 540), (960, 540), (960, 540), (960, 540), (960, 540), (960, 540), (960, 540), (960, 540), (960, 540), (960, 540), (960, 540), (960, 540), (960, 540), (960, 540), (960, 540), (960, 540), (960, 540), (960, 540), (960, 540), (959, 540), (959, 540), (959, 540), (959, 540), (959, 540), (959, 540), (959, 540), (959, 540), (959, 540), (959, 540), (959, 540), (959, 540), (959, 540), (959, 540), (959, 540), (959, 540), (959, 540), (959, 540), (959, 540), (959, 540), (959, 540), (959, 540), (959, 540), (959, 540), (959, 540), (959, 540), (959, 540), (959, 540), (959, 540), (959, 540), (959, 540), (959, 540), (959, 540), (959, 540), (959, 540), (959, 540), (959, 540), (959, 540), (959, 540), (959, 540), (959, 540), (959, 540), (959, 540), (959, 540), (959, 540), (959, 540), (958, 540), (955, 543), (954, 546), (951, 549), (949, 552), (942, 562), (939, 567), (934, 572), (930, 577), (919, 592), (912, 599), (903, 607), (891, 615), (861, 637), (845, 645), (827, 659), (812, 672), (774, 702), (760, 712), (740, 728), (723, 739), (691, 756), (677, 765), (666, 771), (650, 781), (627, 799)]",142.12501634890182,"[6, 7, 3, 5, 1, 9, 4, 2, 8]","(0, 0.25)",CHN003A,CHN,A,English,Mon Aug 06 16:10:12 2018,Mouse
1,1,1,0,71,6,6,1,469,69,400,133,0,500,200,8000,"[(960, 540), (960, 540), (960, 540), (960, 540), (960, 540), (960, 540), (959, 539), (959, 539), (959, 539), (959, 539), (959, 539), (959, 539), (959, 539), (959, 539), (959, 539), (959, 539), (958, 539), (958, 539), (958, 539), (958, 539), (958, 539), (957, 538), (957, 538), (957, 538), (957, 538), (957, 538), (957, 538), (957, 538), (957, 538), (957, 538), (957, 538), (957, 538), (957, 538), (956, 537), (956, 536), (959, 536), (962, 536), (966, 536), (985, 536), (1000, 536), (1020, 540), (1046, 543), (1130, 567), (1182, 579), (1234, 592), (1294, 606), (1394, 622)]",10.699343374304165,"[6, 7, 3, 5, 1, 9, 4, 2, 8]","(0, 0.25)",CHN003A,CHN,A,English,Mon Aug 06 16:10:12 2018,Mouse
1,1,1,0,72,6,6,1,308,228,80,132,0,500,200,8000,"[(960, 540), (960, 540), (960, 540), (960, 540), (960, 540), (960, 540), (960, 540), (960, 540), (960, 540), (960, 540), (960, 540), (960, 540), (960, 540), (960, 540), (960, 540), (960, 540), (960, 540), (960, 540), (960, 540), (960, 540), (960, 540), (960, 540), (978, 540), (998, 540), (1032, 547), (1073, 557), (1167, 584), (1217, 598), (1275, 615), (1330, 629), (1435, 659)]",14.064621761550985,"[6, 7, 3, 5, 1, 9, 4, 2, 8]","(0, 0.25)",CHN003A,CHN,A,English,Mon Aug 06 16:10:12 2018,Mouse
1,1,1,0,73,8,6,0,-270,190,80,131,0,500,200,8000,"[(960, 540), (960, 540), (960, 540), (960, 540), (960, 540), (960, 540), (960, 540), (960, 540), (960, 540), (960, 540), (960, 540), (960, 540), (960, 540), (960, 540), (960, 540), (960, 540), (960, 540), (960, 540), (968, 541), (980, 541), (1001, 544), (1034, 549), (1133, 559), (1185, 559), (1233, 559), (1289, 563), (1392, 579)]",5.1585517806060395,"[6, 7, 3, 5, 1, 9, 4, 2, 8]","(0, 0.25)",CHN003A,CHN,A,English,Mon Aug 06 16:10:12 2018,Mouse
1,1,1,0,74,2,2,1,1101,1031,70,132,0,500,200,8000,"[(960, 540), (960, 540), (960, 540), (960, 540), (960, 540), (960, 540), (960, 540), (960, 540), (960, 540), (960, 540), (960, 540), (960, 540), (960, 540), (960, 540), (960, 540), (960, 540), (960, 540), (960, 540), (960, 540), (960, 540), (960, 540), (960, 540), (960, 540), (960, 540), (960, 540), (960, 540), (960, 540), (960, 540), (960, 540), (960, 540), (960, 540), (960, 540), (960, 540), (960, 540), (960, 540), (960, 540), (960, 540), (960, 540), (960, 540), (960, 540), (960, 540), (960, 540), (960, 540), (960, 540), (960, 540), (960, 540), (960, 540), (960, 540), (960, 540), (960, 540), (960, 540), (960, 540), (960, 540), (960, 540), (960, 540), (960, 540), (960, 540), (960, 540), (960, 540), (960, 540), (960, 540), (960, 540), (960, 540), (960, 540), (960, 540), (960, 540), (960, 540), (960, 540), (960, 540), (960, 540), (960, 540), (960, 540), (960, 540), (960, 540), (960, 540), (960, 540), (960, 540), (960, 540), (960, 540), (960, 540), (960, 540), (960, 540), (960, 540), (960, 540), (960, 540), (960, 540), (960, 540), (960, 540), (960, 540), (960, 540), (960, 540), (960, 540), (960, 540), (960, 540), (960, 540), (960, 540), (960, 540), (960, 540), (960, 540), (960, 540), (960, 540), (960, 540), (960, 540), (964, 533), (969, 521), (979, 498), (995, 463), (1051, 357), (1092, 299), (1138, 243), (1186, 196)]",303.3039832112349,"[6, 7, 3, 5, 1, 9, 4, 2, 8]","(0, 0.25)",CHN003A,CHN,A,English,Mon Aug 06 16:10:12 2018,Mouse
1,1,1,0,75,3,6,0,-101,11,90,132,0,500,200,8000,"[(969, 546), (980, 552), (1001, 560), (1032, 568), (1110, 579), (1149, 579), (1185, 579), (1224, 579), (1301, 579), (1336, 576), (1370, 573)]",4.601691604524004,"[6, 7, 3, 5, 1, 9, 4, 2, 8]","(0, 0.25)",CHN003A,CHN,A,English,Mon Aug 06 16:10:12 2018,Mouse
1,1,1,0,76,3,3,1,871,381,490,133,0,500,200,8000,"[(960, 540), (960, 540), (960, 540), (960, 540), (960, 540), (960, 540), (960, 540), (960, 540), (960, 540), (960, 540), (960, 540), (960, 540), (960, 540), (960, 540), (960, 540), (960, 540), (960, 540), (960, 540), (960, 540), (960, 540), (960, 540), (960, 540), (960, 540), (960, 540), (960, 540), (960, 540), (960, 540), (960, 540), (960, 540), (960, 540), (960, 540), (960, 540), (960, 540), (960, 540), (960, 540), (960, 540), (960, 540), (960, 540), (958, 540), (958, 540), (957, 539), (955, 539), (954, 539), (953, 539), (951, 539), (951, 539), (950, 539), (950, 539), (950, 539), (950, 539), (950, 539), (950, 539), (950, 539), (949, 539), (949, 539), (949, 539), (948, 539), (948, 539), (948, 539), (947, 539), (947, 539), (946, 540), (945, 541), (945, 541), (944, 541), (943, 543), (942, 544), (941, 544), (941, 544), (940, 546), (940, 547), (939, 548), (939, 550), (937, 556), (936, 562), (935, 568), (935, 581), (935, 615), (935, 630), (935, 650), (935, 673), (935, 737), (935, 787), (935, 823), (932, 855), (924, 911), (919, 937), (913, 960)]",96.38510611835065,"[6, 7, 3, 5, 1, 9, 4, 2, 8]","(0, 0.25)",CHN003A,CHN,A,English,Mon Aug 06 16:10:12 2018,Mouse
1,1,1,0,77,8,9,0,-491,331,160,133,0,500,200,8000,"[(960, 540), (960, 540), (960, 540), (960, 540), (960, 540), (960, 540), (960, 540), (960, 540), (960, 540), (960, 540), (960, 540), (960, 540), (960, 540), (960, 540), (960, 540), (960, 540), (960, 540), (960, 540), (960, 540), (960, 540), (960, 540), (960, 540), (960, 540), (960, 540), (960, 540), (960, 540), (960, 540), (960, 540), (960, 540), (960, 540), (960, 540), (960, 540), (960, 540), (957, 535), (952, 529), (946, 522), (937, 513), (917, 493), (901, 479), (878, 461), (860, 446), (822, 418), (805, 405), (785, 391), (766, 378), (721, 347), (701, 334), (682, 320), (665, 311), (638, 294)]",217.37892869070294,"[6, 7, 3, 5, 1, 9, 4, 2, 8]","(0, 0.25)",CHN003A,CHN,A,English,Mon Aug 06 16:10:12 2018,Mouse
1,1,1,0,78,4,4,1,810,450,360,134,0,500,200,8000,"[(960, 540), (960, 540), (960, 540), (960, 540), (960, 540), (960, 540), (960, 540), (960, 540), (960, 540), (960, 540), (960, 540), (960, 540), (960, 540), (960, 540), (960, 540), (960, 540), (960, 540), (960, 540), (960, 540), (960, 540), (960, 540), (960, 540), (960, 540), (960, 540), (960, 540), (960, 540), (960, 540), (960, 540), (960, 540), (960, 540), (960, 540), (960, 540), (960, 540), (960, 540), (960, 540), (960, 540), (960, 540), (960, 540), (960, 540), (960, 540), (960, 540), (960, 540), (960, 540), (960, 540), (960, 538), (959, 534), (959, 517), (959, 508), (959, 501), (959, 493), (959, 477), (959, 471), (959, 464), (959, 459), (959, 453), (959, 450), (959, 450), (959, 448), (959, 447), (959, 447), (959, 445), (959, 445), (959, 445), (959, 445), (959, 445), (958, 444), (958, 442), (958, 438), (955, 434), (953, 428), (947, 405), (943, 393), (937, 375), (932, 355), (915, 294), (910, 267), (904, 245), (899, 213), (890, 170), (888, 154), (886, 142)]",259.46728817685795,"[6, 7, 3, 5, 1, 9, 4, 2, 8]","(0, 0.25)",CHN003A,CHN,A,English,Mon Aug 06 16:10:12 2018,Mouse
1,1,1,0,79,3,6,0,-231,91,140,134,0,500,200,8000,"[(960, 540), (960, 540), (960, 540), (960, 540), (960, 540), (960, 540), (960, 540), (960, 540), (960, 540), (963, 543), (972, 547), (985, 550), (1002, 553), (1053, 560), (1077, 563), (1098, 566), (1122, 571), (1163, 575), (1185, 581), (1213, 589), (1244, 597), (1305, 614), (1338, 623), (1364, 633)]",12.963539713326174,"[6, 7, 3, 5, 1, 9, 4, 2, 8]","(0, 0.25)",CHN003A,CHN,A,English,Mon Aug 06 16:10:12 2018,Mouse
1,1,1,0,80,3,2,0,-450,180,270,135,0,500,200,8000,"[(960, 540), (960, 540), (960, 540), (960, 540), (960, 540), (960, 540), (960, 540), (960, 540), (960, 540), (960, 540), (960, 540), (960, 540), (960, 540), (960, 540), (960, 540), (960, 540), (960, 540), (961, 539), (961, 539), (961, 539), (961, 537), (961, 536), (961, 536), (962, 535), (962, 535), (962, 535), (962, 535), (963, 534), (963, 534), (963, 534), (964, 533), (964, 533), (965, 532), (965, 531), (966, 529), (968, 527), (976, 515), (982, 501), (990, 482), (999, 459), (1030, 395), (1053, 357), (1077, 311), (1103, 267), (1159, 191)]",299.69181328539946,"[6, 7, 3, 5, 1, 9, 4, 2, 8]","(0, 0.25)",CHN003A,CHN,A,English,Mon Aug 06 16:10:12 2018,Mouse
1,1,1,0,81,8,8,1,469,369,100,136,0,500,200,8000,"[(960, 540), (960, 540), (960, 540), (960, 540), (960, 540), (960, 540), (960, 540), (960, 540), (960, 540), (960, 540), (960, 540), (960, 540), (960, 540), (960, 540), (960, 540), (960, 540), (960, 540), (960, 540), (960, 540), (960, 540), (960, 540), (960, 540), (960, 540), (960, 540), (960, 540), (960, 540), (960, 540), (960, 540), (960, 540), (960, 540), (960, 540), (960, 540), (960, 540), (960, 540), (960, 540), (960, 540), (962, 540), (963, 540), (976, 540), (984, 539), (995, 537), (1014, 536), (1079, 524), (1133, 518), (1187, 510), (1254, 490), (1375, 457)]",348.69006752597977,"[6, 7, 3, 5, 1, 9, 4, 2, 8]","(0, 0.25)",CHN003A,CHN,A,English,Mon Aug 06 16:10:12 2018,Mouse
1,1,1,0,82,8,8,1,129,29,100,136,0,500,200,8000,"[(960, 540), (960, 540), (963, 531), (970, 525), (980, 516), (994, 506), (1038, 476), (1071, 458), (1109, 439), (1154, 421), (1242, 384), (1288, 364), (1331, 345)]",332.273293921452,"[6, 7, 3, 5, 1, 9, 4, 2, 8]","(0, 0.25)",CHN003A,CHN,A,English,Mon Aug 06 16:10:12 2018,Mouse
1,1,1,0,83,7,7,1,600,380,220,135,0,500,200,8000,"[(960, 540), (960, 540), (960, 540), (960, 540), (960, 540), (960, 540), (960, 540), (960, 540), (960, 540), (960, 540), (960, 540), (960, 540), (960, 540), (960, 540), (960, 540), (960, 540), (960, 540), (960, 540), (960, 540), (960, 540), (960, 540), (960, 540), (960, 540), (960, 540), (960, 540), (960, 540), (960, 540), (960, 540), (960, 540), (960, 540), (960, 540), (960, 540), (960, 540), (960, 540), (960, 540), (960, 540), (960, 540), (961, 540), (961, 540), (961, 541), (961, 541), (961, 541), (961, 541), (962, 541), (962, 541), (962, 543), (964, 546), (967, 550), (975, 566), (981, 581), (1000, 609), (1020, 639), (1046, 688), (1060, 710), (1078, 740), (1101, 776), (1121, 825), (1138, 860), (1147, 883), (1160, 910)]",61.606980578617005,"[6, 7, 3, 5, 1, 9, 4, 2, 8]","(0, 0.25)",CHN003A,CHN,A,English,Mon Aug 06 16:10:12 2018,Mouse
1,1,1,0,84,8,8,1,179,59,120,134,0,500,200,8000,"[(960, 540), (960, 540), (960, 540), (960, 540), (960, 540), (960, 539), (960, 539), (969, 536), (977, 534), (986, 531), (1002, 526), (1059, 516), (1097, 507), (1144, 495), (1183, 480), (1281, 450), (1331, 430), (1377, 410)]",342.6851011289716,"[6, 7, 3, 5, 1, 9, 4, 2, 8]","(0, 0.25)",CHN003A,CHN,A,English,Mon Aug 06 16:10:12 2018,Mouse
1,1,1,0,85,2,6,0,-300,210,90,133,0,500,200,8000,"[(960, 540), (960, 540), (960, 540), (960, 540), (960, 540), (960, 540), (960, 540), (960, 540), (960, 540), (960, 540), (960, 540), (960, 540), (960, 540), (960, 540), (960, 540), (960, 540), (960, 540), (960, 540), (960, 540), (960, 540), (961, 542), (965, 546), (977, 560), (993, 578), (1050, 635), (1084, 663), (1121, 694), (1164, 729), (1242, 783), (1280, 802)]",39.30890185307607,"[6, 7, 3, 5, 1, 9, 4, 2, 8]","(0, 0.25)",CHN003A,CHN,A,English,Mon Aug 06 16:10:12 2018,Mouse
1,1,1,0,86,4,9,0,-1779,439,1340,134,0,500,200,8000,"[(960, 540), (960, 540), (960, 540), (960, 540), (960, 540), (960, 540), (960, 540), (960, 540), (960, 540), (960, 540), (960, 540), (960, 540), (960, 540), (960, 540), (960, 540), (960, 540), (960, 540), (960, 540), (960, 540), (960, 540), (960, 540), (960, 540), (960, 540), (960, 540), (960, 540), (960, 540), (960, 540), (960, 540), (960, 540), (960, 540), (960, 540), (960, 540), (960, 540), (960, 540), (960, 540), (960, 540), (960, 540), (960, 540), (960, 540), (960, 540), (960, 540), (960, 540), (960, 540), (960, 544), (962, 549), (968, 564), (974, 575), (980, 586), (989, 603), (999, 627), (1004, 636), (1006, 642), (1008, 647), (1009, 650), (1009, 650), (1009, 650), (1009, 650), (1009, 650), (1009, 650), (1009, 650), (1009, 650), (1009, 650), (1009, 650), (1009, 650), (1009, 650), (1009, 650), (1009, 650), (1009, 650), (1009, 650), (1009, 650), (1009, 650), (1009, 650), (1009, 650), (1009, 650), (1009, 650), (1009, 650), (1009, 650), (1009, 650), (1009, 650), (1009, 650), (1009, 650), (1009, 650), (1009, 650), (1009, 650), (1009, 650), (1009, 650), (1009, 650), (1009, 650), (1009, 650), (1009, 650), (1009, 650), (1009, 650), (1009, 650), (1009, 650), (1009, 650), (1009, 650), (1009, 650), (1009, 650), (1009, 650), (1009, 650), (1009, 650), (1009, 650), (1009, 650), (1009, 650), (1009, 650), (1009, 650), (1009, 650), (1009, 650), (1009, 650), (1009, 650), (1009, 650), (1009, 650), (1009, 650), (1009, 650), (1009, 650), (1009, 650), (1009, 650), (1009, 650), (1009, 650), (1009, 650), (1009, 650), (1009, 650), (1009, 650), (1009, 650), (1009, 650), (1009, 650), (1009, 650), (1009, 650), (1009, 650), (1009, 650), (1009, 650), (1009, 650), (1009, 650), (1009, 650), (1009, 650), (1009, 650), (1009, 650), (1009, 650), (1009, 650), (1009, 650), (1009, 650), (1009, 650), (1009, 650), (1009, 650), (1009, 650), (1009, 650), (1009, 650), (1009, 650), (1009, 650), (1009, 650), (1009, 650), (1009, 650), (1009, 650), (1009, 650), (1009, 650), (1009, 650), (1009, 650), (1009, 650), (1009, 650), (1009, 650), (1009, 650), (1009, 650), (1009, 650), (1009, 650), (1009, 650), (1009, 648), (1006, 641), (1001, 631), (995, 619), (964, 576), (934, 537), (903, 500), (864, 454), (785, 373), (747, 336), (715, 305), (680, 275), (624, 223)]",223.33336484475726,"[6, 7, 3, 5, 1, 9, 4, 2, 8]","(0, 0.25)",CHN003A,CHN,A,English,Mon Aug 06 16:10:12 2018,Mouse
1,1,1,0,87,7,7,1,511,411,100,135,0,500,200,8000,"[(960, 540), (960, 540), (960, 540), (960, 540), (960, 540), (960, 540), (960, 540), (960, 540), (960, 540), (960, 540), (960, 540), (960, 540), (960, 540), (960, 540), (960, 540), (960, 540), (960, 540), (960, 540), (960, 540), (960, 540), (960, 540), (960, 540), (960, 540), (960, 540), (960, 540), (960, 540), (960, 540), (960, 540), (960, 540), (960, 540), (960, 540), (960, 540), (960, 540), (960, 540), (960, 540), (960, 540), (960, 540), (960, 540), (960, 540), (960, 540), (960, 540), (960, 543), (961, 548), (973, 567), (983, 582), (1002, 607), (1019, 635), (1067, 712), (1089, 753), (1110, 796), (1133, 829), (1167, 897)]",59.893472958841606,"[6, 7, 3, 5, 1, 9, 4, 2, 8]","(0, 0.25)",CHN003A,CHN,A,English,Mon Aug 06 16:10:12 2018,Mouse
1,1,1,0,88,3,3,1,910,830,80,135,0,500,200,8000,"[(960, 540), (960, 540), (960, 540), (960, 540), (960, 540), (960, 540), (960, 540), (960, 540), (960, 540), (960, 540), (960, 540), (960, 540), (960, 540), (960, 540), (960, 540), (960, 540), (960, 540), (960, 540), (960, 540), (960, 540), (960, 540), (960, 540), (960, 540), (960, 540), (960, 540), (960, 540), (960, 540), (960, 540), (960, 540), (960, 540), (960, 540), (960, 540), (960, 540), (960, 540), (960, 540), (960, 540), (960, 540), (960, 540), (960, 540), (960, 540), (960, 540), (960, 540), (960, 540), (960, 540), (960, 540), (960, 540), (960, 540), (960, 540), (960, 540), (960, 540), (960, 540), (960, 540), (960, 540), (960, 540), (960, 540), (960, 540), (960, 540), (960, 540), (960, 540), (960, 540), (960, 540), (960, 540), (960, 540), (960, 540), (960, 540), (960, 540), (960, 540), (960, 540), (960, 540), (960, 540), (960, 540), (960, 540), (960, 540), (960, 540), (960, 540), (960, 540), (960, 540), (960, 540), (960, 540), (960, 540), (960, 540), (960, 540), (960, 545), (960, 566), (960, 599), (960, 649), (960, 749), (960, 801), (958, 852), (946, 901), (922, 985)]",94.88083259733634,"[6, 7, 3, 5, 1, 9, 4, 2, 8]","(0, 0.25)",CHN003A,CHN,A,English,Mon Aug 06 16:10:12 2018,Mouse
1,1,1,0,89,6,6,1,350,230,120,134,0,500,200,8000,"[(960, 540), (960, 540), (960, 540), (960, 540), (960, 540), (960, 540), (960, 540), (960, 540), (960, 540), (960, 540), (960, 540), (960, 540), (960, 540), (960, 540), (960, 540), (960, 540), (960, 540), (960, 540), (960, 540), (960, 540), (960, 540), (960, 540), (962, 540), (969, 541), (979, 543), (989, 547), (1017, 555), (1039, 561), (1065, 569), (1098, 577), (1170, 597), (1217, 611), (1259, 622), (1308, 634), (1399, 660)]",15.288244029592365,"[6, 7, 3, 5, 1, 9, 4, 2, 8]","(0, 0.25)",CHN003A,CHN,A,English,Mon Aug 06 16:10:12 2018,Mouse
1,1,1,0,90,9,9,1,350,250,100,133,0,500,200,8000,"[(960, 540), (960, 540), (960, 540), (960, 540), (960, 540), (960, 540), (960, 540), (960, 540), (960, 540), (960, 540), (960, 540), (960, 540), (960, 540), (960, 540), (960, 540), (960, 540), (960, 540), (960, 540), (960, 540), (960, 540), (960, 540), (960, 540), (960, 540), (960, 540), (959, 538), (953, 529), (935, 505), (924, 493), (909, 475), (887, 451), (843, 403), (814, 378), (777, 349), (746, 323), (671, 258)]",224.2976350851174,"[6, 7, 3, 5, 1, 9, 4, 2, 8]","(0, 0.25)",CHN003A,CHN,A,English,Mon Aug 06 16:10:12 2018,Mouse
1,1,1,0,91,1,6,0,-2190,1670,520,132,0,500,200,8000,"[(960, 540), (960, 540), (960, 540), (960, 540), (960, 540), (960, 540), (960, 540), (960, 540), (960, 540), (960, 540), (960, 540), (960, 540), (960, 540), (960, 540), (960, 540), (960, 540), (960, 540), (960, 540), (960, 540), (960, 540), (960, 540), (960, 540), (960, 540), (960, 540), (960, 540), (960, 540), (960, 540), (960, 540), (960, 540), (960, 540), (960, 540), (960, 540), (960, 540), (960, 540), (960, 540), (960, 540), (960, 540), (960, 540), (960, 540), (960, 540), (960, 540), (960, 540), (960, 540), (960, 540), (960, 540), (960, 540), (960, 540), (960, 540), (960, 540), (960, 540), (960, 540), (960, 540), (960, 540), (960, 540), (960, 540), (960, 540), (960, 540), (960, 540), (960, 540), (960, 540), (960, 540), (960, 540), (960, 540), (960, 540), (960, 540), (960, 540), (960, 540), (960, 540), (960, 540), (960, 540), (960, 540), (960, 540), (960, 540), (960, 540), (960, 540), (960, 540), (960, 540), (960, 540), (960, 540), (960, 540), (960, 540), (960, 540), (960, 540), (960, 540), (960, 540), (960, 540), (960, 540), (960, 540), (960, 540), (960, 540), (960, 540), (960, 540), (960, 540), (960, 540), (960, 540), (960, 540), (960, 540), (960, 540), (960, 540), (960, 540), (960, 540), (960, 540), (960, 540), (960, 540), (960, 540), (960, 540), (960, 540), (960, 540), (960, 540), (960, 540), (960, 540), (960, 540), (960, 540), (960, 540), (960, 540), (960, 540), (960, 540), (960, 540), (960, 540), (960, 540), (960, 540), (960, 540), (960, 540), (960, 540), (960, 540), (960, 540), (960, 540), (960, 540), (960, 540), (960, 540), (960, 540), (960, 540), (960, 540), (960, 540), (960, 540), (960, 540), (960, 540), (960, 540), (960, 540), (960, 540), (960, 540), (960, 540), (960, 540), (960, 540), (960, 540), (960, 540), (960, 540), (960, 540), (960, 540), (960, 540), (960, 540), (960, 540), (960, 540), (960, 540), (960, 540), (960, 540), (960, 540), (960, 540), (960, 540), (960, 540), (960, 540), (960, 540), (960, 540), (960, 540), (960, 540), (960, 540), (961, 540), (962, 541), (963, 541), (964, 541), (967, 542), (970, 543), (972, 543), (973, 544), (979, 545), (981, 545), (984, 547), (989, 549), (998, 552), (1004, 553), (1012, 558), (1018, 560), (1030, 565), (1036, 568), (1041, 570), (1047, 573), (1059, 578), (1062, 578), (1065, 579), (1069, 582), (1073, 583), (1076, 585), (1078, 586), (1079, 587), (1084, 590), (1087, 592), (1092, 595), (1094, 595), (1101, 598), (1103, 599), (1106, 600), (1108, 602), (1113, 608), (1120, 612), (1128, 616), (1138, 620), (1159, 628), (1171, 634), (1184, 640), (1198, 644), (1220, 655), (1232, 660), (1243, 664), (1257, 670), (1291, 686), (1303, 689), (1313, 695), (1325, 701), (1351, 711)]",23.62169011772655,"[6, 7, 3, 5, 1, 9, 4, 2, 8]","(0, 0.25)",CHN003A,CHN,A,English,Mon Aug 06 16:10:12 2018,Mouse
1,1,1,0,92,9,9,1,448,308,140,133,0,500,200,8000,"[(960, 540), (960, 540), (960, 540), (960, 540), (960, 540), (960, 540), (960, 540), (960, 540), (960, 540), (960, 540), (960, 540), (960, 540), (960, 540), (960, 540), (960, 540), (960, 540), (960, 540), (960, 540), (960, 540), (960, 540), (960, 540), (960, 540), (960, 540), (960, 540), (960, 540), (960, 540), (960, 540), (960, 540), (960, 540), (960, 540), (958, 540), (956, 540), (954, 539), (951, 538), (940, 531), (931, 525), (922, 518), (906, 505), (860, 465), (828, 437), (794, 408), (762, 380), (701, 327), (670, 303), (646, 281)]",219.51720219272875,"[6, 7, 3, 5, 1, 9, 4, 2, 8]","(0, 0.25)",CHN003A,CHN,A,English,Mon Aug 06 16:10:12 2018,Mouse
1,1,1,0,93,6,6,1,356,246,110,133,0,500,200,8000,"[(960, 540), (960, 540), (960, 540), (960, 540), (960, 540), (960, 540), (960, 540), (960, 540), (960, 540), (960, 540), (960, 540), (960, 540), (960, 540), (960, 540), (960, 540), (960, 540), (960, 540), (960, 540), (960, 540), (960, 540), (960, 540), (960, 540), (960, 540), (960, 540), (965, 545), (972, 549), (979, 553), (990, 559), (1033, 578), (1062, 590), (1097, 606), (1140, 624), (1231, 649), (1281, 665), (1320, 676), (1367, 688)]",19.98310652189998,"[6, 7, 3, 5, 1, 9, 4, 2, 8]","(0, 0.25)",CHN003A,CHN,A,English,Mon Aug 06 16:10:12 2018,Mouse
1,1,1,0,94,3,5,0,-1538,1228,310,132,0,500,200,8000,"[(960, 540), (960, 540), (960, 540), (960, 540), (960, 540), (960, 540), (960, 540), (960, 540), (960, 540), (960, 540), (960, 540), (960, 540), (960, 540), (960, 540), (960, 540), (960, 540), (960, 540), (960, 540), (960, 540), (960, 540), (960, 540), (960, 540), (960, 540), (960, 540), (960, 540), (960, 540), (960, 540), (960, 540), (960, 540), (960, 540), (960, 540), (960, 540), (960, 540), (960, 540), (960, 540), (960, 540), (960, 540), (960, 540), (960, 540), (960, 540), (960, 540), (960, 540), (960, 540), (960, 540), (960, 540), (960, 540), (960, 540), (960, 540), (960, 540), (960, 540), (960, 540), (960, 540), (960, 540), (960, 540), (960, 540), (960, 540), (960, 540), (960, 540), (960, 540), (960, 540), (960, 540), (960, 540), (960, 540), (960, 540), (960, 540), (960, 540), (960, 540), (960, 540), (960, 540), (960, 540), (960, 540), (960, 540), (960, 540), (960, 540), (960, 540), (960, 540), (960, 540), (960, 540), (960, 540), (960, 540), (960, 540), (960, 540), (960, 540), (960, 540), (960, 540), (960, 540), (960, 540), (960, 540), (960, 540), (960, 540), (960, 540), (960, 540), (960, 540), (960, 540), (960, 540), (960, 540), (960, 540), (960, 540), (960, 540), (960, 540), (960, 540), (960, 540), (960, 540), (960, 540), (960, 540), (960, 540), (960, 540), (960, 540), (960, 540), (960, 540), (960, 540), (960, 540), (960, 540), (960, 540), (960, 540), (960, 540), (960, 540), (960, 540), (960, 540), (960, 540), (960, 540), (960, 540), (958, 540), (956, 541), (954, 542), (952, 546), (949, 548), (939, 562), (930, 570), (918, 579), (907, 589), (885, 613), (868, 626), (848, 639), (829, 653), (792, 679), (776, 693), (764, 703), (754, 712), (737, 728), (730, 735), (722, 743), (717, 748), (708, 757), (703, 761), (698, 764), (695, 768), (684, 774), (679, 776), (673, 781), (667, 784), (656, 791), (651, 793), (646, 797)]",140.70065802757443,"[6, 7, 3, 5, 1, 9, 4, 2, 8]","(0, 0.25)",CHN003A,CHN,A,English,Mon Aug 06 16:10:12 2018,Mouse
1,1,1,0,95,3,3,1,887,637,250,133,0,500,200,8000,"[(960, 540), (960, 540), (960, 540), (960, 540), (960, 540), (960, 540), (960, 540), (960, 540), (960, 540), (960, 540), (960, 540), (960, 540), (960, 540), (960, 540), (960, 540), (960, 540), (960, 540), (960, 540), (960, 540), (960, 540), (960, 540), (960, 540), (960, 540), (960, 540), (960, 540), (960, 540), (960, 540), (960, 540), (960, 540), (960, 540), (960, 540), (960, 540), (960, 540), (960, 540), (960, 540), (960, 540), (960, 540), (960, 540), (960, 540), (960, 540), (960, 540), (960, 540), (960, 540), (960, 540), (960, 540), (960, 540), (960, 540), (960, 540), (960, 540), (960, 540), (960, 540), (960, 540), (960, 540), (960, 540), (960, 540), (960, 540), (960, 540), (960, 540), (960, 540), (960, 540), (960, 540), (960, 540), (960, 540), (961, 542), (961, 547), (962, 550), (962, 553), (962, 555), (963, 560), (963, 561), (963, 562), (963, 564), (963, 568), (963, 571), (963, 575), (963, 582), (963, 605), (963, 619), (965, 636), (968, 655), (973, 699), (975, 728), (975, 756), (975, 781), (975, 834), (977, 865), (977, 888), (975, 911), (964, 948)]",89.43829466743345,"[6, 7, 3, 5, 1, 9, 4, 2, 8]","(0, 0.25)",CHN003A,CHN,A,English,Mon Aug 06 16:10:12 2018,Mouse
1,1,1,0,96,9,9,1,347,17,330,133,0,500,200,8000,"[(960, 540), (959, 539), (957, 537), (956, 537), (954, 534), (952, 533), (948, 530), (944, 526), (939, 522), (935, 519), (919, 506), (908, 497), (898, 488), (886, 480), (866, 464), (857, 459), (850, 451), (842, 444), (828, 431), (819, 422), (812, 415), (801, 403), (779, 380), (769, 371), (758, 363), (747, 355), (727, 339), (718, 331), (707, 323), (697, 315), (680, 303), (672, 298), (660, 290), (654, 287), (641, 279)]",219.28940686250033,"[6, 7, 3, 5, 1, 9, 4, 2, 8]","(0, 0.25)",CHN003A,CHN,A,English,Mon Aug 06 16:10:12 2018,Mouse
1,1,1,0,97,6,6,1,275,25,250,132,0,500,200,8000,"[(960, 540), (960, 540), (960, 541), (960, 541), (960, 541), (960, 541), (960, 541), (960, 541), (961, 542), (961, 542), (961, 542), (961, 542), (963, 543), (964, 543), (971, 546), (977, 549), (988, 554), (1003, 561), (1033, 570), (1054, 577), (1078, 583), (1101, 591), (1151, 605), (1182, 613), (1211, 625), (1247, 638), (1314, 657), (1350, 668)]",18.170101189194654,"[6, 7, 3, 5, 1, 9, 4, 2, 8]","(0, 0.25)",CHN003A,CHN,A,English,Mon Aug 06 16:10:12 2018,Mouse
1,1,1,0,98,9,8,0,-660,550,110,131,0,500,200,8000,"[(960, 540), (960, 540), (960, 540), (960, 540), (960, 540), (960, 540), (960, 540), (960, 540), (960, 540), (960, 540), (960, 540), (960, 540), (960, 540), (960, 540), (960, 540), (960, 540), (960, 540), (960, 540), (960, 540), (960, 540), (960, 540), (960, 540), (960, 540), (960, 540), (960, 540), (960, 540), (960, 540), (960, 540), (960, 540), (960, 540), (960, 540), (960, 540), (960, 540), (960, 540), (960, 540), (960, 540), (960, 540), (960, 540), (960, 540), (960, 540), (960, 540), (960, 540), (960, 540), (960, 540), (960, 540), (960, 540), (960, 540), (960, 540), (960, 540), (960, 540), (960, 540), (960, 540), (960, 540), (960, 540), (962, 540), (965, 540), (973, 538), (994, 532), (1011, 522), (1029, 516), (1058, 502), (1135, 470), (1183, 454), (1223, 437), (1271, 417), (1353, 382)]",338.09811577312786,"[6, 7, 3, 5, 1, 9, 4, 2, 8]","(0, 0.25)",CHN003A,CHN,A,English,Mon Aug 06 16:10:12 2018,Mouse
1,1,1,0,99,3,5,0,-1090,420,670,132,0,500,200,8000,"[(960, 540), (960, 540), (960, 540), (960, 540), (960, 540), (960, 540), (960, 540), (960, 540), (960, 540), (960, 540), (960, 540), (960, 540), (960, 540), (960, 540), (960, 540), (960, 540), (960, 540), (960, 540), (960, 540), (960, 540), (960, 540), (960, 540), (960, 540), (960, 540), (960, 540), (960, 540), (960, 540), (960, 540), (960, 540), (960, 540), (960, 540), (960, 540), (960, 540), (960, 540), (960, 540), (960, 540), (960, 540), (960, 540), (960, 540), (960, 540), (960, 540), (959, 540), (957, 542), (957, 542), (955, 542), (955, 542), (954, 542), (954, 542), (954, 542), (954, 542), (954, 542), (954, 542), (954, 542), (954, 542), (954, 542), (954, 542), (954, 542), (954, 542), (954, 542), (954, 542), (954, 542), (954, 542), (954, 542), (954, 542), (954, 542), (954, 542), (954, 542), (954, 542), (954, 542), (954, 542), (954, 542), (954, 542), (953, 542), (953, 542), (953, 542), (952, 542), (951, 542), (951, 542), (951, 542), (951, 542), (950, 542), (949, 542), (949, 542), (949, 542), (949, 542), (948, 542), (948, 542), (948, 542), (948, 541), (948, 541), (948, 541), (948, 541), (948, 541), (948, 541), (946, 541), (945, 541), (945, 541), (942, 541), (936, 542), (930, 545), (922, 549), (912, 556), (878, 580), (850, 599), (816, 625), (787, 651), (709, 710), (664, 742), (622, 772)]",145.53466477765463,"[6, 7, 3, 5, 1, 9, 4, 2, 8]","(0, 0.25)",CHN003A,CHN,A,English,Mon Aug 06 16:10:12 2018,Mouse
1,1,1,0,100,1,1,1,550,460,90,133,0,500,200,8000,"[(960, 540), (960, 540), (960, 540), (960, 540), (960, 540), (960, 540), (960, 540), (960, 540), (960, 540), (960, 540), (960, 540), (960, 540), (960, 540), (960, 540), (960, 540), (960, 540), (960, 540), (960, 540), (960, 540), (960, 540), (960, 540), (960, 540), (960, 540), (960, 540), (960, 540), (960, 540), (960, 540), (960, 540), (960, 540), (960, 540), (960, 540), (960, 540), (960, 540), (960, 540), (960, 540), (960, 540), (960, 540), (960, 540), (960, 540), (960, 540), (960, 540), (960, 540), (960, 540), (960, 540), (960, 540), (959, 541), (956, 541), (945, 541), (895, 534), (849, 526), (800, 518), (741, 514), (629, 506), (568, 506), (521, 506)]",184.42864566555008,"[6, 7, 3, 5, 1, 9, 4, 2, 8]","(0, 0.25)",CHN003A,CHN,A,English,Mon Aug 06 16:10:12 2018,Mouse
