NativeLangNumber,LanuageNumber,SessionNumber,Block,TrialNum,ConditionNumber,Response,Accuracy,RT,MovementOnsetTime,TimeInMotion,SignalContrast,SignalContrastNumber,StimDisplayTime,MaskTime,MaxResponseTime,MousePositionXY,MouseAngle,WheelOrder,NoiseMuSigma,ParticipantID,LanuageTested,SessionTested,NativeLanuage,Date,ResponseDevice
2,1,1,0,1,8,8,1,75,15,60,153,0,500,200,8000,"[(492, 351), (475, 311), (461, 270), (451, 200), (451, 177), (451, 160), (457, 148), (489, 115)]",265.1129902,"[9, 5, 7, 6, 2, 1, 8, 4, 3]","(0, 0.25)",CHN001A,CHN,A,Chinese,Tue Aug 14 17:52:11 2018,Mouse
2,1,1,0,2,3,3,1,773,663,110,153,0,500,200,8000,"[(512, 384), (512, 384), (512, 384), (512, 384), (512, 384), (512, 384), (512, 384), (512, 384), (512, 384), (512, 384), (512, 384), (512, 384), (512, 384), (512, 384), (512, 384), (512, 384), (512, 384), (512, 384), (512, 384), (512, 384), (512, 384), (512, 384), (512, 384), (512, 384), (512, 384), (512, 384), (512, 384), (512, 384), (512, 384), (512, 384), (512, 384), (512, 384), (512, 384), (512, 384), (512, 384), (512, 384), (512, 384), (512, 384), (512, 384), (512, 384), (512, 384), (512, 384), (512, 384), (512, 384), (512, 384), (512, 384), (512, 384), (512, 384), (512, 384), (512, 384), (512, 384), (512, 384), (512, 384), (512, 384), (512, 384), (512, 384), (512, 384), (512, 384), (512, 384), (512, 384), (512, 384), (512, 384), (512, 384), (512, 384), (512, 384), (512, 384), (514, 382), (522, 380), (539, 374), (549, 369), (559, 366), (570, 364), (594, 353), (609, 347), (630, 338), (664, 324), (734, 302), (768, 292)]",340.2328313,"[9, 5, 7, 6, 2, 1, 8, 4, 3]","(0, 0.25)",CHN001A,CHN,A,Chinese,Tue Aug 14 17:52:11 2018,Mouse
2,1,1,0,3,7,7,1,661,521,140,152,0,500,200,8000,"[(512, 384), (512, 384), (512, 384), (512, 384), (512, 384), (512, 384), (512, 384), (512, 384), (512, 384), (512, 384), (512, 384), (512, 384), (512, 384), (512, 384), (512, 384), (512, 384), (512, 384), (512, 384), (512, 384), (512, 384), (512, 384), (512, 384), (512, 384), (512, 384), (512, 384), (512, 384), (512, 384), (512, 384), (512, 384), (512, 384), (512, 384), (512, 384), (512, 384), (512, 384), (512, 384), (512, 384), (512, 384), (512, 384), (512, 384), (512, 384), (512, 384), (512, 384), (512, 384), (512, 384), (512, 384), (512, 384), (512, 384), (512, 384), (512, 384), (512, 384), (512, 384), (512, 384), (512, 383), (512, 383), (512, 383), (512, 383), (512, 383), (512, 383), (512, 383), (512, 388), (512, 405), (512, 433), (512, 464), (511, 539), (504, 577), (501, 606), (496, 636)]",93.63295074,"[9, 5, 7, 6, 2, 1, 8, 4, 3]","(0, 0.25)",CHN001A,CHN,A,Chinese,Tue Aug 14 17:52:11 2018,Mouse
2,1,1,0,4,5,5,1,651,541,110,151,0,500,200,8000,"[(512, 384), (512, 384), (512, 384), (512, 384), (512, 384), (512, 384), (512, 384), (512, 384), (512, 384), (512, 384), (512, 384), (512, 384), (512, 384), (512, 384), (512, 384), (512, 384), (512, 384), (512, 384), (512, 384), (512, 384), (512, 384), (512, 384), (512, 384), (512, 384), (512, 384), (512, 384), (512, 384), (512, 384), (512, 384), (512, 384), (512, 384), (512, 384), (512, 384), (512, 384), (512, 384), (512, 384), (512, 384), (512, 384), (512, 384), (512, 384), (512, 384), (512, 384), (512, 384), (512, 384), (512, 384), (512, 384), (512, 384), (512, 384), (512, 384), (512, 384), (512, 384), (512, 384), (512, 384), (512, 384), (514, 391), (518, 397), (521, 406), (535, 429), (547, 448), (557, 464), (573, 487), (603, 532), (618, 556), (626, 575), (636, 593), (655, 624)]",59.21210473,"[9, 5, 7, 6, 2, 1, 8, 4, 3]","(0, 0.25)",CHN001A,CHN,A,Chinese,Tue Aug 14 17:52:11 2018,Mouse
2,1,1,0,5,4,4,1,370,280,90,150,0,500,200,8000,"[(512, 384), (512, 384), (512, 384), (512, 384), (512, 384), (512, 384), (512, 384), (512, 384), (512, 384), (512, 384), (512, 384), (512, 384), (512, 384), (512, 384), (512, 384), (512, 384), (512, 384), (512, 384), (512, 384), (512, 384), (512, 384), (512, 384), (512, 384), (512, 384), (512, 384), (512, 384), (512, 384), (517, 378), (533, 340), (539, 318), (545, 298), (556, 272), (580, 231), (596, 209), (605, 195), (617, 182), (632, 164)]",298.6104597,"[9, 5, 7, 6, 2, 1, 8, 4, 3]","(0, 0.25)",CHN001A,CHN,A,Chinese,Tue Aug 14 17:52:11 2018,Mouse
2,1,1,0,6,3,3,1,492,392,100,149,0,500,200,8000,"[(512, 384), (512, 384), (512, 384), (512, 384), (512, 384), (512, 384), (512, 384), (512, 384), (512, 384), (512, 384), (512, 384), (512, 384), (512, 384), (512, 384), (512, 384), (512, 384), (512, 384), (512, 384), (512, 384), (512, 384), (512, 384), (512, 384), (512, 384), (512, 384), (512, 384), (512, 384), (512, 384), (512, 384), (512, 384), (512, 384), (512, 384), (512, 384), (512, 384), (512, 384), (512, 384), (512, 384), (512, 384), (512, 384), (512, 384), (521, 380), (532, 378), (546, 373), (560, 370), (607, 357), (625, 348), (649, 344), (675, 336), (727, 323), (752, 315), (785, 308)]",344.4434207,"[9, 5, 7, 6, 2, 1, 8, 4, 3]","(0, 0.25)",CHN001A,CHN,A,Chinese,Tue Aug 14 17:52:11 2018,Mouse
2,1,1,0,7,9,9,1,633,533,100,148,0,500,200,8000,"[(512, 384), (512, 384), (512, 384), (512, 384), (512, 384), (512, 384), (512, 384), (512, 384), (512, 384), (512, 384), (512, 384), (512, 384), (512, 384), (512, 384), (512, 384), (512, 384), (512, 384), (512, 384), (512, 384), (512, 384), (512, 384), (512, 384), (512, 384), (512, 384), (512, 384), (512, 384), (512, 384), (512, 384), (512, 384), (512, 384), (512, 384), (512, 384), (512, 384), (512, 384), (512, 384), (512, 384), (512, 384), (512, 384), (512, 384), (512, 384), (512, 384), (512, 384), (512, 384), (512, 384), (512, 384), (512, 384), (512, 384), (512, 384), (512, 384), (512, 384), (512, 384), (512, 384), (512, 384), (516, 384), (522, 384), (529, 384), (540, 384), (561, 389), (580, 398), (603, 401), (640, 412), (708, 428), (744, 437), (780, 446)]",13.02584065,"[9, 5, 7, 6, 2, 1, 8, 4, 3]","(0, 0.25)",CHN001A,CHN,A,Chinese,Tue Aug 14 17:52:11 2018,Mouse
2,1,1,0,8,9,9,1,341,81,260,147,0,500,200,8000,"[(512, 384), (512, 384), (512, 384), (512, 384), (512, 384), (512, 384), (512, 384), (512, 384), (513, 383), (517, 383), (527, 384), (530, 384), (533, 385), (535, 385), (538, 385), (540, 386), (540, 386), (540, 386), (540, 386), (540, 386), (540, 386), (541, 386), (553, 388), (560, 390), (570, 394), (580, 396), (602, 403), (612, 406), (622, 412), (633, 416), (656, 425), (672, 431), (690, 440), (714, 451), (774, 473)]",18.76234971,"[9, 5, 7, 6, 2, 1, 8, 4, 3]","(0, 0.25)",CHN001A,CHN,A,Chinese,Tue Aug 14 17:52:11 2018,Mouse
2,1,1,0,9,4,1,0,-583,523,60,146,0,500,200,8000,"[(512, 384), (512, 384), (512, 384), (512, 384), (512, 384), (512, 384), (512, 384), (512, 384), (512, 384), (512, 384), (512, 384), (512, 384), (512, 384), (512, 384), (512, 384), (512, 384), (512, 384), (512, 384), (512, 384), (512, 384), (512, 384), (512, 384), (512, 384), (512, 384), (512, 384), (512, 384), (512, 384), (512, 384), (512, 384), (512, 384), (512, 384), (512, 384), (512, 384), (512, 384), (512, 384), (512, 384), (512, 384), (512, 384), (512, 384), (512, 384), (512, 384), (512, 384), (512, 384), (512, 384), (512, 384), (512, 384), (512, 384), (512, 384), (512, 384), (512, 384), (512, 384), (512, 384), (503, 370), (495, 359), (481, 338), (461, 305), (404, 229), (379, 200), (348, 165)]",233.1719852,"[9, 5, 7, 6, 2, 1, 8, 4, 3]","(0, 0.25)",CHN001A,CHN,A,Chinese,Tue Aug 14 17:52:11 2018,Mouse
2,1,1,0,10,5,2,0,-392,272,120,147,0,500,200,8000,"[(512, 384), (512, 384), (512, 384), (512, 384), (512, 384), (512, 384), (512, 384), (512, 384), (512, 384), (512, 384), (512, 384), (512, 384), (512, 384), (512, 384), (512, 384), (512, 384), (512, 384), (512, 384), (512, 384), (512, 384), (512, 384), (512, 384), (512, 384), (512, 384), (512, 384), (512, 384), (512, 384), (511, 384), (510, 385), (510, 385), (509, 385), (508, 386), (505, 386), (501, 387), (480, 390), (461, 392), (431, 397), (387, 397), (295, 397), (245, 397)]",177.2125192,"[9, 5, 7, 6, 2, 1, 8, 4, 3]","(0, 0.25)",CHN001A,CHN,A,Chinese,Tue Aug 14 17:52:11 2018,Mouse
2,1,1,0,11,5,5,1,1011,851,160,148,0,500,200,8000,"[(512, 384), (512, 384), (512, 384), (512, 384), (512, 384), (512, 384), (512, 384), (512, 384), (512, 384), (512, 384), (512, 384), (512, 384), (512, 384), (512, 384), (512, 384), (512, 384), (512, 384), (512, 384), (512, 384), (512, 384), (512, 384), (512, 384), (512, 384), (512, 384), (512, 384), (512, 384), (512, 384), (512, 384), (512, 384), (512, 384), (512, 384), (512, 384), (512, 384), (512, 384), (512, 384), (512, 384), (512, 384), (512, 384), (512, 384), (512, 384), (512, 384), (512, 384), (512, 384), (512, 384), (512, 384), (512, 384), (512, 384), (512, 384), (512, 384), (512, 384), (512, 384), (512, 384), (512, 384), (512, 384), (512, 384), (512, 384), (512, 384), (512, 384), (512, 384), (512, 384), (512, 384), (512, 384), (512, 384), (512, 384), (512, 384), (512, 384), (512, 384), (512, 384), (512, 384), (512, 384), (512, 384), (512, 384), (512, 384), (512, 384), (512, 384), (512, 384), (512, 384), (512, 384), (512, 384), (512, 384), (512, 384), (512, 384), (512, 384), (512, 384), (512, 384), (511, 385), (512, 386), (515, 390), (524, 400), (532, 407), (538, 416), (548, 428), (564, 455), (573, 471), (580, 487), (586, 502), (601, 535), (606, 548), (614, 564), (620, 575), (632, 596), (638, 606)]",60.42216132,"[9, 5, 7, 6, 2, 1, 8, 4, 3]","(0, 0.25)",CHN001A,CHN,A,Chinese,Tue Aug 14 17:52:11 2018,Mouse
2,1,1,0,12,6,6,1,412,262,150,148,0,500,200,8000,"[(512, 384), (512, 384), (512, 384), (512, 384), (512, 384), (512, 384), (512, 384), (512, 384), (512, 384), (512, 384), (512, 384), (512, 384), (512, 384), (512, 384), (512, 384), (512, 384), (512, 384), (512, 384), (512, 384), (512, 384), (512, 384), (512, 384), (512, 384), (512, 384), (512, 384), (512, 384), (508, 384), (506, 388), (501, 393), (498, 398), (485, 412), (478, 420), (468, 428), (452, 443), (418, 482), (400, 503), (386, 518), (374, 533), (359, 553), (353, 561), (347, 569), (342, 574)]",131.8201699,"[9, 5, 7, 6, 2, 1, 8, 4, 3]","(0, 0.25)",CHN001A,CHN,A,Chinese,Tue Aug 14 17:52:11 2018,Mouse
2,1,1,0,13,1,1,1,468,358,110,147,0,500,200,8000,"[(512, 384), (512, 384), (512, 384), (512, 384), (512, 384), (512, 384), (512, 384), (512, 384), (512, 384), (512, 384), (512, 384), (512, 384), (512, 384), (512, 384), (512, 384), (512, 384), (512, 384), (512, 384), (512, 384), (512, 384), (512, 384), (512, 384), (512, 384), (512, 384), (512, 384), (512, 384), (512, 384), (512, 384), (512, 384), (512, 384), (512, 384), (512, 384), (512, 384), (512, 384), (512, 384), (512, 380), (508, 360), (503, 350), (497, 339), (490, 326), (473, 302), (460, 289), (448, 274), (427, 257), (377, 223), (347, 204), (319, 189)]",225.2953365,"[9, 5, 7, 6, 2, 1, 8, 4, 3]","(0, 0.25)",CHN001A,CHN,A,Chinese,Tue Aug 14 17:52:11 2018,Mouse
2,1,1,0,14,5,2,0,-542,472,70,146,0,500,200,8000,"[(512, 384), (512, 384), (512, 384), (512, 384), (512, 384), (512, 384), (512, 384), (512, 384), (512, 384), (512, 384), (512, 384), (512, 384), (512, 384), (512, 384), (512, 384), (512, 384), (512, 384), (512, 384), (512, 384), (512, 384), (512, 384), (512, 384), (512, 384), (512, 384), (512, 384), (512, 384), (512, 384), (512, 384), (512, 384), (512, 384), (512, 384), (512, 384), (512, 384), (512, 384), (512, 384), (512, 384), (512, 384), (512, 384), (512, 384), (512, 384), (512, 384), (512, 384), (512, 384), (512, 384), (512, 384), (512, 384), (512, 384), (511, 385), (504, 387), (490, 388), (439, 395), (404, 401), (358, 408), (310, 414), (216, 424)]",172.3039483,"[9, 5, 7, 6, 2, 1, 8, 4, 3]","(0, 0.25)",CHN001A,CHN,A,Chinese,Tue Aug 14 17:52:11 2018,Mouse
2,1,1,0,15,4,4,1,582,222,360,147,0,500,200,8000,"[(512, 384), (512, 384), (512, 384), (512, 384), (512, 384), (512, 384), (512, 384), (512, 384), (512, 384), (512, 384), (512, 384), (512, 384), (512, 384), (512, 384), (512, 384), (512, 384), (512, 384), (512, 384), (512, 384), (512, 384), (512, 384), (512, 384), (513, 384), (513, 384), (514, 384), (514, 384), (514, 384), (514, 384), (514, 384), (514, 384), (514, 384), (515, 384), (515, 384), (515, 384), (516, 384), (517, 384), (521, 384), (522, 384), (523, 384), (524, 384), (526, 384), (526, 384), (527, 384), (527, 384), (530, 383), (532, 382), (537, 378), (544, 373), (564, 357), (574, 348), (588, 335), (606, 320), (639, 291), (654, 277), (668, 262), (681, 247), (692, 222), (694, 213), (697, 205)]",315.9443504,"[9, 5, 7, 6, 2, 1, 8, 4, 3]","(0, 0.25)",CHN001A,CHN,A,Chinese,Tue Aug 14 17:52:11 2018,Mouse
2,1,1,0,16,3,3,1,472,12,460,147,0,500,200,8000,"[(512, 384), (513, 383), (513, 383), (513, 383), (514, 382), (514, 382), (514, 382), (514, 382), (514, 382), (514, 382), (514, 382), (514, 382), (514, 382), (514, 382), (514, 382), (514, 382), (514, 382), (514, 382), (514, 382), (514, 382), (514, 382), (514, 382), (514, 382), (514, 382), (514, 382), (514, 382), (514, 382), (514, 382), (514, 382), (517, 382), (526, 378), (533, 374), (537, 371), (543, 368), (552, 363), (556, 360), (560, 360), (563, 359), (573, 356), (583, 354), (595, 349), (615, 344), (658, 331), (682, 326), (697, 321), (717, 314), (748, 308), (761, 306)]",342.6066779,"[9, 5, 7, 6, 2, 1, 8, 4, 3]","(0, 0.25)",CHN001A,CHN,A,Chinese,Tue Aug 14 17:52:11 2018,Mouse
2,1,1,0,17,6,6,1,732,612,120,146,0,500,200,8000,"[(512, 384), (512, 384), (512, 384), (512, 384), (512, 384), (512, 384), (512, 384), (512, 384), (512, 384), (512, 384), (512, 384), (512, 384), (512, 384), (512, 384), (512, 384), (512, 384), (512, 384), (512, 384), (512, 384), (512, 384), (512, 384), (512, 384), (512, 384), (512, 384), (512, 384), (512, 384), (512, 384), (512, 384), (512, 384), (512, 384), (512, 384), (512, 384), (512, 384), (512, 384), (512, 384), (512, 384), (512, 384), (512, 384), (512, 384), (512, 384), (512, 384), (512, 384), (512, 384), (512, 384), (512, 384), (512, 384), (512, 384), (512, 384), (512, 384), (512, 384), (512, 384), (512, 384), (512, 384), (512, 384), (512, 384), (512, 384), (512, 384), (512, 384), (512, 384), (512, 384), (512, 384), (510, 386), (508, 389), (499, 395), (494, 403), (487, 412), (479, 423), (448, 454), (436, 469), (417, 488), (396, 507), (367, 542), (352, 560), (338, 576)]",132.1844433,"[9, 5, 7, 6, 2, 1, 8, 4, 3]","(0, 0.25)",CHN001A,CHN,A,Chinese,Tue Aug 14 17:52:11 2018,Mouse
2,1,1,0,18,6,6,1,414,224,190,145,0,500,200,8000,"[(512, 384), (512, 384), (512, 384), (512, 384), (512, 384), (512, 384), (512, 384), (512, 384), (512, 384), (512, 384), (512, 384), (512, 384), (512, 384), (512, 384), (512, 384), (512, 384), (512, 384), (512, 384), (512, 384), (512, 384), (512, 384), (512, 384), (512, 383), (510, 383), (506, 386), (487, 398), (474, 406), (455, 417), (436, 427), (403, 446), (390, 454), (379, 461), (368, 466), (353, 479), (344, 485), (338, 490), (331, 493), (317, 503), (312, 506), (307, 509), (301, 513), (293, 517)]",148.7294417,"[9, 5, 7, 6, 2, 1, 8, 4, 3]","(0, 0.25)",CHN001A,CHN,A,Chinese,Tue Aug 14 17:52:11 2018,Mouse
2,1,1,0,19,9,9,1,672,402,270,144,0,500,200,8000,"[(512, 384), (512, 384), (512, 384), (512, 384), (512, 384), (512, 384), (512, 384), (512, 384), (512, 384), (512, 384), (512, 384), (512, 384), (512, 384), (512, 384), (512, 384), (512, 384), (512, 384), (512, 384), (512, 384), (512, 384), (512, 384), (512, 384), (512, 384), (512, 384), (512, 384), (512, 384), (512, 384), (512, 384), (512, 384), (512, 384), (512, 384), (512, 384), (512, 384), (512, 384), (512, 384), (512, 384), (512, 384), (512, 384), (512, 384), (512, 384), (515, 385), (517, 388), (518, 389), (519, 391), (524, 396), (524, 399), (528, 403), (531, 408), (536, 416), (537, 419), (540, 424), (541, 429), (544, 437), (546, 440), (549, 445), (552, 448), (558, 454), (562, 455), (567, 455), (573, 455), (597, 455), (612, 455), (627, 455), (646, 454), (691, 454), (722, 454), (747, 454), (775, 454)]",14.90429492,"[9, 5, 7, 6, 2, 1, 8, 4, 3]","(0, 0.25)",CHN001A,CHN,A,Chinese,Tue Aug 14 17:52:11 2018,Mouse
2,1,1,0,20,2,2,1,721,631,90,143,0,500,200,8000,"[(512, 384), (512, 384), (512, 384), (512, 384), (512, 384), (512, 384), (512, 384), (512, 384), (512, 384), (512, 384), (512, 384), (512, 384), (512, 384), (512, 384), (512, 384), (512, 384), (512, 384), (512, 384), (512, 384), (512, 384), (512, 384), (512, 384), (512, 384), (512, 384), (512, 384), (512, 384), (512, 384), (512, 384), (512, 384), (512, 384), (512, 384), (512, 384), (512, 384), (512, 384), (512, 384), (512, 384), (512, 384), (512, 384), (512, 384), (512, 384), (512, 384), (512, 384), (512, 384), (512, 384), (512, 384), (512, 384), (512, 384), (512, 384), (512, 384), (512, 384), (512, 384), (512, 384), (512, 384), (512, 384), (512, 384), (512, 384), (512, 384), (512, 384), (512, 384), (512, 384), (512, 384), (512, 384), (512, 384), (508, 381), (501, 378), (481, 374), (470, 371), (456, 369), (441, 367), (375, 362), (339, 362), (296, 357), (260, 357)]",186.1155036,"[9, 5, 7, 6, 2, 1, 8, 4, 3]","(0, 0.25)",CHN001A,CHN,A,Chinese,Tue Aug 14 17:52:11 2018,Mouse
2,1,1,0,21,5,5,1,794,654,140,142,0,500,200,8000,"[(512, 384), (512, 384), (512, 384), (512, 384), (512, 384), (512, 384), (512, 384), (512, 384), (512, 384), (512, 384), (512, 384), (512, 384), (512, 384), (512, 384), (512, 384), (512, 384), (512, 384), (512, 384), (512, 384), (512, 384), (512, 384), (512, 384), (512, 384), (512, 384), (512, 384), (512, 384), (512, 384), (512, 384), (512, 384), (512, 384), (512, 384), (512, 384), (512, 384), (512, 384), (512, 384), (512, 384), (512, 384), (512, 384), (512, 384), (512, 384), (512, 384), (512, 384), (512, 384), (512, 384), (512, 384), (512, 384), (512, 384), (512, 384), (512, 384), (512, 384), (512, 384), (512, 384), (512, 384), (512, 384), (512, 384), (512, 384), (512, 384), (512, 384), (512, 384), (512, 384), (512, 384), (512, 384), (512, 384), (512, 384), (512, 384), (513, 384), (517, 388), (525, 396), (544, 417), (557, 432), (571, 454), (590, 475), (613, 511), (619, 523), (629, 538), (633, 549), (641, 569), (643, 578), (646, 585), (650, 594)]",56.68936918,"[9, 5, 7, 6, 2, 1, 8, 4, 3]","(0, 0.25)",CHN001A,CHN,A,Chinese,Tue Aug 14 17:52:11 2018,Mouse
2,1,1,0,22,3,3,1,571,451,120,141,0,500,200,8000,"[(512, 384), (512, 384), (512, 384), (512, 384), (512, 384), (512, 384), (512, 384), (512, 384), (512, 384), (512, 384), (512, 384), (512, 384), (512, 384), (512, 384), (512, 384), (512, 384), (512, 384), (512, 384), (512, 384), (512, 384), (512, 384), (512, 384), (512, 384), (512, 384), (512, 384), (512, 384), (512, 384), (512, 384), (512, 384), (512, 384), (512, 384), (512, 384), (512, 384), (512, 384), (512, 384), (512, 384), (512, 384), (512, 384), (512, 384), (512, 384), (512, 384), (512, 384), (512, 384), (512, 384), (512, 384), (512, 383), (516, 381), (530, 380), (545, 377), (576, 373), (595, 368), (614, 366), (633, 360), (669, 345), (690, 334), (712, 322), (741, 308), (798, 288)]",341.4449344,"[9, 5, 7, 6, 2, 1, 8, 4, 3]","(0, 0.25)",CHN001A,CHN,A,Chinese,Tue Aug 14 17:52:11 2018,Mouse
2,1,1,0,23,6,6,1,424,354,70,140,0,500,200,8000,"[(512, 384), (512, 384), (512, 384), (512, 384), (512, 384), (512, 384), (512, 384), (512, 384), (512, 384), (512, 384), (512, 384), (512, 384), (512, 384), (512, 384), (512, 384), (512, 384), (512, 384), (512, 384), (512, 384), (512, 384), (512, 384), (512, 384), (512, 384), (512, 384), (512, 384), (512, 384), (512, 384), (512, 384), (512, 384), (512, 384), (512, 384), (512, 384), (512, 384), (512, 384), (512, 384), (510, 390), (504, 398), (491, 412), (476, 430), (414, 490), (380, 514), (341, 544), (308, 564)]",138.5763344,"[9, 5, 7, 6, 2, 1, 8, 4, 3]","(0, 0.25)",CHN001A,CHN,A,Chinese,Tue Aug 14 17:52:11 2018,Mouse
2,1,1,0,24,6,6,1,300,230,70,139,0,500,200,8000,"[(512, 384), (512, 384), (512, 384), (512, 384), (512, 384), (512, 384), (512, 384), (512, 384), (512, 384), (512, 384), (512, 384), (512, 384), (512, 384), (512, 384), (512, 384), (512, 384), (512, 384), (512, 384), (512, 384), (512, 384), (512, 384), (512, 384), (507, 390), (498, 400), (462, 433), (438, 455), (408, 477), (371, 501), (323, 536), (303, 552)]",141.2067132,"[9, 5, 7, 6, 2, 1, 8, 4, 3]","(0, 0.25)",CHN001A,CHN,A,Chinese,Tue Aug 14 17:52:11 2018,Mouse
2,1,1,0,25,7,7,1,734,584,150,138,0,500,200,8000,"[(512, 384), (512, 384), (512, 384), (512, 384), (512, 384), (512, 384), (512, 384), (512, 384), (512, 384), (512, 384), (512, 384), (512, 384), (512, 384), (512, 384), (512, 384), (512, 384), (512, 384), (512, 384), (512, 384), (512, 384), (512, 384), (512, 384), (512, 384), (512, 384), (512, 384), (512, 384), (512, 384), (512, 384), (512, 384), (512, 384), (512, 384), (512, 384), (512, 384), (512, 384), (512, 384), (512, 384), (512, 384), (512, 384), (512, 384), (512, 384), (512, 384), (512, 384), (512, 384), (512, 384), (512, 384), (512, 384), (512, 384), (512, 384), (512, 384), (512, 384), (512, 384), (512, 384), (512, 384), (512, 384), (512, 384), (512, 384), (512, 384), (512, 384), (519, 400), (527, 416), (536, 440), (541, 457), (543, 483), (546, 495), (548, 506), (549, 514), (549, 526), (549, 530), (549, 535), (544, 545), (530, 573), (516, 592), (495, 621), (482, 642)]",96.63251462,"[9, 5, 7, 6, 2, 1, 8, 4, 3]","(0, 0.25)",CHN001A,CHN,A,Chinese,Tue Aug 14 17:52:11 2018,Mouse
2,1,1,0,26,7,7,1,290,210,80,137,0,500,200,8000,"[(512, 384), (512, 384), (512, 384), (512, 384), (512, 384), (512, 384), (512, 384), (512, 384), (512, 384), (512, 384), (512, 384), (512, 384), (512, 384), (512, 384), (512, 384), (512, 384), (512, 384), (512, 384), (512, 384), (512, 384), (512, 393), (511, 412), (509, 440), (506, 472), (494, 540), (491, 566), (486, 593), (478, 616), (469, 652)]",99.11528963,"[9, 5, 7, 6, 2, 1, 8, 4, 3]","(0, 0.25)",CHN001A,CHN,A,Chinese,Tue Aug 14 17:52:11 2018,Mouse
2,1,1,0,27,6,1,0,-413,343,70,136,0,500,200,8000,"[(512, 384), (512, 384), (512, 384), (512, 384), (512, 384), (512, 384), (512, 384), (512, 384), (512, 384), (512, 384), (512, 384), (512, 384), (512, 384), (512, 384), (512, 384), (512, 384), (512, 384), (512, 384), (512, 384), (512, 384), (512, 384), (512, 384), (512, 384), (512, 384), (512, 384), (512, 384), (512, 384), (512, 384), (512, 384), (512, 384), (512, 384), (512, 384), (512, 384), (512, 384), (511, 384), (506, 384), (474, 370), (449, 360), (418, 342), (383, 324), (317, 284), (288, 268)]",207.3777028,"[9, 5, 7, 6, 2, 1, 8, 4, 3]","(0, 0.25)",CHN001A,CHN,A,Chinese,Tue Aug 14 17:52:11 2018,Mouse
2,1,1,0,28,4,2,0,-532,452,80,137,0,500,200,8000,"[(512, 384), (512, 384), (512, 384), (512, 384), (512, 384), (512, 384), (512, 384), (512, 384), (512, 384), (512, 384), (512, 384), (512, 384), (512, 384), (512, 384), (512, 384), (512, 384), (512, 384), (512, 384), (512, 384), (512, 384), (512, 384), (512, 384), (512, 384), (512, 384), (512, 384), (512, 384), (512, 384), (512, 384), (512, 384), (512, 384), (512, 384), (512, 384), (512, 384), (512, 384), (512, 384), (512, 384), (512, 384), (512, 384), (512, 384), (512, 384), (512, 384), (512, 384), (512, 384), (512, 384), (512, 384), (508, 385), (497, 386), (468, 391), (447, 394), (418, 399), (389, 402), (311, 411), (284, 418), (255, 419)]",172.2447829,"[9, 5, 7, 6, 2, 1, 8, 4, 3]","(0, 0.25)",CHN001A,CHN,A,Chinese,Tue Aug 14 17:52:11 2018,Mouse
2,1,1,0,29,2,2,1,342,152,190,138,0,500,200,8000,"[(512, 384), (512, 384), (512, 384), (512, 384), (512, 384), (512, 384), (512, 384), (512, 384), (512, 384), (512, 384), (512, 384), (512, 384), (512, 384), (512, 384), (512, 384), (512, 383), (511, 383), (510, 382), (506, 382), (502, 381), (498, 381), (491, 381), (479, 380), (469, 379), (459, 378), (447, 375), (421, 372), (405, 369), (388, 368), (375, 366), (340, 362), (323, 361), (302, 360), (280, 360), (250, 360)]",185.2338616,"[9, 5, 7, 6, 2, 1, 8, 4, 3]","(0, 0.25)",CHN001A,CHN,A,Chinese,Tue Aug 14 17:52:11 2018,Mouse
2,1,1,0,30,7,7,1,429,339,90,138,0,500,200,8000,"[(512, 384), (512, 384), (512, 384), (512, 384), (512, 384), (512, 384), (512, 384), (512, 384), (512, 384), (512, 384), (512, 384), (512, 384), (512, 384), (512, 384), (512, 384), (512, 384), (512, 384), (512, 384), (512, 384), (512, 384), (512, 384), (512, 384), (512, 384), (512, 384), (512, 384), (512, 384), (512, 384), (512, 384), (512, 384), (512, 384), (512, 384), (512, 384), (512, 384), (513, 386), (515, 390), (516, 402), (520, 415), (521, 430), (521, 448), (524, 522), (524, 575), (524, 624), (524, 663)]",87.53718332,"[9, 5, 7, 6, 2, 1, 8, 4, 3]","(0, 0.25)",CHN001A,CHN,A,Chinese,Tue Aug 14 17:52:11 2018,Mouse
2,1,1,0,31,2,2,1,691,611,80,137,0,500,200,8000,"[(512, 384), (512, 384), (512, 384), (512, 384), (512, 384), (512, 384), (512, 384), (512, 384), (512, 384), (512, 384), (512, 384), (512, 384), (512, 384), (512, 384), (512, 384), (512, 384), (512, 384), (512, 384), (512, 384), (512, 384), (512, 384), (512, 384), (512, 384), (512, 384), (512, 384), (512, 384), (512, 384), (512, 384), (512, 384), (512, 384), (512, 384), (512, 384), (512, 384), (512, 384), (512, 384), (512, 384), (512, 384), (512, 384), (512, 384), (512, 384), (512, 384), (512, 384), (512, 384), (512, 384), (512, 384), (512, 384), (512, 384), (512, 384), (512, 384), (512, 384), (512, 384), (512, 384), (512, 384), (512, 384), (512, 384), (512, 384), (512, 384), (512, 384), (512, 384), (512, 384), (503, 384), (491, 384), (479, 385), (458, 385), (405, 385), (372, 385), (338, 385), (305, 385), (244, 385)]",179.7862108,"[9, 5, 7, 6, 2, 1, 8, 4, 3]","(0, 0.25)",CHN001A,CHN,A,Chinese,Tue Aug 14 17:52:11 2018,Mouse
2,1,1,0,32,1,1,1,474,324,150,136,0,500,200,8000,"[(512, 384), (512, 384), (512, 384), (512, 384), (512, 384), (512, 384), (512, 384), (512, 384), (512, 384), (512, 384), (512, 384), (512, 384), (512, 384), (512, 384), (512, 384), (512, 384), (512, 384), (512, 384), (512, 384), (512, 384), (512, 384), (512, 384), (512, 384), (512, 384), (512, 384), (512, 384), (512, 384), (512, 384), (512, 384), (512, 384), (512, 384), (512, 384), (511, 384), (508, 384), (505, 384), (501, 383), (498, 381), (496, 380), (496, 379), (492, 378), (490, 376), (483, 370), (477, 364), (448, 333), (418, 304), (384, 273), (345, 246), (272, 194)]",218.3674854,"[9, 5, 7, 6, 2, 1, 8, 4, 3]","(0, 0.25)",CHN001A,CHN,A,Chinese,Tue Aug 14 17:52:11 2018,Mouse
2,1,1,0,33,2,7,0,-422,342,80,135,0,500,200,8000,"[(512, 384), (512, 384), (512, 384), (512, 384), (512, 384), (512, 384), (512, 384), (512, 384), (512, 384), (512, 384), (512, 384), (512, 384), (512, 384), (512, 384), (512, 384), (512, 384), (512, 384), (512, 384), (512, 384), (512, 384), (512, 384), (512, 384), (512, 384), (512, 384), (512, 384), (512, 384), (512, 384), (512, 384), (512, 384), (512, 384), (512, 384), (512, 384), (512, 384), (512, 384), (512, 387), (512, 392), (499, 431), (488, 465), (476, 496), (467, 532), (450, 590), (442, 616), (434, 641)]",106.8831459,"[9, 5, 7, 6, 2, 1, 8, 4, 3]","(0, 0.25)",CHN001A,CHN,A,Chinese,Tue Aug 14 17:52:11 2018,Mouse
2,1,1,0,34,8,8,1,475,425,50,136,0,500,200,8000,"[(512, 384), (512, 384), (512, 384), (512, 384), (512, 384), (512, 384), (512, 384), (512, 384), (512, 384), (512, 384), (512, 384), (512, 384), (512, 384), (512, 384), (512, 384), (512, 384), (512, 384), (512, 384), (512, 384), (512, 384), (512, 384), (512, 384), (512, 384), (512, 384), (512, 384), (512, 384), (512, 384), (512, 384), (512, 384), (512, 384), (512, 384), (512, 384), (512, 384), (512, 384), (512, 384), (512, 384), (512, 384), (512, 384), (512, 384), (512, 384), (512, 384), (512, 384), (512, 380), (512, 353), (512, 306), (496, 197), (484, 148), (476, 105)]",262.6476206,"[9, 5, 7, 6, 2, 1, 8, 4, 3]","(0, 0.25)",CHN001A,CHN,A,Chinese,Tue Aug 14 17:52:11 2018,Mouse
2,1,1,0,35,4,7,0,-396,316,80,136,0,500,200,8000,"[(512, 384), (512, 384), (512, 384), (512, 384), (512, 384), (512, 384), (512, 384), (512, 384), (512, 384), (512, 384), (512, 384), (512, 384), (512, 384), (512, 384), (512, 384), (512, 384), (512, 384), (512, 384), (512, 384), (512, 384), (512, 384), (512, 384), (512, 384), (512, 384), (512, 384), (512, 384), (512, 384), (512, 384), (512, 384), (512, 384), (512, 384), (513, 387), (513, 397), (502, 438), (494, 463), (486, 491), (480, 521), (468, 581), (461, 608), (458, 634)]",102.1886332,"[9, 5, 7, 6, 2, 1, 8, 4, 3]","(0, 0.25)",CHN001A,CHN,A,Chinese,Tue Aug 14 17:52:11 2018,Mouse
2,1,1,0,36,3,3,1,391,341,50,137,0,500,200,8000,"[(512, 384), (512, 384), (512, 384), (512, 384), (512, 384), (512, 384), (512, 384), (512, 384), (512, 384), (512, 384), (512, 384), (512, 384), (512, 384), (512, 384), (512, 384), (512, 384), (512, 384), (512, 384), (512, 384), (512, 384), (512, 384), (512, 384), (512, 384), (512, 384), (512, 384), (512, 384), (512, 384), (512, 384), (512, 384), (512, 384), (512, 384), (512, 384), (512, 384), (512, 384), (518, 384), (554, 378), (590, 369), (637, 355), (734, 339), (783, 331)]",348.9342242,"[9, 5, 7, 6, 2, 1, 8, 4, 3]","(0, 0.25)",CHN001A,CHN,A,Chinese,Tue Aug 14 17:52:11 2018,Mouse
2,1,1,0,37,2,2,1,430,270,160,137,0,500,200,8000,"[(512, 384), (512, 384), (512, 384), (512, 384), (512, 384), (512, 384), (512, 384), (512, 384), (512, 384), (512, 384), (512, 384), (512, 384), (512, 384), (512, 384), (512, 384), (512, 384), (512, 384), (512, 384), (512, 384), (512, 384), (512, 384), (512, 384), (512, 384), (512, 384), (512, 384), (512, 384), (511, 384), (506, 384), (500, 381), (488, 371), (456, 344), (439, 333), (425, 323), (411, 314), (383, 300), (373, 295), (366, 293), (357, 290), (342, 289), (331, 289), (318, 289), (298, 292), (252, 303)]",197.3038202,"[9, 5, 7, 6, 2, 1, 8, 4, 3]","(0, 0.25)",CHN001A,CHN,A,Chinese,Tue Aug 14 17:52:11 2018,Mouse
2,1,1,0,38,4,7,0,-440,350,90,136,0,500,200,8000,"[(512, 384), (512, 384), (512, 384), (512, 384), (512, 384), (512, 384), (512, 384), (512, 384), (512, 384), (512, 384), (512, 384), (512, 384), (512, 384), (512, 384), (512, 384), (512, 384), (512, 384), (512, 384), (512, 384), (512, 384), (512, 384), (512, 384), (512, 384), (512, 384), (512, 384), (512, 384), (512, 384), (512, 384), (512, 384), (512, 384), (512, 384), (512, 384), (512, 384), (512, 384), (512, 386), (511, 396), (508, 409), (503, 427), (499, 440), (481, 499), (470, 541), (459, 577), (447, 611), (430, 675)]",105.7371432,"[9, 5, 7, 6, 2, 1, 8, 4, 3]","(0, 0.25)",CHN001A,CHN,A,Chinese,Tue Aug 14 17:52:11 2018,Mouse
2,1,1,0,39,9,9,1,481,291,190,137,0,500,200,8000,"[(512, 384), (512, 384), (512, 384), (512, 384), (512, 384), (512, 384), (512, 384), (512, 384), (512, 384), (512, 384), (512, 384), (512, 384), (512, 384), (512, 384), (512, 384), (512, 384), (512, 384), (512, 384), (512, 384), (512, 384), (512, 384), (512, 384), (512, 384), (512, 384), (512, 384), (512, 384), (512, 384), (512, 384), (512, 384), (514, 385), (516, 386), (519, 386), (528, 388), (531, 388), (538, 391), (544, 393), (553, 394), (557, 396), (561, 396), (566, 398), (574, 405), (582, 410), (589, 418), (600, 428), (626, 448), (647, 466), (669, 482), (692, 498), (726, 522)]",32.81634341,"[9, 5, 7, 6, 2, 1, 8, 4, 3]","(0, 0.25)",CHN001A,CHN,A,Chinese,Tue Aug 14 17:52:11 2018,Mouse
2,1,1,0,40,3,3,1,395,325,70,137,0,500,200,8000,"[(512, 384), (512, 384), (512, 384), (512, 384), (512, 384), (512, 384), (512, 384), (512, 384), (512, 384), (512, 384), (512, 384), (512, 384), (512, 384), (512, 384), (512, 384), (512, 384), (512, 384), (512, 384), (512, 384), (512, 384), (512, 384), (512, 384), (512, 384), (512, 384), (512, 384), (512, 384), (512, 384), (512, 384), (512, 384), (512, 384), (512, 384), (512, 384), (513, 384), (518, 384), (531, 382), (583, 361), (631, 343), (682, 323), (731, 311), (832, 291)]",343.7948146,"[9, 5, 7, 6, 2, 1, 8, 4, 3]","(0, 0.25)",CHN001A,CHN,A,Chinese,Tue Aug 14 17:52:11 2018,Mouse
2,1,1,0,41,3,2,0,-592,472,120,136,0,500,200,8000,"[(512, 384), (512, 384), (512, 384), (512, 384), (512, 384), (512, 384), (512, 384), (512, 384), (512, 384), (512, 384), (512, 384), (512, 384), (512, 384), (512, 384), (512, 384), (512, 384), (512, 384), (512, 384), (512, 384), (512, 384), (512, 384), (512, 384), (512, 384), (512, 384), (512, 384), (512, 384), (512, 384), (512, 384), (512, 384), (512, 384), (512, 384), (512, 384), (512, 384), (512, 384), (512, 384), (512, 384), (512, 384), (512, 384), (512, 384), (512, 384), (512, 384), (512, 384), (512, 384), (512, 384), (512, 384), (512, 384), (512, 384), (508, 386), (491, 386), (483, 386), (472, 386), (461, 386), (437, 386), (422, 386), (403, 386), (381, 386), (325, 386), (292, 386), (264, 386), (233, 386)]",179.5892846,"[9, 5, 7, 6, 2, 1, 8, 4, 3]","(0, 0.25)",CHN001A,CHN,A,Chinese,Tue Aug 14 17:52:11 2018,Mouse
2,1,1,0,42,1,5,0,-804,514,290,137,0,500,200,8000,"[(512, 384), (512, 384), (512, 384), (512, 384), (512, 384), (512, 384), (512, 384), (512, 384), (512, 384), (512, 384), (512, 384), (512, 384), (512, 384), (512, 384), (512, 384), (512, 384), (512, 384), (512, 384), (512, 384), (512, 384), (512, 384), (512, 384), (512, 384), (512, 384), (512, 384), (512, 384), (512, 384), (512, 384), (512, 384), (512, 384), (512, 384), (512, 384), (512, 384), (512, 384), (512, 384), (512, 384), (512, 384), (512, 384), (512, 384), (512, 384), (512, 384), (512, 384), (512, 384), (512, 384), (512, 384), (512, 384), (512, 384), (512, 384), (512, 384), (512, 384), (512, 384), (514, 384), (517, 385), (519, 385), (522, 386), (523, 387), (532, 394), (539, 398), (545, 405), (551, 409), (568, 421), (574, 426), (580, 431), (585, 435), (594, 445), (596, 450), (600, 456), (603, 462), (609, 478), (611, 486), (616, 496), (619, 508), (620, 525), (620, 535), (620, 547), (617, 557), (607, 580), (602, 591), (597, 604), (590, 613), (575, 636)]",75.96375653,"[9, 5, 7, 6, 2, 1, 8, 4, 3]","(0, 0.25)",CHN001A,CHN,A,Chinese,Tue Aug 14 17:52:11 2018,Mouse
2,1,1,0,43,5,5,1,1231,1121,110,138,0,500,200,8000,"[(512, 384), (512, 384), (512, 384), (512, 384), (512, 384), (512, 384), (512, 384), (512, 384), (512, 384), (512, 384), (512, 384), (512, 384), (512, 384), (512, 384), (512, 384), (512, 384), (512, 384), (512, 384), (512, 384), (512, 384), (512, 384), (512, 384), (512, 384), (512, 384), (512, 384), (512, 384), (512, 384), (512, 384), (512, 384), (512, 384), (512, 384), (512, 384), (512, 384), (512, 384), (512, 384), (512, 384), (512, 384), (512, 384), (512, 384), (512, 384), (512, 384), (512, 384), (512, 384), (512, 384), (512, 384), (512, 384), (512, 384), (512, 384), (512, 384), (512, 384), (512, 384), (512, 384), (512, 384), (512, 384), (512, 384), (512, 384), (512, 384), (512, 384), (512, 384), (512, 384), (512, 384), (512, 384), (512, 384), (512, 384), (512, 384), (512, 384), (512, 384), (512, 384), (512, 384), (512, 384), (512, 384), (512, 384), (512, 384), (512, 384), (512, 384), (512, 384), (512, 384), (512, 384), (512, 384), (512, 384), (512, 384), (512, 384), (512, 384), (512, 384), (512, 384), (512, 384), (512, 384), (512, 384), (512, 384), (512, 384), (512, 384), (512, 384), (512, 384), (512, 384), (512, 384), (512, 384), (512, 384), (512, 384), (512, 384), (512, 384), (512, 384), (512, 384), (512, 384), (512, 384), (512, 384), (512, 384), (512, 384), (512, 384), (512, 384), (512, 384), (512, 384), (512, 384), (512, 385), (512, 390), (513, 398), (518, 411), (533, 446), (542, 469), (556, 498), (567, 522), (590, 567), (603, 589), (610, 600), (618, 612)]",65.0657049,"[9, 5, 7, 6, 2, 1, 8, 4, 3]","(0, 0.25)",CHN001A,CHN,A,Chinese,Tue Aug 14 17:52:11 2018,Mouse
2,1,1,0,44,8,8,1,584,514,70,138,0,500,200,8000,"[(512, 384), (512, 384), (512, 384), (512, 384), (512, 384), (512, 384), (512, 384), (512, 384), (512, 384), (512, 384), (512, 384), (512, 384), (512, 384), (512, 384), (512, 384), (512, 384), (512, 384), (512, 384), (512, 384), (512, 384), (512, 384), (512, 384), (512, 384), (512, 384), (512, 384), (512, 384), (512, 384), (512, 384), (512, 384), (512, 384), (512, 384), (512, 384), (512, 384), (512, 384), (512, 384), (512, 384), (512, 384), (512, 384), (512, 384), (512, 384), (512, 384), (512, 384), (512, 384), (512, 384), (512, 384), (512, 384), (512, 384), (512, 384), (512, 384), (512, 384), (512, 384), (512, 379), (512, 354), (510, 334), (510, 301), (504, 266), (486, 184), (473, 147), (460, 113)]",259.1379998,"[9, 5, 7, 6, 2, 1, 8, 4, 3]","(0, 0.25)",CHN001A,CHN,A,Chinese,Tue Aug 14 17:52:11 2018,Mouse
2,1,1,0,45,5,5,1,821,161,660,137,0,500,200,8000,"[(512, 384), (512, 384), (512, 384), (512, 384), (512, 384), (512, 384), (512, 384), (512, 384), (512, 384), (512, 384), (512, 384), (512, 384), (512, 384), (512, 384), (512, 384), (512, 384), (511, 384), (511, 384), (511, 384), (511, 384), (510, 384), (510, 384), (510, 384), (510, 384), (510, 384), (510, 384), (510, 384), (510, 384), (510, 384), (510, 384), (510, 384), (510, 384), (510, 384), (510, 384), (510, 384), (510, 384), (510, 384), (510, 384), (510, 384), (510, 384), (510, 384), (510, 384), (510, 384), (510, 384), (510, 384), (510, 384), (510, 384), (510, 384), (510, 384), (510, 384), (510, 384), (510, 384), (510, 384), (510, 384), (510, 384), (510, 384), (510, 384), (510, 384), (510, 384), (510, 384), (510, 384), (510, 384), (510, 384), (510, 384), (510, 384), (510, 384), (510, 384), (509, 386), (509, 391), (512, 398), (523, 419), (530, 431), (541, 448), (549, 464), (563, 495), (571, 513), (578, 528), (588, 547), (598, 574), (603, 587), (606, 595), (611, 604), (614, 617)]",66.35772362,"[9, 5, 7, 6, 2, 1, 8, 4, 3]","(0, 0.25)",CHN001A,CHN,A,Chinese,Tue Aug 14 17:52:11 2018,Mouse
2,1,1,0,46,3,3,1,553,393,160,136,0,500,200,8000,"[(512, 384), (512, 384), (512, 384), (512, 384), (512, 384), (512, 384), (512, 384), (512, 384), (512, 384), (512, 384), (512, 384), (512, 384), (512, 384), (512, 384), (512, 384), (512, 384), (512, 384), (512, 384), (512, 384), (512, 384), (512, 384), (512, 384), (512, 384), (512, 384), (512, 384), (512, 384), (512, 384), (512, 384), (512, 384), (512, 384), (512, 384), (512, 384), (512, 384), (512, 384), (512, 384), (512, 384), (512, 384), (512, 384), (512, 384), (513, 384), (513, 383), (513, 382), (514, 382), (516, 380), (531, 377), (546, 377), (565, 377), (590, 377), (643, 377), (669, 374), (690, 372), (712, 366), (737, 357), (750, 351), (758, 346), (765, 343)]",350.7949374,"[9, 5, 7, 6, 2, 1, 8, 4, 3]","(0, 0.25)",CHN001A,CHN,A,Chinese,Tue Aug 14 17:52:11 2018,Mouse
2,1,1,0,47,2,2,1,295,215,80,135,0,500,200,8000,"[(512, 384), (512, 384), (512, 384), (512, 384), (512, 384), (512, 384), (512, 384), (512, 384), (512, 384), (512, 384), (512, 384), (512, 384), (512, 384), (512, 384), (512, 384), (512, 384), (512, 384), (512, 384), (512, 384), (512, 384), (512, 384), (507, 385), (496, 387), (482, 389), (440, 392), (411, 393), (379, 396), (346, 396), (285, 396), (257, 396)]",177.3057157,"[9, 5, 7, 6, 2, 1, 8, 4, 3]","(0, 0.25)",CHN001A,CHN,A,Chinese,Tue Aug 14 17:52:11 2018,Mouse
2,1,1,0,48,3,3,1,260,70,190,134,0,500,200,8000,"[(512, 384), (512, 384), (512, 384), (512, 384), (512, 384), (512, 384), (513, 384), (513, 384), (513, 384), (513, 384), (513, 384), (513, 384), (513, 384), (513, 384), (513, 384), (513, 384), (515, 382), (516, 382), (531, 380), (546, 379), (565, 376), (590, 372), (666, 357), (711, 354), (754, 346), (800, 338)]",350.925242,"[9, 5, 7, 6, 2, 1, 8, 4, 3]","(0, 0.25)",CHN001A,CHN,A,Chinese,Tue Aug 14 17:52:11 2018,Mouse
2,1,1,0,49,9,7,0,-821,681,140,133,0,500,200,8000,"[(512, 384), (512, 384), (512, 384), (512, 384), (512, 384), (512, 384), (512, 384), (512, 384), (512, 384), (512, 384), (512, 384), (512, 384), (512, 384), (512, 384), (512, 384), (512, 384), (512, 384), (512, 384), (512, 384), (512, 384), (512, 384), (512, 384), (512, 384), (512, 384), (512, 384), (512, 384), (512, 384), (512, 384), (512, 384), (512, 384), (512, 384), (512, 384), (512, 384), (512, 384), (512, 384), (512, 384), (512, 384), (512, 384), (512, 384), (512, 384), (512, 384), (512, 384), (512, 384), (512, 384), (512, 384), (512, 384), (512, 384), (512, 384), (512, 384), (512, 384), (512, 384), (512, 384), (512, 384), (512, 384), (512, 384), (512, 384), (512, 384), (512, 384), (512, 384), (512, 384), (512, 384), (512, 384), (512, 384), (512, 384), (512, 384), (512, 384), (512, 384), (512, 384), (512, 385), (512, 386), (511, 387), (511, 387), (510, 391), (508, 398), (507, 404), (507, 415), (505, 426), (496, 458), (493, 479), (483, 507), (474, 541), (457, 604), (445, 638)]",104.7768679,"[9, 5, 7, 6, 2, 1, 8, 4, 3]","(0, 0.25)",CHN001A,CHN,A,Chinese,Tue Aug 14 17:52:11 2018,Mouse
2,1,1,0,50,1,2,0,-542,32,510,134,0,500,200,8000,"[(512, 384), (512, 384), (512, 384), (511, 384), (511, 384), (511, 383), (511, 382), (511, 382), (511, 381), (511, 381), (511, 381), (511, 381), (511, 381), (511, 381), (511, 381), (511, 381), (511, 381), (511, 381), (511, 381), (511, 381), (511, 381), (511, 381), (511, 381), (511, 381), (511, 381), (511, 381), (511, 381), (511, 381), (511, 381), (511, 380), (511, 380), (511, 380), (511, 380), (511, 380), (511, 380), (511, 380), (511, 380), (511, 380), (511, 380), (511, 380), (511, 380), (510, 380), (508, 380), (496, 380), (484, 383), (470, 388), (457, 390), (425, 396), (410, 397), (398, 397), (388, 397), (345, 382), (315, 364), (286, 341), (253, 319)]",194.0882832,"[9, 5, 7, 6, 2, 1, 8, 4, 3]","(0, 0.25)",CHN001A,CHN,A,Chinese,Tue Aug 14 17:52:11 2018,Mouse
2,1,1,0,51,1,3,0,-591,511,80,135,0,500,200,8000,"[(512, 384), (512, 384), (512, 384), (512, 384), (512, 384), (512, 384), (512, 384), (512, 384), (512, 384), (512, 384), (512, 384), (512, 384), (512, 384), (512, 384), (512, 384), (512, 384), (512, 384), (512, 384), (512, 384), (512, 384), (512, 384), (512, 384), (512, 384), (512, 384), (512, 384), (512, 384), (512, 384), (512, 384), (512, 384), (512, 384), (512, 384), (512, 384), (512, 384), (512, 384), (512, 384), (512, 384), (512, 384), (512, 384), (512, 384), (512, 384), (512, 384), (512, 384), (512, 384), (512, 384), (512, 384), (512, 384), (512, 384), (512, 384), (512, 384), (512, 384), (512, 384), (517, 381), (532, 375), (578, 356), (604, 346), (638, 334), (666, 326), (720, 306), (742, 300), (765, 292)]",340.0168935,"[9, 5, 7, 6, 2, 1, 8, 4, 3]","(0, 0.25)",CHN001A,CHN,A,Chinese,Tue Aug 14 17:52:11 2018,Mouse
2,1,1,0,52,7,7,1,412,342,70,136,0,500,200,8000,"[(512, 384), (512, 384), (512, 384), (512, 384), (512, 384), (512, 384), (512, 384), (512, 384), (512, 384), (512, 384), (512, 384), (512, 384), (512, 384), (512, 384), (512, 384), (512, 384), (512, 384), (512, 384), (512, 384), (512, 384), (512, 384), (512, 384), (512, 384), (512, 384), (512, 384), (512, 384), (512, 384), (512, 384), (512, 384), (512, 384), (512, 384), (512, 384), (512, 384), (512, 384), (511, 391), (508, 407), (500, 435), (489, 469), (463, 550), (452, 581), (444, 614), (433, 642)]",107.0246694,"[9, 5, 7, 6, 2, 1, 8, 4, 3]","(0, 0.25)",CHN001A,CHN,A,Chinese,Tue Aug 14 17:52:11 2018,Mouse
2,1,1,0,53,5,5,1,1962,332,1630,136,0,500,200,8000,"[(512, 384), (512, 384), (512, 384), (512, 384), (512, 384), (512, 384), (512, 384), (512, 384), (512, 384), (512, 384), (512, 384), (512, 384), (512, 384), (512, 384), (512, 384), (512, 384), (512, 384), (512, 384), (512, 384), (512, 384), (512, 384), (512, 384), (512, 384), (512, 384), (512, 384), (512, 384), (512, 384), (512, 384), (512, 384), (512, 384), (512, 384), (512, 384), (512, 384), (503, 380), (494, 376), (489, 375), (484, 374), (475, 371), (471, 370), (469, 370), (468, 369), (467, 369), (467, 369), (467, 369), (467, 369), (467, 369), (467, 369), (467, 369), (467, 369), (467, 369), (467, 369), (467, 369), (467, 369), (467, 369), (467, 369), (467, 369), (467, 369), (467, 369), (467, 369), (467, 369), (467, 369), (467, 369), (467, 369), (467, 369), (467, 369), (467, 369), (467, 369), (467, 369), (467, 369), (467, 369), (467, 369), (467, 369), (467, 369), (467, 369), (467, 369), (467, 369), (467, 369), (467, 369), (467, 369), (467, 369), (467, 369), (467, 369), (467, 369), (467, 369), (467, 369), (467, 369), (467, 369), (467, 369), (467, 369), (467, 369), (467, 369), (467, 369), (467, 369), (467, 369), (467, 369), (467, 369), (467, 369), (467, 369), (467, 369), (467, 369), (467, 369), (467, 369), (467, 369), (467, 369), (467, 369), (467, 369), (467, 369), (467, 369), (467, 369), (467, 369), (467, 369), (467, 369), (467, 369), (467, 369), (467, 369), (467, 369), (467, 369), (467, 369), (467, 369), (467, 369), (467, 369), (467, 369), (467, 369), (467, 369), (467, 369), (467, 369), (467, 369), (467, 369), (467, 369), (467, 369), (467, 369), (467, 369), (467, 369), (467, 369), (467, 369), (467, 369), (467, 369), (467, 369), (467, 369), (467, 369), (467, 369), (467, 369), (467, 369), (467, 369), (467, 369), (467, 369), (467, 369), (467, 369), (467, 369), (467, 369), (467, 369), (467, 369), (467, 369), (467, 369), (467, 369), (467, 369), (467, 369), (467, 369), (467, 369), (467, 369), (467, 369), (467, 369), (467, 369), (467, 369), (467, 369), (467, 369), (467, 369), (467, 369), (467, 369), (467, 369), (467, 369), (467, 369), (468, 369), (469, 369), (472, 369), (473, 370), (476, 372), (482, 375), (484, 377), (487, 378), (489, 381), (494, 385), (496, 389), (498, 391), (501, 397), (506, 403), (508, 409), (512, 416), (516, 426), (528, 455), (537, 477), (546, 500), (559, 525), (576, 573), (584, 593), (590, 608), (598, 627)]",70.51064667,"[9, 5, 7, 6, 2, 1, 8, 4, 3]","(0, 0.25)",CHN001A,CHN,A,Chinese,Tue Aug 14 17:52:11 2018,Mouse
2,1,1,0,54,7,6,0,-1251,1061,190,135,0,500,200,8000,"[(512, 384), (512, 384), (512, 384), (512, 384), (512, 384), (512, 384), (512, 384), (512, 384), (512, 384), (512, 384), (512, 384), (512, 384), (512, 384), (512, 384), (512, 384), (512, 384), (512, 384), (512, 384), (512, 384), (512, 384), (512, 384), (512, 384), (512, 384), (512, 384), (512, 384), (512, 384), (512, 384), (512, 384), (512, 384), (512, 384), (512, 384), (512, 384), (512, 384), (512, 384), (512, 384), (512, 384), (512, 384), (512, 384), (512, 384), (512, 384), (512, 384), (512, 384), (512, 384), (512, 384), (512, 384), (512, 384), (512, 384), (512, 384), (512, 384), (512, 384), (512, 384), (512, 384), (512, 384), (512, 384), (512, 384), (512, 384), (512, 384), (512, 384), (512, 384), (512, 384), (512, 384), (512, 384), (512, 384), (512, 384), (512, 384), (512, 384), (512, 384), (512, 384), (512, 384), (512, 384), (512, 384), (512, 384), (512, 384), (512, 384), (512, 384), (512, 384), (512, 384), (512, 384), (512, 384), (512, 384), (512, 384), (512, 384), (512, 384), (512, 384), (512, 384), (512, 384), (512, 384), (512, 384), (512, 384), (512, 384), (512, 384), (512, 384), (512, 384), (512, 384), (512, 384), (512, 384), (512, 384), (512, 384), (512, 384), (512, 384), (512, 384), (512, 384), (512, 384), (512, 384), (512, 384), (512, 384), (509, 384), (504, 387), (499, 391), (488, 399), (483, 403), (480, 404), (475, 407), (471, 410), (469, 412), (465, 415), (461, 421), (445, 442), (437, 454), (424, 468), (404, 483), (371, 512), (353, 527), (341, 537), (329, 546), (311, 559)]",138.9556455,"[9, 5, 7, 6, 2, 1, 8, 4, 3]","(0, 0.25)",CHN001A,CHN,A,Chinese,Tue Aug 14 17:52:11 2018,Mouse
2,1,1,0,55,1,3,0,-513,353,160,136,0,500,200,8000,"[(512, 384), (512, 384), (512, 384), (512, 384), (512, 384), (512, 384), (512, 384), (512, 384), (512, 384), (512, 384), (512, 384), (512, 384), (512, 384), (512, 384), (512, 384), (512, 384), (512, 384), (512, 384), (512, 384), (512, 384), (512, 384), (512, 384), (512, 384), (512, 384), (512, 384), (512, 384), (512, 384), (512, 384), (512, 384), (512, 384), (512, 384), (512, 384), (512, 384), (512, 384), (512, 384), (514, 384), (517, 384), (520, 383), (529, 379), (543, 371), (553, 367), (562, 362), (572, 357), (595, 349), (609, 344), (623, 339), (645, 333), (675, 325), (698, 319), (720, 313), (734, 310), (767, 303)]",342.3777028,"[9, 5, 7, 6, 2, 1, 8, 4, 3]","(0, 0.25)",CHN001A,CHN,A,Chinese,Tue Aug 14 17:52:11 2018,Mouse
2,1,1,0,56,8,8,1,332,182,150,137,0,500,200,8000,"[(512, 384), (512, 384), (512, 384), (512, 384), (512, 384), (512, 384), (512, 384), (512, 384), (512, 384), (512, 384), (512, 384), (512, 384), (512, 384), (512, 384), (512, 384), (512, 384), (512, 384), (512, 384), (511, 383), (511, 382), (509, 376), (509, 376), (509, 372), (508, 364), (503, 340), (501, 325), (496, 308), (490, 288), (480, 250), (473, 229), (468, 210), (461, 185), (448, 143), (444, 124)]",255.3432489,"[9, 5, 7, 6, 2, 1, 8, 4, 3]","(0, 0.25)",CHN001A,CHN,A,Chinese,Tue Aug 14 17:52:11 2018,Mouse
2,1,1,0,57,7,7,1,802,592,210,137,0,500,200,8000,"[(512, 384), (512, 384), (512, 384), (512, 384), (512, 384), (512, 384), (512, 384), (512, 384), (512, 384), (512, 384), (512, 384), (512, 384), (512, 384), (512, 384), (512, 384), (512, 384), (512, 384), (512, 384), (512, 384), (512, 384), (512, 384), (512, 384), (512, 384), (512, 384), (512, 384), (512, 384), (512, 384), (512, 384), (512, 384), (512, 384), (512, 384), (512, 384), (512, 384), (512, 384), (512, 384), (512, 384), (512, 384), (512, 384), (512, 384), (512, 384), (512, 384), (512, 384), (512, 384), (512, 384), (512, 384), (512, 384), (512, 384), (512, 384), (512, 384), (512, 384), (512, 384), (512, 384), (512, 384), (512, 384), (512, 384), (512, 384), (512, 384), (512, 384), (512, 384), (512, 389), (509, 394), (504, 400), (502, 402), (497, 408), (495, 408), (493, 409), (493, 410), (491, 411), (491, 411), (491, 412), (489, 416), (488, 436), (486, 450), (486, 467), (484, 488), (479, 529), (477, 550), (474, 566), (474, 583), (474, 614), (474, 634)]",98.64280258,"[9, 5, 7, 6, 2, 1, 8, 4, 3]","(0, 0.25)",CHN001A,CHN,A,Chinese,Tue Aug 14 17:52:11 2018,Mouse
2,1,1,0,58,7,7,1,304,214,90,136,0,500,200,8000,"[(512, 384), (512, 384), (512, 384), (512, 384), (512, 384), (512, 384), (512, 384), (512, 384), (512, 384), (512, 384), (512, 384), (512, 384), (512, 384), (512, 384), (512, 384), (512, 384), (512, 384), (512, 384), (512, 384), (512, 384), (512, 384), (509, 395), (497, 429), (491, 454), (484, 477), (476, 502), (463, 545), (455, 567), (450, 582), (446, 598), (438, 629)]",106.8064593,"[9, 5, 7, 6, 2, 1, 8, 4, 3]","(0, 0.25)",CHN001A,CHN,A,Chinese,Tue Aug 14 17:52:11 2018,Mouse
2,1,1,0,59,7,7,1,354,204,150,135,0,500,200,8000,"[(512, 384), (512, 384), (512, 384), (512, 384), (512, 384), (512, 384), (512, 384), (512, 384), (512, 384), (512, 384), (512, 384), (512, 384), (512, 384), (512, 384), (512, 384), (512, 384), (512, 384), (512, 384), (512, 384), (512, 384), (512, 385), (512, 396), (512, 410), (512, 440), (512, 457), (512, 476), (512, 493), (509, 528), (506, 546), (506, 559), (505, 573), (503, 596), (502, 607), (502, 617), (502, 624), (502, 639)]",92.24574257,"[9, 5, 7, 6, 2, 1, 8, 4, 3]","(0, 0.25)",CHN001A,CHN,A,Chinese,Tue Aug 14 17:52:11 2018,Mouse
2,1,1,0,60,9,9,1,361,211,150,134,0,500,200,8000,"[(512, 384), (512, 384), (512, 384), (512, 384), (512, 384), (512, 384), (512, 384), (512, 384), (512, 384), (512, 384), (512, 384), (512, 384), (512, 384), (512, 384), (512, 384), (512, 384), (512, 384), (512, 384), (512, 384), (512, 384), (512, 384), (513, 384), (516, 384), (520, 384), (534, 384), (542, 384), (552, 385), (564, 387), (599, 396), (624, 400), (643, 404), (662, 410), (699, 421), (714, 423), (732, 428), (743, 432), (765, 438)]",12.04835122,"[9, 5, 7, 6, 2, 1, 8, 4, 3]","(0, 0.25)",CHN001A,CHN,A,Chinese,Tue Aug 14 17:52:11 2018,Mouse
2,1,1,0,61,6,7,0,-671,321,350,133,0,500,200,8000,"[(512, 384), (512, 384), (512, 384), (512, 384), (512, 384), (512, 384), (512, 384), (512, 384), (512, 384), (512, 384), (512, 384), (512, 384), (512, 384), (512, 384), (512, 384), (512, 384), (512, 384), (512, 384), (512, 384), (512, 384), (512, 384), (512, 384), (512, 384), (512, 384), (512, 384), (512, 384), (512, 384), (512, 384), (512, 384), (512, 384), (512, 384), (512, 384), (512, 383), (512, 383), (512, 383), (512, 383), (512, 383), (512, 383), (512, 383), (512, 383), (512, 383), (512, 383), (512, 383), (512, 383), (512, 383), (512, 383), (512, 383), (512, 383), (512, 383), (512, 383), (512, 383), (512, 383), (513, 383), (513, 386), (513, 388), (513, 392), (512, 403), (509, 412), (507, 420), (504, 433), (494, 464), (488, 484), (484, 503), (476, 528), (462, 571), (456, 593), (450, 610), (445, 627)]",105.4146055,"[9, 5, 7, 6, 2, 1, 8, 4, 3]","(0, 0.25)",CHN001A,CHN,A,Chinese,Tue Aug 14 17:52:11 2018,Mouse
2,1,1,0,62,5,7,0,-382,292,90,134,0,500,200,8000,"[(512, 384), (512, 384), (512, 384), (512, 384), (512, 384), (512, 384), (512, 384), (512, 384), (512, 384), (512, 384), (512, 384), (512, 384), (512, 384), (512, 384), (512, 384), (512, 384), (512, 384), (512, 384), (512, 384), (512, 384), (512, 384), (512, 384), (512, 384), (512, 384), (512, 384), (512, 384), (512, 384), (512, 384), (512, 384), (512, 392), (510, 408), (502, 435), (495, 460), (481, 516), (478, 534), (472, 556), (466, 578), (458, 612), (453, 628)]",103.5933864,"[9, 5, 7, 6, 2, 1, 8, 4, 3]","(0, 0.25)",CHN001A,CHN,A,Chinese,Tue Aug 14 17:52:11 2018,Mouse
2,1,1,0,63,8,8,1,481,421,60,135,0,500,200,8000,"[(512, 384), (512, 384), (512, 384), (512, 384), (512, 384), (512, 384), (512, 384), (512, 384), (512, 384), (512, 384), (512, 384), (512, 384), (512, 384), (512, 384), (512, 384), (512, 384), (512, 384), (512, 384), (512, 384), (512, 384), (512, 384), (512, 384), (512, 384), (512, 384), (512, 384), (512, 384), (512, 384), (512, 384), (512, 384), (512, 384), (512, 384), (512, 384), (512, 384), (512, 384), (512, 384), (512, 384), (512, 384), (512, 384), (512, 384), (512, 384), (512, 384), (512, 384), (512, 382), (512, 345), (511, 311), (509, 271), (505, 232), (493, 156), (488, 124)]",264.726104,"[9, 5, 7, 6, 2, 1, 8, 4, 3]","(0, 0.25)",CHN001A,CHN,A,Chinese,Tue Aug 14 17:52:11 2018,Mouse
2,1,1,0,64,9,8,0,-285,155,130,135,0,500,200,8000,"[(512, 384), (512, 384), (512, 384), (512, 384), (512, 384), (512, 384), (512, 384), (512, 384), (512, 384), (512, 384), (512, 384), (512, 384), (512, 384), (512, 384), (512, 384), (512, 381), (512, 374), (512, 368), (512, 355), (512, 347), (512, 340), (513, 329), (516, 299), (516, 276), (516, 251), (516, 220), (502, 168), (492, 139), (481, 116)]",263.4018265,"[9, 5, 7, 6, 2, 1, 8, 4, 3]","(0, 0.25)",CHN001A,CHN,A,Chinese,Tue Aug 14 17:52:11 2018,Mouse
2,1,1,0,65,8,8,1,303,183,120,136,0,500,200,8000,"[(512, 384), (512, 384), (512, 384), (512, 384), (512, 384), (512, 384), (512, 384), (512, 384), (512, 384), (512, 384), (512, 384), (512, 384), (512, 384), (512, 384), (512, 384), (512, 384), (512, 384), (512, 384), (511, 385), (509, 376), (507, 362), (500, 342), (489, 300), (481, 278), (478, 254), (471, 231), (451, 189), (445, 174), (443, 162), (439, 152), (433, 131)]",252.6588711,"[9, 5, 7, 6, 2, 1, 8, 4, 3]","(0, 0.25)",CHN001A,CHN,A,Chinese,Tue Aug 14 17:52:11 2018,Mouse
2,1,1,0,66,4,9,0,-772,642,130,136,0,500,200,8000,"[(512, 384), (512, 384), (512, 384), (512, 384), (512, 384), (512, 384), (512, 384), (512, 384), (512, 384), (512, 384), (512, 384), (512, 384), (512, 384), (512, 384), (512, 384), (512, 384), (512, 384), (512, 384), (512, 384), (512, 384), (512, 384), (512, 384), (512, 384), (512, 384), (512, 384), (512, 384), (512, 384), (512, 384), (512, 384), (512, 384), (512, 384), (512, 384), (512, 384), (512, 384), (512, 384), (512, 384), (512, 384), (512, 384), (512, 384), (512, 384), (512, 384), (512, 384), (512, 384), (512, 384), (512, 384), (512, 384), (512, 384), (512, 384), (512, 384), (512, 384), (512, 384), (512, 384), (512, 384), (512, 384), (512, 384), (512, 384), (512, 384), (512, 384), (512, 384), (512, 384), (512, 384), (512, 384), (512, 384), (512, 384), (515, 384), (518, 384), (523, 384), (532, 387), (557, 394), (573, 399), (593, 406), (614, 415), (659, 439), (682, 448), (697, 454), (716, 464), (738, 477), (745, 482)]",22.81166386,"[9, 5, 7, 6, 2, 1, 8, 4, 3]","(0, 0.25)",CHN001A,CHN,A,Chinese,Tue Aug 14 17:52:11 2018,Mouse
2,1,1,0,67,5,5,1,442,262,180,137,0,500,200,8000,"[(512, 384), (512, 384), (512, 384), (512, 384), (512, 384), (512, 384), (512, 384), (512, 384), (512, 384), (512, 384), (512, 384), (512, 384), (512, 384), (512, 384), (512, 384), (512, 384), (512, 384), (512, 384), (512, 384), (512, 384), (512, 384), (512, 384), (512, 384), (512, 384), (512, 384), (512, 384), (519, 395), (532, 412), (544, 431), (556, 451), (575, 486), (584, 504), (590, 516), (597, 529), (603, 549), (606, 557), (609, 566), (613, 575), (616, 587), (618, 591), (618, 596), (621, 600), (622, 605), (623, 607), (625, 610)]",63.43494882,"[9, 5, 7, 6, 2, 1, 8, 4, 3]","(0, 0.25)",CHN001A,CHN,A,Chinese,Tue Aug 14 17:52:11 2018,Mouse
2,1,1,0,68,5,3,0,-551,431,120,137,0,500,200,8000,"[(512, 384), (512, 384), (512, 384), (512, 384), (512, 384), (512, 384), (512, 384), (512, 384), (512, 384), (512, 384), (512, 384), (512, 384), (512, 384), (512, 384), (512, 384), (512, 384), (512, 384), (512, 384), (512, 384), (512, 384), (512, 384), (512, 384), (512, 384), (512, 384), (512, 384), (512, 384), (512, 384), (512, 384), (512, 384), (512, 384), (512, 384), (512, 384), (512, 384), (512, 384), (512, 384), (512, 384), (512, 384), (512, 384), (512, 384), (512, 384), (512, 384), (512, 384), (512, 384), (512, 383), (513, 379), (520, 376), (532, 372), (566, 363), (589, 357), (609, 349), (634, 343), (684, 329), (706, 323), (729, 316), (748, 310), (785, 299)]",342.7057456,"[9, 5, 7, 6, 2, 1, 8, 4, 3]","(0, 0.25)",CHN001A,CHN,A,Chinese,Tue Aug 14 17:52:11 2018,Mouse
2,1,1,0,69,6,6,1,881,781,100,138,0,500,200,8000,"[(512, 384), (512, 384), (512, 384), (512, 384), (512, 384), (512, 384), (512, 384), (512, 384), (512, 384), (512, 384), (512, 384), (512, 384), (512, 384), (512, 384), (512, 384), (512, 384), (512, 384), (512, 384), (512, 384), (512, 384), (512, 384), (512, 384), (512, 384), (512, 384), (512, 384), (512, 384), (512, 384), (512, 384), (512, 384), (512, 384), (512, 384), (512, 384), (512, 384), (512, 384), (512, 384), (512, 384), (512, 384), (512, 384), (512, 384), (512, 384), (512, 384), (512, 384), (512, 384), (512, 384), (512, 384), (512, 384), (512, 384), (512, 384), (512, 384), (512, 384), (512, 384), (512, 384), (512, 384), (512, 384), (512, 384), (512, 384), (512, 384), (512, 384), (512, 384), (512, 384), (512, 384), (512, 384), (512, 384), (512, 384), (512, 384), (512, 384), (512, 384), (512, 384), (512, 384), (512, 384), (512, 384), (512, 384), (512, 384), (512, 384), (512, 384), (512, 384), (512, 384), (512, 384), (512, 385), (511, 389), (497, 400), (483, 411), (474, 424), (456, 438), (413, 472), (386, 495), (368, 511), (348, 529), (306, 565)]",138.696142,"[9, 5, 7, 6, 2, 1, 8, 4, 3]","(0, 0.25)",CHN001A,CHN,A,Chinese,Tue Aug 14 17:52:11 2018,Mouse
2,1,1,0,70,2,6,0,-521,421,100,138,0,500,200,8000,"[(512, 384), (512, 384), (512, 384), (512, 384), (512, 384), (512, 384), (512, 384), (512, 384), (512, 384), (512, 384), (512, 384), (512, 384), (512, 384), (512, 384), (512, 384), (512, 384), (512, 384), (512, 384), (512, 384), (512, 384), (512, 384), (512, 384), (512, 384), (512, 384), (512, 384), (512, 384), (512, 384), (512, 384), (512, 384), (512, 384), (512, 384), (512, 384), (512, 384), (512, 384), (512, 384), (512, 384), (512, 384), (512, 384), (512, 384), (512, 384), (512, 384), (512, 384), (512, 386), (510, 388), (494, 409), (481, 422), (471, 434), (450, 460), (409, 502), (393, 520), (376, 538), (359, 557), (329, 583)]",132.6015787,"[9, 5, 7, 6, 2, 1, 8, 4, 3]","(0, 0.25)",CHN001A,CHN,A,Chinese,Tue Aug 14 17:52:11 2018,Mouse
2,1,1,0,71,5,5,1,282,92,190,139,0,500,200,8000,"[(512, 384), (512, 384), (512, 384), (512, 384), (512, 384), (512, 384), (512, 384), (512, 384), (512, 384), (513, 384), (513, 384), (513, 384), (513, 384), (513, 384), (513, 384), (513, 384), (514, 384), (514, 384), (516, 384), (517, 384), (522, 389), (527, 398), (534, 413), (547, 435), (580, 494), (597, 522), (611, 551), (631, 582), (661, 633)]",59.10396894,"[9, 5, 7, 6, 2, 1, 8, 4, 3]","(0, 0.25)",CHN001A,CHN,A,Chinese,Tue Aug 14 17:52:11 2018,Mouse
2,1,1,0,72,8,8,1,840,620,220,139,0,500,200,8000,"[(512, 384), (512, 384), (512, 384), (512, 384), (512, 384), (512, 384), (512, 384), (512, 384), (512, 384), (512, 384), (512, 384), (512, 384), (512, 384), (512, 384), (512, 384), (512, 384), (512, 384), (512, 384), (512, 384), (512, 384), (512, 384), (512, 384), (512, 384), (512, 384), (512, 384), (512, 384), (512, 384), (512, 384), (512, 384), (512, 384), (512, 384), (512, 384), (512, 384), (512, 384), (512, 384), (512, 384), (512, 384), (512, 384), (512, 384), (512, 384), (512, 384), (512, 384), (512, 384), (512, 384), (512, 384), (512, 384), (512, 384), (512, 384), (512, 384), (512, 384), (512, 384), (512, 384), (512, 384), (512, 384), (512, 384), (512, 384), (512, 384), (512, 384), (512, 384), (512, 384), (512, 384), (511, 384), (510, 382), (509, 380), (507, 379), (506, 377), (505, 377), (503, 375), (501, 374), (501, 374), (501, 374), (500, 374), (499, 373), (498, 372), (496, 370), (494, 360), (493, 352), (491, 337), (485, 294), (480, 270), (475, 245), (467, 217), (460, 185), (447, 137)]",255.2564372,"[9, 5, 7, 6, 2, 1, 8, 4, 3]","(0, 0.25)",CHN001A,CHN,A,Chinese,Tue Aug 14 17:52:11 2018,Mouse
2,1,1,0,73,5,5,1,601,511,90,138,0,500,200,8000,"[(512, 384), (512, 384), (512, 384), (512, 384), (512, 384), (512, 384), (512, 384), (512, 384), (512, 384), (512, 384), (512, 384), (512, 384), (512, 384), (512, 384), (512, 384), (512, 384), (512, 384), (512, 384), (512, 384), (512, 384), (512, 384), (512, 384), (512, 384), (512, 384), (512, 384), (512, 384), (512, 384), (512, 384), (512, 384), (512, 384), (512, 384), (512, 384), (512, 384), (512, 384), (512, 384), (512, 384), (512, 384), (512, 384), (512, 384), (512, 384), (512, 384), (512, 384), (512, 384), (512, 384), (512, 384), (512, 384), (512, 384), (512, 384), (512, 384), (512, 384), (512, 384), (513, 385), (517, 394), (521, 404), (527, 417), (541, 458), (551, 486), (561, 517), (575, 547), (601, 607), (613, 639)]",68.39254976,"[9, 5, 7, 6, 2, 1, 8, 4, 3]","(0, 0.25)",CHN001A,CHN,A,Chinese,Tue Aug 14 17:52:11 2018,Mouse
2,1,1,0,74,1,8,0,-1231,121,1110,137,0,500,200,8000,"[(512, 384), (512, 384), (512, 384), (512, 384), (512, 384), (512, 384), (512, 384), (512, 384), (512, 384), (512, 384), (512, 384), (512, 384), (512, 383), (512, 382), (513, 382), (513, 382), (514, 382), (514, 382), (515, 382), (515, 382), (516, 381), (516, 381), (516, 381), (516, 381), (516, 381), (516, 381), (516, 381), (516, 381), (516, 381), (516, 381), (516, 381), (516, 381), (516, 381), (516, 381), (516, 381), (516, 381), (516, 381), (516, 381), (516, 381), (516, 381), (516, 381), (516, 381), (516, 381), (516, 381), (516, 381), (516, 381), (516, 381), (516, 381), (516, 381), (516, 381), (516, 381), (516, 381), (516, 381), (516, 381), (516, 381), (516, 381), (516, 381), (516, 381), (516, 381), (516, 381), (516, 381), (516, 381), (516, 381), (516, 381), (516, 381), (516, 381), (516, 381), (516, 381), (516, 381), (516, 381), (516, 381), (516, 381), (516, 381), (516, 381), (516, 381), (516, 381), (516, 381), (516, 381), (516, 381), (516, 381), (516, 381), (516, 381), (516, 381), (516, 381), (516, 381), (516, 381), (516, 381), (516, 381), (516, 381), (516, 381), (516, 381), (516, 381), (516, 381), (516, 381), (516, 381), (516, 381), (516, 381), (516, 381), (516, 381), (516, 381), (516, 381), (516, 381), (516, 381), (516, 381), (516, 381), (516, 381), (516, 381), (516, 381), (516, 381), (516, 381), (516, 381), (516, 381), (516, 381), (516, 381), (516, 381), (516, 381), (517, 378), (517, 370), (517, 357), (517, 341), (517, 269), (517, 221), (510, 175), (503, 127)]",267.9943526,"[9, 5, 7, 6, 2, 1, 8, 4, 3]","(0, 0.25)",CHN001A,CHN,A,Chinese,Tue Aug 14 17:52:11 2018,Mouse
2,1,1,0,75,7,7,1,463,353,110,138,0,500,200,8000,"[(512, 384), (512, 384), (512, 384), (512, 384), (512, 384), (512, 384), (512, 384), (512, 384), (512, 384), (512, 384), (512, 384), (512, 384), (512, 384), (512, 384), (512, 384), (512, 384), (512, 384), (512, 384), (512, 384), (512, 384), (512, 384), (512, 384), (512, 384), (512, 384), (512, 384), (512, 384), (512, 384), (512, 384), (512, 384), (512, 384), (512, 384), (512, 384), (512, 384), (512, 384), (512, 384), (512, 385), (508, 409), (505, 428), (497, 453), (491, 475), (476, 523), (470, 545), (464, 565), (460, 584), (452, 611), (451, 622), (450, 633)]",103.9820887,"[9, 5, 7, 6, 2, 1, 8, 4, 3]","(0, 0.25)",CHN001A,CHN,A,Chinese,Tue Aug 14 17:52:11 2018,Mouse
2,1,1,0,76,6,6,1,504,274,230,138,0,500,200,8000,"[(512, 384), (512, 384), (512, 384), (512, 384), (512, 384), (512, 384), (512, 384), (512, 384), (512, 384), (512, 384), (512, 384), (512, 384), (512, 384), (512, 384), (512, 384), (512, 384), (512, 384), (512, 384), (512, 384), (512, 384), (512, 384), (512, 384), (512, 384), (512, 384), (512, 384), (512, 384), (512, 384), (511, 384), (509, 384), (502, 389), (494, 393), (487, 399), (476, 404), (447, 421), (431, 429), (418, 436), (406, 441), (386, 457), (374, 464), (364, 472), (355, 480), (340, 492), (328, 501), (323, 505), (316, 512), (310, 516), (306, 518), (305, 519), (304, 520), (303, 521), (302, 522)]",146.6893692,"[9, 5, 7, 6, 2, 1, 8, 4, 3]","(0, 0.25)",CHN001A,CHN,A,Chinese,Tue Aug 14 17:52:11 2018,Mouse
2,1,1,0,77,9,9,1,605,425,180,137,0,500,200,8000,"[(512, 384), (512, 384), (512, 384), (512, 384), (512, 384), (512, 384), (512, 384), (512, 384), (512, 384), (512, 384), (512, 384), (512, 384), (512, 384), (512, 384), (512, 384), (512, 384), (512, 384), (512, 384), (512, 384), (512, 384), (512, 384), (512, 384), (512, 384), (512, 384), (512, 384), (512, 384), (512, 384), (512, 384), (512, 384), (512, 384), (512, 384), (512, 384), (512, 384), (512, 384), (512, 384), (512, 384), (512, 384), (512, 384), (512, 384), (512, 384), (512, 384), (512, 384), (512, 385), (515, 387), (516, 388), (521, 389), (539, 397), (547, 400), (557, 404), (567, 409), (600, 423), (615, 429), (628, 436), (646, 445), (672, 460), (682, 466), (693, 472), (703, 478), (722, 490), (731, 494), (738, 498)]",26.76750892,"[9, 5, 7, 6, 2, 1, 8, 4, 3]","(0, 0.25)",CHN001A,CHN,A,Chinese,Tue Aug 14 17:52:11 2018,Mouse
2,1,1,0,78,6,6,1,252,152,100,136,0,500,200,8000,"[(512, 384), (512, 384), (512, 384), (512, 384), (512, 384), (512, 384), (512, 384), (512, 384), (512, 384), (512, 384), (512, 384), (512, 384), (512, 384), (512, 384), (512, 384), (507, 390), (499, 399), (472, 422), (455, 435), (440, 449), (424, 463), (389, 492), (370, 509), (356, 521), (341, 534), (318, 555)]",138.6056517,"[9, 5, 7, 6, 2, 1, 8, 4, 3]","(0, 0.25)",CHN001A,CHN,A,Chinese,Tue Aug 14 17:52:11 2018,Mouse
2,1,1,0,79,3,9,0,-292,192,100,135,0,500,200,8000,"[(512, 384), (512, 384), (512, 384), (512, 384), (512, 384), (512, 384), (512, 384), (512, 384), (512, 384), (512, 384), (512, 384), (512, 384), (512, 384), (512, 384), (512, 384), (512, 384), (512, 384), (512, 384), (512, 384), (515, 384), (532, 390), (548, 397), (564, 403), (590, 414), (637, 435), (660, 444), (684, 457), (699, 463), (727, 477), (743, 483)]",23.19859051,"[9, 5, 7, 6, 2, 1, 8, 4, 3]","(0, 0.25)",CHN001A,CHN,A,Chinese,Tue Aug 14 17:52:11 2018,Mouse
2,1,1,0,80,1,7,0,-421,281,140,136,0,500,200,8000,"[(512, 384), (512, 384), (512, 384), (512, 384), (512, 384), (512, 384), (512, 384), (512, 384), (512, 384), (512, 384), (512, 384), (512, 384), (512, 384), (512, 384), (512, 384), (512, 384), (512, 384), (512, 384), (512, 384), (512, 384), (512, 384), (512, 384), (512, 384), (512, 384), (512, 384), (512, 384), (512, 384), (512, 384), (513, 386), (513, 393), (513, 401), (513, 411), (513, 439), (513, 456), (513, 472), (511, 488), (508, 521), (505, 537), (501, 558), (498, 579), (494, 615), (491, 632), (489, 645)]",95.0360443,"[9, 5, 7, 6, 2, 1, 8, 4, 3]","(0, 0.25)",CHN001A,CHN,A,Chinese,Tue Aug 14 17:52:11 2018,Mouse
2,1,1,0,81,7,7,1,272,172,100,137,0,500,200,8000,"[(512, 384), (512, 384), (512, 384), (512, 384), (512, 384), (512, 384), (512, 384), (512, 384), (512, 384), (512, 384), (512, 384), (512, 384), (512, 384), (512, 384), (512, 384), (512, 384), (512, 384), (513, 388), (513, 406), (513, 419), (513, 433), (513, 452), (513, 494), (513, 524), (509, 549), (506, 578), (498, 623), (491, 646)]",94.58261297,"[9, 5, 7, 6, 2, 1, 8, 4, 3]","(0, 0.25)",CHN001A,CHN,A,Chinese,Tue Aug 14 17:52:11 2018,Mouse
2,1,1,0,82,9,9,1,382,232,150,137,0,500,200,8000,"[(512, 384), (512, 384), (512, 384), (512, 384), (512, 384), (512, 384), (512, 384), (512, 384), (512, 384), (512, 384), (512, 384), (512, 384), (512, 384), (512, 384), (512, 384), (512, 384), (512, 384), (512, 384), (512, 384), (512, 384), (512, 384), (512, 384), (512, 384), (514, 384), (517, 384), (524, 384), (532, 385), (553, 391), (567, 395), (581, 399), (598, 403), (637, 416), (655, 423), (675, 430), (692, 435), (720, 449), (731, 452), (746, 458), (758, 463)]",17.80380909,"[9, 5, 7, 6, 2, 1, 8, 4, 3]","(0, 0.25)",CHN001A,CHN,A,Chinese,Tue Aug 14 17:52:11 2018,Mouse
2,1,1,0,83,2,9,0,-393,283,110,136,0,500,200,8000,"[(512, 384), (512, 384), (512, 384), (512, 384), (512, 384), (512, 384), (512, 384), (512, 384), (512, 384), (512, 384), (512, 384), (512, 384), (512, 384), (512, 384), (512, 384), (512, 384), (512, 384), (512, 384), (512, 384), (512, 384), (512, 384), (512, 384), (512, 384), (512, 384), (512, 384), (512, 384), (512, 384), (512, 384), (517, 384), (527, 386), (540, 391), (552, 397), (588, 409), (608, 416), (634, 426), (658, 437), (708, 457), (725, 464), (743, 471), (753, 475)]",20.68620351,"[9, 5, 7, 6, 2, 1, 8, 4, 3]","(0, 0.25)",CHN001A,CHN,A,Chinese,Tue Aug 14 17:52:11 2018,Mouse
2,1,1,0,84,3,5,0,-408,258,150,137,0,500,200,8000,"[(512, 384), (512, 384), (512, 384), (512, 384), (512, 384), (512, 384), (512, 384), (512, 384), (512, 384), (512, 384), (512, 384), (512, 384), (512, 384), (512, 384), (512, 384), (512, 384), (512, 384), (512, 384), (512, 384), (512, 384), (512, 384), (512, 384), (512, 384), (512, 384), (512, 384), (513, 384), (526, 398), (532, 409), (539, 422), (549, 438), (568, 471), (577, 488), (587, 504), (594, 518), (604, 534), (618, 554), (624, 564), (631, 575), (640, 588), (644, 593), (647, 598)]",57.7545856,"[9, 5, 7, 6, 2, 1, 8, 4, 3]","(0, 0.25)",CHN001A,CHN,A,Chinese,Tue Aug 14 17:52:11 2018,Mouse
2,1,1,0,85,8,8,1,772,532,240,138,0,500,200,8000,"[(512, 384), (512, 384), (512, 384), (512, 384), (512, 384), (512, 384), (512, 384), (512, 384), (512, 384), (512, 384), (512, 384), (512, 384), (512, 384), (512, 384), (512, 384), (512, 384), (512, 384), (512, 384), (512, 384), (512, 384), (512, 384), (512, 384), (512, 384), (512, 384), (512, 384), (512, 384), (512, 384), (512, 384), (512, 384), (512, 384), (512, 384), (512, 384), (512, 384), (512, 384), (512, 384), (512, 384), (512, 384), (512, 384), (512, 384), (512, 384), (512, 384), (512, 384), (512, 384), (512, 384), (512, 384), (512, 384), (512, 384), (512, 384), (512, 384), (512, 384), (512, 384), (512, 384), (512, 384), (511, 386), (510, 388), (509, 389), (508, 390), (508, 390), (508, 391), (508, 391), (508, 391), (508, 391), (508, 391), (508, 391), (508, 391), (508, 391), (508, 391), (508, 391), (508, 391), (508, 391), (508, 383), (508, 368), (505, 343), (505, 307), (500, 228), (492, 190), (487, 157), (482, 128)]",263.3161359,"[9, 5, 7, 6, 2, 1, 8, 4, 3]","(0, 0.25)",CHN001A,CHN,A,Chinese,Tue Aug 14 17:52:11 2018,Mouse
2,1,1,0,86,6,9,0,-761,691,70,138,0,500,200,8000,"[(512, 384), (512, 384), (512, 384), (512, 384), (512, 384), (512, 384), (512, 384), (512, 384), (512, 384), (512, 384), (512, 384), (512, 384), (512, 384), (512, 384), (512, 384), (512, 384), (512, 384), (512, 384), (512, 384), (512, 384), (512, 384), (512, 384), (512, 384), (512, 384), (512, 384), (512, 384), (512, 384), (512, 384), (512, 384), (512, 384), (512, 384), (512, 384), (512, 384), (512, 384), (512, 384), (512, 384), (512, 384), (512, 384), (512, 384), (512, 384), (512, 384), (512, 384), (512, 384), (512, 384), (512, 384), (512, 384), (512, 384), (512, 384), (512, 384), (512, 384), (512, 384), (512, 384), (512, 384), (512, 384), (512, 384), (512, 384), (512, 384), (512, 384), (512, 384), (512, 384), (512, 384), (512, 384), (512, 384), (512, 384), (512, 384), (512, 384), (512, 384), (512, 384), (512, 384), (514, 384), (536, 384), (554, 390), (579, 396), (609, 404), (692, 425), (731, 436), (772, 447)]",13.62068753,"[9, 5, 7, 6, 2, 1, 8, 4, 3]","(0, 0.25)",CHN001A,CHN,A,Chinese,Tue Aug 14 17:52:11 2018,Mouse
2,1,1,0,87,3,3,1,422,332,90,139,0,500,200,8000,"[(512, 384), (512, 384), (512, 384), (512, 384), (512, 384), (512, 384), (512, 384), (512, 384), (512, 384), (512, 384), (512, 384), (512, 384), (512, 384), (512, 384), (512, 384), (512, 384), (512, 384), (512, 384), (512, 384), (512, 384), (512, 384), (512, 384), (512, 384), (512, 384), (512, 384), (512, 384), (512, 384), (512, 384), (512, 384), (512, 384), (512, 384), (512, 384), (512, 384), (512, 382), (530, 381), (543, 377), (557, 376), (571, 375), (607, 370), (630, 367), (665, 362), (706, 354), (790, 341)]",351.2073817,"[9, 5, 7, 6, 2, 1, 8, 4, 3]","(0, 0.25)",CHN001A,CHN,A,Chinese,Tue Aug 14 17:52:11 2018,Mouse
2,1,1,0,88,2,6,0,-432,332,100,139,0,500,200,8000,"[(512, 384), (512, 384), (512, 384), (512, 384), (512, 384), (512, 384), (512, 384), (512, 384), (512, 384), (512, 384), (512, 384), (512, 384), (512, 384), (512, 384), (512, 384), (512, 384), (512, 384), (512, 384), (512, 384), (512, 384), (512, 384), (512, 384), (512, 384), (512, 384), (512, 384), (512, 384), (512, 384), (512, 384), (512, 384), (512, 384), (512, 384), (512, 384), (512, 384), (512, 385), (509, 390), (501, 396), (476, 420), (455, 438), (432, 458), (409, 476), (363, 512), (346, 525), (331, 537), (320, 546)]",139.8440004,"[9, 5, 7, 6, 2, 1, 8, 4, 3]","(0, 0.25)",CHN001A,CHN,A,Chinese,Tue Aug 14 17:52:11 2018,Mouse
2,1,1,0,89,1,1,1,530,400,130,140,0,500,200,8000,"[(512, 384), (512, 384), (512, 384), (512, 384), (512, 384), (512, 384), (512, 384), (512, 384), (512, 384), (512, 384), (512, 384), (512, 384), (512, 384), (512, 384), (512, 384), (512, 384), (512, 384), (512, 384), (512, 384), (512, 384), (512, 384), (512, 384), (512, 384), (512, 384), (512, 384), (512, 384), (512, 384), (512, 384), (512, 384), (512, 384), (512, 384), (512, 384), (512, 384), (512, 384), (512, 384), (512, 384), (512, 384), (512, 384), (512, 384), (506, 378), (484, 350), (473, 333), (461, 318), (448, 301), (416, 265), (406, 253), (393, 239), (383, 229), (368, 216), (363, 213), (357, 208), (353, 205), (343, 197)]",227.8945127,"[9, 5, 7, 6, 2, 1, 8, 4, 3]","(0, 0.25)",CHN001A,CHN,A,Chinese,Tue Aug 14 17:52:11 2018,Mouse
2,1,1,0,90,7,7,1,431,351,80,140,0,500,200,8000,"[(512, 384), (512, 384), (512, 384), (512, 384), (512, 384), (512, 384), (512, 384), (512, 384), (512, 384), (512, 384), (512, 384), (512, 384), (512, 384), (512, 384), (512, 384), (512, 384), (512, 384), (512, 384), (512, 384), (512, 384), (512, 384), (512, 384), (512, 384), (512, 384), (512, 384), (512, 384), (512, 384), (512, 384), (512, 384), (512, 384), (512, 384), (512, 384), (512, 384), (512, 384), (512, 384), (512, 391), (510, 407), (507, 430), (502, 463), (493, 527), (483, 558), (474, 593), (468, 616), (453, 658)]",102.1518672,"[9, 5, 7, 6, 2, 1, 8, 4, 3]","(0, 0.25)",CHN001A,CHN,A,Chinese,Tue Aug 14 17:52:11 2018,Mouse
2,1,1,0,91,2,2,1,652,562,90,139,0,500,200,8000,"[(512, 384), (512, 384), (512, 384), (512, 384), (512, 384), (512, 384), (512, 384), (512, 384), (512, 384), (512, 384), (512, 384), (512, 384), (512, 384), (512, 384), (512, 384), (512, 384), (512, 384), (512, 384), (512, 384), (512, 384), (512, 384), (512, 384), (512, 384), (512, 384), (512, 384), (512, 384), (512, 384), (512, 384), (512, 384), (512, 384), (512, 384), (512, 384), (512, 384), (512, 384), (512, 384), (512, 384), (512, 384), (512, 384), (512, 384), (512, 384), (512, 384), (512, 384), (512, 384), (512, 384), (512, 384), (512, 384), (512, 384), (512, 384), (512, 384), (512, 384), (512, 384), (512, 384), (512, 384), (512, 384), (512, 384), (512, 384), (502, 386), (491, 389), (477, 390), (460, 391), (412, 392), (384, 392), (356, 392), (331, 392), (280, 392), (258, 392)]",178.1960049,"[9, 5, 7, 6, 2, 1, 8, 4, 3]","(0, 0.25)",CHN001A,CHN,A,Chinese,Tue Aug 14 17:52:11 2018,Mouse
2,1,1,0,92,4,6,0,-592,422,170,138,0,500,200,8000,"[(512, 384), (512, 384), (512, 384), (512, 384), (512, 384), (512, 384), (512, 384), (512, 384), (512, 384), (512, 384), (512, 384), (512, 384), (512, 384), (512, 384), (512, 384), (512, 384), (512, 384), (512, 384), (512, 384), (512, 384), (512, 384), (512, 384), (512, 384), (512, 384), (512, 384), (512, 384), (512, 384), (512, 384), (512, 384), (512, 384), (512, 384), (512, 384), (512, 384), (512, 384), (512, 384), (512, 384), (512, 384), (512, 384), (512, 384), (512, 384), (512, 384), (512, 384), (512, 386), (499, 404), (488, 416), (479, 426), (465, 437), (435, 464), (425, 473), (411, 484), (398, 496), (382, 510), (373, 518), (365, 524), (357, 530), (348, 541), (345, 545), (342, 549), (337, 554), (332, 560)]",135.6437457,"[9, 5, 7, 6, 2, 1, 8, 4, 3]","(0, 0.25)",CHN001A,CHN,A,Chinese,Tue Aug 14 17:52:11 2018,Mouse
2,1,1,0,93,4,7,0,-303,233,70,139,0,500,200,8000,"[(512, 384), (512, 384), (512, 384), (512, 384), (512, 384), (512, 384), (512, 384), (512, 384), (512, 384), (512, 384), (512, 384), (512, 384), (512, 384), (512, 384), (512, 384), (512, 384), (512, 384), (512, 384), (512, 384), (512, 384), (512, 384), (512, 384), (512, 384), (508, 394), (495, 432), (487, 460), (479, 488), (471, 515), (456, 568), (448, 594), (440, 627)]",106.5043614,"[9, 5, 7, 6, 2, 1, 8, 4, 3]","(0, 0.25)",CHN001A,CHN,A,Chinese,Tue Aug 14 17:52:11 2018,Mouse
2,1,1,0,94,2,2,1,262,182,80,140,0,500,200,8000,"[(512, 384), (512, 384), (512, 384), (512, 384), (512, 384), (512, 384), (512, 384), (512, 384), (512, 384), (512, 384), (512, 384), (512, 384), (512, 384), (512, 384), (512, 384), (512, 384), (512, 384), (512, 384), (500, 383), (487, 383), (470, 383), (444, 380), (383, 373), (350, 373), (313, 370), (281, 366), (227, 363)]",184.2141785,"[9, 5, 7, 6, 2, 1, 8, 4, 3]","(0, 0.25)",CHN001A,CHN,A,Chinese,Tue Aug 14 17:52:11 2018,Mouse
2,1,1,0,95,1,1,1,361,221,140,140,0,500,200,8000,"[(512, 384), (512, 384), (512, 384), (512, 384), (512, 384), (512, 384), (512, 384), (512, 384), (512, 384), (512, 384), (512, 384), (512, 384), (512, 384), (512, 384), (512, 384), (512, 384), (512, 384), (512, 384), (512, 384), (512, 384), (512, 384), (512, 384), (512, 382), (506, 378), (491, 367), (483, 359), (474, 353), (461, 341), (433, 317), (416, 306), (402, 296), (376, 279), (367, 271), (354, 261), (343, 252), (334, 243), (318, 226)]",219.1605077,"[9, 5, 7, 6, 2, 1, 8, 4, 3]","(0, 0.25)",CHN001A,CHN,A,Chinese,Tue Aug 14 17:52:11 2018,Mouse
2,1,1,0,96,6,6,1,302,152,150,139,0,500,200,8000,"[(512, 384), (512, 384), (512, 384), (512, 384), (512, 384), (512, 384), (512, 384), (512, 384), (512, 384), (512, 384), (512, 384), (512, 384), (512, 384), (512, 384), (512, 384), (512, 390), (506, 396), (498, 402), (492, 407), (474, 431), (464, 445), (454, 462), (442, 477), (422, 503), (410, 518), (398, 531), (389, 540), (372, 556), (365, 565), (357, 573), (350, 581)]",129.4316582,"[9, 5, 7, 6, 2, 1, 8, 4, 3]","(0, 0.25)",CHN001A,CHN,A,Chinese,Tue Aug 14 17:52:11 2018,Mouse
2,1,1,0,97,2,2,1,424,44,380,138,0,500,200,8000,"[(512, 384), (512, 384), (512, 384), (512, 384), (511, 384), (511, 384), (511, 384), (511, 384), (511, 384), (511, 384), (511, 384), (511, 384), (511, 384), (511, 384), (511, 384), (511, 384), (511, 384), (511, 384), (511, 384), (511, 384), (511, 384), (511, 384), (511, 384), (511, 384), (511, 384), (511, 384), (511, 384), (511, 384), (511, 384), (511, 384), (511, 384), (511, 384), (511, 384), (511, 384), (509, 384), (503, 383), (478, 383), (463, 383), (442, 382), (412, 382), (337, 382), (298, 382), (256, 382)]",180.4476142,"[9, 5, 7, 6, 2, 1, 8, 4, 3]","(0, 0.25)",CHN001A,CHN,A,Chinese,Tue Aug 14 17:52:11 2018,Mouse
2,1,1,0,98,4,9,0,-382,262,120,137,0,500,200,8000,"[(512, 384), (512, 384), (512, 384), (512, 384), (512, 384), (512, 384), (512, 384), (512, 384), (512, 384), (512, 384), (512, 384), (512, 384), (512, 384), (512, 384), (512, 384), (512, 384), (512, 384), (512, 384), (512, 384), (512, 384), (512, 384), (512, 384), (512, 384), (512, 384), (512, 384), (512, 384), (519, 384), (524, 384), (534, 384), (542, 386), (567, 397), (584, 404), (601, 411), (616, 417), (661, 439), (685, 450), (708, 458), (725, 463), (757, 472)]",19.75745972,"[9, 5, 7, 6, 2, 1, 8, 4, 3]","(0, 0.25)",CHN001A,CHN,A,Chinese,Tue Aug 14 17:52:11 2018,Mouse
2,1,1,0,99,9,9,1,204,104,100,138,0,500,200,8000,"[(512, 384), (512, 384), (512, 384), (512, 384), (512, 384), (512, 384), (512, 384), (512, 384), (512, 384), (512, 384), (515, 384), (532, 390), (545, 394), (556, 401), (575, 409), (619, 429), (645, 441), (668, 448), (690, 461), (733, 477), (751, 484)]",22.70492394,"[9, 5, 7, 6, 2, 1, 8, 4, 3]","(0, 0.25)",CHN001A,CHN,A,Chinese,Tue Aug 14 17:52:11 2018,Mouse
2,1,1,0,100,6,6,1,391,261,130,138,0,500,200,8000,"[(512, 384), (512, 384), (512, 384), (512, 384), (512, 384), (512, 384), (512, 384), (512, 384), (512, 384), (512, 384), (512, 384), (512, 384), (512, 384), (512, 384), (512, 384), (512, 384), (512, 384), (512, 384), (512, 384), (512, 384), (512, 384), (512, 384), (512, 384), (512, 384), (512, 384), (512, 384), (507, 384), (499, 384), (480, 384), (468, 384), (452, 387), (433, 392), (405, 404), (385, 413), (363, 428), (345, 441), (319, 471), (307, 490), (302, 503), (295, 517)]",148.4957333,"[9, 5, 7, 6, 2, 1, 8, 4, 3]","(0, 0.25)",CHN001A,CHN,A,Chinese,Tue Aug 14 17:52:11 2018,Mouse
2,1,1,0,101,1,1,1,332,252,80,137,0,500,200,8000,"[(512, 384), (512, 384), (512, 384), (512, 384), (512, 384), (512, 384), (512, 384), (512, 384), (512, 384), (512, 384), (512, 384), (512, 384), (512, 384), (512, 384), (512, 384), (512, 384), (512, 384), (512, 384), (512, 384), (512, 384), (512, 384), (512, 384), (512, 384), (512, 384), (512, 384), (511, 383), (508, 378), (501, 369), (477, 340), (456, 314), (426, 282), (389, 249), (351, 211), (271, 145)]",224.761269,"[9, 5, 7, 6, 2, 1, 8, 4, 3]","(0, 0.25)",CHN001A,CHN,A,Chinese,Tue Aug 14 17:52:11 2018,Mouse
2,1,1,0,102,8,8,1,272,192,80,136,0,500,200,8000,"[(512, 384), (512, 384), (512, 384), (512, 384), (512, 384), (512, 384), (512, 384), (512, 384), (512, 384), (512, 384), (512, 384), (512, 384), (512, 384), (512, 384), (512, 384), (512, 384), (512, 384), (512, 384), (512, 384), (511, 378), (511, 371), (509, 360), (507, 347), (500, 305), (493, 278), (483, 247), (472, 210), (443, 142)]",254.0858791,"[9, 5, 7, 6, 2, 1, 8, 4, 3]","(0, 0.25)",CHN001A,CHN,A,Chinese,Tue Aug 14 17:52:11 2018,Mouse
2,1,1,0,103,3,4,0,-312,262,50,135,0,500,200,8000,"[(512, 384), (512, 384), (512, 384), (512, 384), (512, 384), (512, 384), (512, 384), (512, 384), (512, 384), (512, 384), (512, 384), (512, 384), (512, 384), (512, 384), (512, 384), (512, 384), (512, 384), (512, 384), (512, 384), (512, 384), (512, 384), (512, 384), (512, 384), (512, 384), (512, 384), (517, 378), (533, 354), (582, 284), (608, 240), (635, 204), (654, 166)]",303.0792615,"[9, 5, 7, 6, 2, 1, 8, 4, 3]","(0, 0.25)",CHN001A,CHN,A,Chinese,Tue Aug 14 17:52:11 2018,Mouse
2,1,1,0,104,4,6,0,-422,352,70,136,0,500,200,8000,"[(512, 384), (512, 384), (512, 384), (512, 384), (512, 384), (512, 384), (512, 384), (512, 384), (512, 384), (512, 384), (512, 384), (512, 384), (512, 384), (512, 384), (512, 384), (512, 384), (512, 384), (512, 384), (512, 384), (512, 384), (512, 384), (512, 384), (512, 384), (512, 384), (512, 384), (512, 384), (512, 384), (512, 384), (512, 384), (512, 384), (512, 384), (512, 384), (512, 384), (512, 384), (512, 384), (512, 383), (504, 389), (478, 426), (457, 454), (432, 488), (409, 516), (358, 570), (334, 590)]",130.8295635,"[9, 5, 7, 6, 2, 1, 8, 4, 3]","(0, 0.25)",CHN001A,CHN,A,Chinese,Tue Aug 14 17:52:11 2018,Mouse
2,1,1,0,105,7,7,1,281,181,100,137,0,500,200,8000,"[(512, 384), (512, 384), (512, 384), (512, 384), (512, 384), (512, 384), (512, 384), (512, 384), (512, 384), (512, 384), (512, 384), (512, 384), (512, 384), (512, 384), (512, 384), (512, 384), (512, 384), (512, 384), (511, 384), (507, 388), (502, 396), (498, 406), (494, 422), (473, 472), (463, 500), (455, 533), (448, 561), (434, 614), (431, 635)]",107.8853659,"[9, 5, 7, 6, 2, 1, 8, 4, 3]","(0, 0.25)",CHN001A,CHN,A,Chinese,Tue Aug 14 17:52:11 2018,Mouse
2,1,1,0,106,3,6,0,-394,274,120,137,0,500,200,8000,"[(512, 384), (512, 384), (512, 384), (512, 384), (512, 384), (512, 384), (512, 384), (512, 384), (512, 384), (512, 384), (512, 384), (512, 384), (512, 384), (512, 384), (512, 384), (512, 384), (512, 384), (512, 384), (512, 384), (512, 384), (512, 384), (512, 384), (512, 384), (512, 384), (512, 384), (512, 384), (512, 384), (513, 384), (512, 387), (508, 392), (503, 398), (485, 420), (471, 438), (451, 461), (429, 483), (383, 521), (367, 535), (348, 548), (335, 560), (294, 595)]",135.9348132,"[9, 5, 7, 6, 2, 1, 8, 4, 3]","(0, 0.25)",CHN001A,CHN,A,Chinese,Tue Aug 14 17:52:11 2018,Mouse
2,1,1,0,107,4,6,0,-252,112,140,138,0,500,200,8000,"[(512, 384), (512, 384), (512, 384), (512, 384), (512, 384), (512, 384), (512, 384), (512, 384), (512, 384), (512, 384), (512, 384), (511, 384), (508, 388), (503, 393), (496, 400), (489, 406), (469, 425), (457, 438), (446, 450), (436, 463), (413, 488), (400, 502), (386, 520), (373, 535), (347, 560), (332, 572)]",133.7546357,"[9, 5, 7, 6, 2, 1, 8, 4, 3]","(0, 0.25)",CHN001A,CHN,A,Chinese,Tue Aug 14 17:52:11 2018,Mouse
2,1,1,0,108,2,2,1,281,181,100,139,0,500,200,8000,"[(512, 384), (512, 384), (512, 384), (512, 384), (512, 384), (512, 384), (512, 384), (512, 384), (512, 384), (512, 384), (512, 384), (512, 384), (512, 384), (512, 384), (512, 384), (512, 384), (512, 384), (512, 384), (507, 384), (501, 384), (491, 384), (475, 384), (439, 384), (420, 384), (392, 384), (364, 384), (308, 384), (280, 384), (258, 384)]",180,"[9, 5, 7, 6, 2, 1, 8, 4, 3]","(0, 0.25)",CHN001A,CHN,A,Chinese,Tue Aug 14 17:52:11 2018,Mouse
2,1,1,0,109,2,2,1,257,177,80,139,0,500,200,8000,"[(512, 384), (512, 384), (512, 384), (512, 384), (512, 384), (512, 384), (512, 384), (512, 384), (512, 384), (512, 384), (512, 384), (512, 384), (512, 384), (512, 384), (512, 384), (512, 384), (512, 384), (504, 384), (490, 385), (473, 388), (453, 388), (392, 388), (361, 388), (330, 389), (299, 389), (238, 389)]",178.9545726,"[9, 5, 7, 6, 2, 1, 8, 4, 3]","(0, 0.25)",CHN001A,CHN,A,Chinese,Tue Aug 14 17:52:11 2018,Mouse
2,1,1,0,110,1,1,1,203,123,80,138,0,500,200,8000,"[(512, 384), (512, 384), (512, 384), (512, 384), (512, 384), (512, 384), (512, 384), (512, 384), (512, 384), (512, 384), (512, 384), (512, 384), (513, 384), (512, 379), (496, 366), (476, 348), (420, 298), (392, 275), (355, 250), (324, 226), (260, 180)]",218.990994,"[9, 5, 7, 6, 2, 1, 8, 4, 3]","(0, 0.25)",CHN001A,CHN,A,Chinese,Tue Aug 14 17:52:11 2018,Mouse
2,1,1,0,111,1,1,1,231,31,200,137,0,500,200,8000,"[(512, 384), (512, 384), (512, 384), (511, 384), (510, 384), (509, 384), (509, 384), (509, 384), (508, 384), (508, 384), (508, 384), (508, 384), (508, 384), (507, 384), (506, 384), (506, 384), (499, 384), (494, 384), (476, 379), (452, 366), (382, 331), (333, 306), (292, 281), (259, 258)]",206.4743934,"[9, 5, 7, 6, 2, 1, 8, 4, 3]","(0, 0.25)",CHN001A,CHN,A,Chinese,Tue Aug 14 17:52:11 2018,Mouse
2,1,1,0,112,8,8,1,202,172,30,136,0,500,200,8000,"[(512, 384), (512, 384), (512, 384), (512, 384), (512, 384), (512, 384), (512, 384), (512, 384), (512, 384), (512, 384), (512, 384), (512, 384), (512, 384), (512, 384), (512, 384), (512, 384), (512, 384), (513, 332), (510, 259), (499, 169), (486, 88)]",264.9801464,"[9, 5, 7, 6, 2, 1, 8, 4, 3]","(0, 0.25)",CHN001A,CHN,A,Chinese,Tue Aug 14 17:52:11 2018,Mouse
2,1,1,0,113,6,6,1,412,292,120,135,0,500,200,8000,"[(512, 384), (512, 384), (512, 384), (512, 384), (512, 384), (512, 384), (512, 384), (512, 384), (512, 384), (512, 384), (512, 384), (512, 384), (512, 384), (512, 384), (512, 384), (512, 384), (512, 384), (512, 384), (512, 384), (512, 384), (512, 384), (512, 384), (512, 384), (512, 384), (512, 384), (512, 384), (512, 384), (512, 384), (512, 384), (509, 387), (507, 389), (504, 394), (498, 402), (487, 417), (479, 427), (470, 440), (460, 455), (437, 495), (420, 523), (408, 542), (391, 567), (364, 600)]",124.4183645,"[9, 5, 7, 6, 2, 1, 8, 4, 3]","(0, 0.25)",CHN001A,CHN,A,Chinese,Tue Aug 14 17:52:11 2018,Mouse
2,1,1,0,114,2,2,1,146,16,130,134,0,500,200,8000,"[(512, 384), (508, 386), (494, 388), (486, 389), (475, 389), (461, 389), (430, 389), (410, 389), (391, 389), (371, 389), (332, 389), (309, 389), (290, 389), (267, 389), (217, 395)]",177.8645366,"[9, 5, 7, 6, 2, 1, 8, 4, 3]","(0, 0.25)",CHN001A,CHN,A,Chinese,Tue Aug 14 17:52:11 2018,Mouse
2,1,1,0,115,8,1,0,-472,352,120,133,0,500,200,8000,"[(512, 384), (512, 384), (512, 384), (512, 384), (512, 384), (512, 384), (512, 384), (512, 384), (512, 384), (512, 384), (512, 384), (512, 384), (512, 384), (512, 384), (512, 384), (512, 384), (512, 384), (512, 384), (512, 384), (512, 384), (512, 384), (512, 384), (512, 384), (512, 384), (512, 384), (512, 384), (512, 384), (512, 384), (512, 384), (512, 384), (512, 384), (512, 384), (512, 384), (512, 384), (512, 384), (509, 380), (485, 355), (464, 337), (449, 323), (429, 308), (391, 286), (379, 279), (369, 274), (362, 272), (340, 267), (326, 267), (309, 266), (277, 261)]",207.6277515,"[9, 5, 7, 6, 2, 1, 8, 4, 3]","(0, 0.25)",CHN001A,CHN,A,Chinese,Tue Aug 14 17:52:11 2018,Mouse
2,1,1,0,116,8,1,0,-262,192,70,134,0,500,200,8000,"[(512, 384), (512, 384), (512, 384), (512, 384), (512, 384), (512, 384), (512, 384), (512, 384), (512, 384), (512, 384), (512, 384), (512, 384), (512, 384), (512, 384), (512, 384), (512, 384), (512, 384), (512, 384), (512, 384), (513, 383), (511, 374), (491, 357), (471, 339), (442, 318), (413, 293), (335, 238), (296, 211)]",218.6921422,"[9, 5, 7, 6, 2, 1, 8, 4, 3]","(0, 0.25)",CHN001A,CHN,A,Chinese,Tue Aug 14 17:52:11 2018,Mouse
2,1,1,0,117,4,6,0,-243,133,110,135,0,500,200,8000,"[(512, 384), (512, 384), (512, 384), (512, 384), (512, 384), (512, 384), (512, 384), (512, 384), (512, 384), (512, 384), (512, 384), (512, 384), (512, 384), (510, 385), (509, 387), (497, 392), (490, 399), (481, 406), (469, 416), (443, 441), (426, 461), (410, 482), (392, 505), (348, 548), (323, 565)]",136.2386347,"[9, 5, 7, 6, 2, 1, 8, 4, 3]","(0, 0.25)",CHN001A,CHN,A,Chinese,Tue Aug 14 17:52:11 2018,Mouse
2,1,1,0,118,7,1,0,-291,221,70,136,0,500,200,8000,"[(512, 384), (512, 384), (512, 384), (512, 384), (512, 384), (512, 384), (512, 384), (512, 384), (512, 384), (512, 384), (512, 384), (512, 384), (512, 384), (512, 384), (512, 384), (512, 384), (512, 384), (512, 384), (512, 384), (512, 384), (512, 384), (512, 384), (512, 383), (501, 374), (483, 364), (460, 350), (428, 332), (354, 288), (321, 270), (283, 247)]",210.8901116,"[9, 5, 7, 6, 2, 1, 8, 4, 3]","(0, 0.25)",CHN001A,CHN,A,Chinese,Tue Aug 14 17:52:11 2018,Mouse
2,1,1,0,119,9,9,1,342,22,320,137,0,500,200,8000,"[(512, 384), (512, 384), (512, 383), (512, 383), (512, 383), (512, 383), (512, 383), (512, 383), (512, 383), (512, 383), (512, 383), (512, 383), (512, 383), (512, 383), (512, 383), (512, 383), (512, 383), (512, 383), (512, 383), (512, 383), (512, 383), (512, 383), (512, 383), (512, 383), (512, 383), (512, 383), (524, 386), (538, 391), (551, 396), (571, 402), (627, 419), (663, 430), (702, 441), (739, 446), (807, 467)]",15.71426223,"[9, 5, 7, 6, 2, 1, 8, 4, 3]","(0, 0.25)",CHN001A,CHN,A,Chinese,Tue Aug 14 17:52:11 2018,Mouse
2,1,1,0,120,4,1,0,-201,141,60,137,0,500,200,8000,"[(512, 384), (512, 384), (512, 384), (512, 384), (512, 384), (512, 384), (512, 384), (512, 384), (512, 384), (512, 384), (512, 384), (512, 384), (512, 384), (512, 384), (511, 383), (490, 365), (465, 348), (434, 326), (403, 303), (325, 248), (283, 214)]",216.5886443,"[9, 5, 7, 6, 2, 1, 8, 4, 3]","(0, 0.25)",CHN001A,CHN,A,Chinese,Tue Aug 14 17:52:11 2018,Mouse
2,1,1,0,121,7,1,0,-184,84,100,138,0,500,200,8000,"[(512, 384), (512, 384), (512, 384), (512, 384), (512, 384), (512, 384), (512, 384), (512, 384), (512, 382), (510, 380), (496, 372), (491, 369), (481, 363), (472, 355), (436, 331), (409, 311), (378, 294), (342, 269), (277, 233)]",212.7229019,"[9, 5, 7, 6, 2, 1, 8, 4, 3]","(0, 0.25)",CHN001A,CHN,A,Chinese,Tue Aug 14 17:52:11 2018,Mouse
2,1,1,0,122,9,9,1,352,32,320,139,0,500,200,8000,"[(512, 384), (512, 384), (512, 384), (514, 383), (521, 380), (524, 379), (528, 377), (532, 375), (537, 371), (540, 371), (542, 369), (543, 368), (544, 368), (544, 367), (544, 367), (546, 367), (547, 366), (547, 366), (547, 366), (547, 365), (548, 364), (548, 364), (549, 364), (550, 363), (553, 362), (554, 361), (558, 361), (565, 359), (588, 359), (603, 359), (622, 367), (643, 378), (691, 413), (712, 432), (736, 456), (757, 482)]",21.80140949,"[9, 5, 7, 6, 2, 1, 8, 4, 3]","(0, 0.25)",CHN001A,CHN,A,Chinese,Tue Aug 14 17:52:11 2018,Mouse
2,1,1,0,123,5,1,0,-390,330,60,139,0,500,200,8000,"[(512, 384), (512, 384), (512, 384), (512, 384), (512, 384), (512, 384), (512, 384), (512, 384), (512, 384), (512, 384), (512, 384), (512, 384), (512, 384), (512, 384), (512, 384), (512, 384), (512, 384), (512, 384), (512, 384), (512, 384), (512, 384), (512, 384), (512, 384), (512, 384), (512, 384), (512, 384), (512, 384), (512, 384), (512, 384), (512, 384), (512, 384), (512, 384), (508, 378), (496, 367), (477, 350), (451, 325), (385, 269), (343, 239), (309, 215)]",219.7777981,"[9, 5, 7, 6, 2, 1, 8, 4, 3]","(0, 0.25)",CHN001A,CHN,A,Chinese,Tue Aug 14 17:52:11 2018,Mouse
2,1,1,0,124,9,9,1,223,13,210,140,0,500,200,8000,"[(512, 384), (518, 387), (534, 394), (540, 396), (547, 399), (552, 403), (568, 409), (578, 414), (588, 417), (599, 423), (622, 433), (635, 439), (644, 442), (654, 445), (670, 454), (679, 459), (688, 464), (693, 467), (709, 476), (716, 481), (725, 486), (735, 490), (753, 499)]",25.50946949,"[9, 5, 7, 6, 2, 1, 8, 4, 3]","(0, 0.25)",CHN001A,CHN,A,Chinese,Tue Aug 14 17:52:11 2018,Mouse
2,1,1,0,125,9,9,1,234,14,220,140,0,500,200,8000,"[(514, 384), (518, 384), (519, 384), (526, 386), (528, 386), (531, 387), (534, 387), (541, 388), (547, 389), (551, 389), (557, 390), (572, 394), (582, 397), (593, 399), (603, 402), (627, 409), (640, 413), (656, 419), (668, 421), (699, 431), (711, 434), (724, 438), (736, 442), (761, 449)]",14.63024064,"[9, 5, 7, 6, 2, 1, 8, 4, 3]","(0, 0.25)",CHN001A,CHN,A,Chinese,Tue Aug 14 17:52:11 2018,Mouse
2,1,1,0,126,8,8,1,171,61,110,139,0,500,200,8000,"[(512, 384), (512, 384), (512, 384), (512, 384), (512, 384), (512, 384), (510, 383), (507, 375), (500, 354), (495, 336), (490, 319), (486, 303), (471, 267), (462, 246), (453, 225), (442, 202), (420, 154), (410, 131)]",248.0425779,"[9, 5, 7, 6, 2, 1, 8, 4, 3]","(0, 0.25)",CHN001A,CHN,A,Chinese,Tue Aug 14 17:52:11 2018,Mouse
2,1,1,0,127,1,4,0,-269,209,60,138,0,500,200,8000,"[(512, 384), (512, 384), (512, 384), (512, 384), (512, 384), (512, 384), (512, 384), (512, 384), (512, 384), (512, 384), (512, 384), (512, 384), (512, 384), (512, 384), (512, 384), (512, 384), (512, 384), (512, 384), (512, 384), (512, 384), (512, 382), (520, 369), (545, 310), (560, 273), (577, 234), (592, 199), (622, 122)]",292.7749695,"[9, 5, 7, 6, 2, 1, 8, 4, 3]","(0, 0.25)",CHN001A,CHN,A,Chinese,Tue Aug 14 17:52:11 2018,Mouse
2,1,1,0,128,9,9,1,241,121,120,139,0,500,200,8000,"[(512, 384), (512, 384), (512, 384), (512, 384), (512, 384), (512, 384), (512, 384), (512, 384), (512, 384), (512, 384), (512, 384), (514, 384), (515, 384), (518, 384), (522, 384), (536, 384), (547, 384), (561, 389), (578, 394), (626, 416), (644, 425), (673, 440), (702, 452), (763, 480)]",20.93035901,"[9, 5, 7, 6, 2, 1, 8, 4, 3]","(0, 0.25)",CHN001A,CHN,A,Chinese,Tue Aug 14 17:52:11 2018,Mouse
2,1,1,0,129,3,3,1,642,362,280,139,0,500,200,8000,"[(512, 384), (512, 384), (512, 384), (512, 384), (512, 384), (512, 384), (512, 384), (512, 384), (512, 384), (512, 384), (512, 384), (512, 384), (512, 384), (512, 384), (512, 384), (512, 384), (512, 384), (512, 384), (512, 384), (512, 384), (512, 384), (512, 384), (512, 384), (512, 384), (512, 384), (512, 384), (512, 384), (512, 384), (512, 384), (512, 384), (512, 384), (512, 384), (512, 384), (512, 384), (512, 384), (512, 384), (507, 382), (504, 381), (497, 379), (494, 377), (486, 376), (482, 374), (482, 374), (482, 374), (482, 374), (482, 374), (482, 374), (482, 374), (482, 374), (482, 374), (482, 374), (482, 374), (481, 373), (483, 372), (487, 372), (494, 372), (512, 372), (525, 372), (540, 372), (561, 372), (619, 372), (653, 372), (692, 369), (730, 363), (789, 355)]",354.0232976,"[9, 5, 7, 6, 2, 1, 8, 4, 3]","(0, 0.25)",CHN001A,CHN,A,Chinese,Tue Aug 14 17:52:11 2018,Mouse
2,1,1,0,130,8,8,1,202,122,80,138,0,500,200,8000,"[(512, 384), (512, 384), (512, 384), (512, 384), (512, 384), (512, 384), (512, 384), (512, 384), (512, 384), (512, 384), (512, 384), (512, 384), (512, 381), (512, 376), (512, 369), (512, 362), (509, 329), (506, 308), (495, 266), (481, 225), (450, 130)]",256.2826537,"[9, 5, 7, 6, 2, 1, 8, 4, 3]","(0, 0.25)",CHN001A,CHN,A,Chinese,Tue Aug 14 17:52:11 2018,Mouse
2,1,1,0,131,1,1,1,243,163,80,137,0,500,200,8000,"[(512, 384), (512, 384), (512, 384), (512, 384), (512, 384), (512, 384), (512, 384), (512, 384), (512, 384), (512, 384), (512, 384), (512, 384), (512, 384), (512, 384), (512, 384), (512, 384), (510, 383), (502, 376), (489, 360), (472, 341), (431, 297), (402, 269), (377, 243), (348, 217), (282, 165)]",223.5965979,"[9, 5, 7, 6, 2, 1, 8, 4, 3]","(0, 0.25)",CHN001A,CHN,A,Chinese,Tue Aug 14 17:52:11 2018,Mouse
2,1,1,0,132,6,1,0,-192,92,100,136,0,500,200,8000,"[(512, 384), (512, 384), (512, 384), (512, 384), (512, 384), (512, 384), (512, 384), (512, 384), (512, 384), (511, 381), (507, 377), (498, 373), (478, 359), (464, 348), (441, 331), (413, 312), (368, 280), (346, 266), (322, 246), (292, 226)]",215.6852202,"[9, 5, 7, 6, 2, 1, 8, 4, 3]","(0, 0.25)",CHN001A,CHN,A,Chinese,Tue Aug 14 17:52:11 2018,Mouse
2,1,1,0,133,4,9,0,-424,354,70,137,0,500,200,8000,"[(512, 384), (512, 384), (512, 384), (512, 384), (512, 384), (512, 384), (512, 384), (512, 384), (512, 384), (512, 384), (512, 384), (512, 384), (512, 384), (512, 384), (512, 384), (512, 384), (512, 384), (512, 384), (512, 384), (512, 384), (512, 384), (512, 384), (512, 384), (512, 384), (512, 384), (512, 384), (512, 384), (512, 384), (512, 384), (512, 384), (512, 384), (512, 384), (512, 384), (512, 384), (512, 384), (512, 385), (519, 387), (530, 392), (574, 408), (616, 421), (669, 437), (721, 452), (846, 487)]",17.13888532,"[9, 5, 7, 6, 2, 1, 8, 4, 3]","(0, 0.25)",CHN001A,CHN,A,Chinese,Tue Aug 14 17:52:11 2018,Mouse
2,1,1,0,134,5,3,0,-432,362,70,138,0,500,200,8000,"[(512, 384), (512, 384), (512, 384), (512, 384), (512, 384), (512, 384), (512, 384), (512, 384), (512, 384), (512, 384), (512, 384), (512, 384), (512, 384), (512, 384), (512, 384), (512, 384), (512, 384), (512, 384), (512, 384), (512, 384), (512, 384), (512, 384), (512, 384), (512, 384), (512, 384), (512, 384), (512, 384), (512, 384), (512, 384), (512, 384), (512, 384), (512, 384), (512, 384), (512, 384), (512, 384), (512, 384), (515, 383), (539, 379), (556, 376), (584, 368), (620, 357), (705, 324), (745, 309), (784, 294)]",341.6915317,"[9, 5, 7, 6, 2, 1, 8, 4, 3]","(0, 0.25)",CHN001A,CHN,A,Chinese,Tue Aug 14 17:52:11 2018,Mouse
2,1,1,0,135,8,8,1,282,162,120,139,0,500,200,8000,"[(512, 384), (512, 384), (512, 384), (512, 384), (512, 384), (512, 384), (512, 384), (512, 384), (512, 384), (512, 384), (512, 384), (512, 384), (512, 384), (512, 384), (512, 384), (512, 384), (515, 381), (515, 374), (515, 367), (515, 344), (513, 330), (508, 314), (503, 295), (491, 258), (485, 239), (481, 223), (476, 206), (463, 159), (455, 131)]",257.303451,"[9, 5, 7, 6, 2, 1, 8, 4, 3]","(0, 0.25)",CHN001A,CHN,A,Chinese,Tue Aug 14 17:52:11 2018,Mouse
2,1,1,1,1,6,7,0,-70,20,50,137,3,500,200,8000,"[(530, 401), (547, 421), (571, 479), (576, 509), (576, 550), (574, 585), (539, 667)]",84.5501139,"[9, 5, 7, 6, 2, 1, 8, 4, 3]","(0, 0.25)",CHN001A,CHN,A,Chinese,Tue Aug 14 17:52:11 2018,Mouse
