NativeLangNumber,LanuageNumber,SessionNumber,Block,TrialNum,ConditionNumber,Response,Accuracy,RT,MovementOnsetTime,TimeInMotion,SignalContrast,SignalContrastNumber,StimDisplayTime,MaskTime,MaxResponseTime,MousePositionXY,MouseAngle,WheelOrder,NoiseMuSigma,ParticipantID,LanuageTested,SessionTested,NativeLanuage,Date,ResponseDevice
2,1,4,0,1,6,6,1,305,245,60,153,0,500,200,8000,"[(512, 384), (512, 384), (512, 384), (512, 384), (512, 384), (512, 384), (512, 384), (512, 384), (512, 384), (512, 384), (512, 384), (512, 384), (512, 384), (512, 384), (512, 384), (512, 384), (512, 384), (512, 384), (512, 384), (512, 384), (512, 384), (512, 384), (512, 384), (512, 384), (497, 375), (445, 343), (420, 325), (397, 309), (371, 288), (316, 252), (288, 236)]",213.45330945407267,"[7, 2, 4, 1, 8, 6, 9, 3, 5]","(0, 0.25)",CHN010D,CHN,D,Chinese,Thu Nov  8 13:58:34 2018,Mouse
2,1,4,0,2,4,4,1,481,391,90,153,0,500,200,8000,"[(512, 384), (512, 384), (512, 384), (512, 384), (512, 384), (512, 384), (512, 384), (512, 384), (512, 384), (512, 384), (512, 384), (512, 384), (512, 384), (512, 384), (512, 384), (512, 384), (512, 384), (512, 384), (512, 384), (512, 384), (512, 384), (512, 384), (512, 384), (512, 384), (512, 384), (512, 384), (512, 384), (512, 384), (512, 384), (512, 384), (512, 384), (512, 384), (512, 384), (512, 384), (512, 384), (512, 384), (512, 384), (512, 384), (512, 384), (512, 388), (509, 409), (506, 420), (501, 436), (498, 447), (491, 477), (487, 496), (484, 520), (479, 563), (468, 638)]",99.82772401116311,"[7, 2, 4, 1, 8, 6, 9, 3, 5]","(0, 0.25)",CHN010D,CHN,D,Chinese,Thu Nov  8 13:58:34 2018,Mouse
2,1,4,0,3,4,4,1,232,12,220,152,0,500,200,8000,"[(512, 384), (510, 388), (508, 399), (507, 411), (502, 433), (500, 442), (499, 449), (497, 457), (495, 473), (494, 484), (492, 496), (491, 508), (491, 541), (491, 553), (489, 564), (488, 571), (487, 579), (487, 583), (487, 586), (487, 590), (485, 604), (484, 614), (480, 623), (478, 633)]",97.77543407916005,"[7, 2, 4, 1, 8, 6, 9, 3, 5]","(0, 0.25)",CHN010D,CHN,D,Chinese,Thu Nov  8 13:58:34 2018,Mouse
2,1,4,0,4,4,4,1,321,51,270,151,0,500,200,8000,"[(512, 384), (512, 384), (512, 384), (512, 384), (512, 384), (513, 384), (513, 384), (513, 385), (512, 391), (512, 395), (508, 402), (507, 411), (502, 428), (499, 438), (497, 447), (493, 457), (487, 477), (485, 486), (482, 494), (479, 501), (475, 517), (472, 527), (470, 537), (466, 548), (463, 563), (461, 573), (460, 580), (460, 590), (460, 606), (460, 614), (460, 621), (460, 626), (460, 637)]",101.6144629826428,"[7, 2, 4, 1, 8, 6, 9, 3, 5]","(0, 0.25)",CHN010D,CHN,D,Chinese,Thu Nov  8 13:58:34 2018,Mouse
2,1,4,0,5,5,5,1,431,311,120,150,0,500,200,8000,"[(512, 384), (512, 384), (512, 384), (512, 384), (512, 384), (512, 384), (512, 384), (512, 384), (512, 384), (512, 384), (512, 384), (512, 384), (512, 384), (512, 384), (512, 384), (512, 384), (512, 384), (512, 384), (512, 384), (512, 384), (512, 384), (512, 384), (512, 384), (512, 384), (512, 384), (512, 384), (512, 384), (512, 384), (512, 384), (512, 384), (512, 384), (514, 383), (514, 380), (517, 379), (522, 377), (534, 368), (561, 356), (574, 351), (586, 345), (604, 342), (666, 319), (703, 308), (739, 298), (757, 291)]",339.2136469472955,"[7, 2, 4, 1, 8, 6, 9, 3, 5]","(0, 0.25)",CHN010D,CHN,D,Chinese,Thu Nov  8 13:58:34 2018,Mouse
2,1,4,0,6,3,3,1,613,43,570,149,0,500,200,8000,"[(512, 384), (512, 384), (512, 384), (512, 384), (513, 384), (515, 384), (517, 384), (517, 384), (517, 384), (518, 384), (518, 384), (518, 384), (518, 384), (518, 384), (518, 384), (518, 384), (518, 384), (518, 384), (518, 384), (518, 383), (519, 383), (519, 383), (519, 383), (519, 383), (519, 383), (519, 383), (519, 383), (519, 383), (519, 383), (519, 383), (519, 383), (519, 383), (519, 383), (519, 383), (519, 383), (519, 383), (519, 383), (519, 383), (519, 383), (519, 383), (519, 383), (519, 383), (519, 383), (519, 383), (519, 383), (519, 383), (519, 383), (519, 383), (519, 383), (519, 383), (519, 383), (520, 383), (524, 380), (536, 359), (542, 347), (547, 335), (552, 322), (564, 285), (571, 263), (588, 230), (601, 204), (627, 155)]",296.6650437099647,"[7, 2, 4, 1, 8, 6, 9, 3, 5]","(0, 0.25)",CHN010D,CHN,D,Chinese,Thu Nov  8 13:58:34 2018,Mouse
2,1,4,0,7,6,6,1,462,122,340,148,0,500,200,8000,"[(512, 384), (512, 384), (512, 384), (512, 384), (512, 384), (512, 384), (512, 384), (512, 384), (512, 384), (512, 384), (512, 384), (512, 384), (510, 383), (510, 382), (509, 382), (508, 382), (507, 381), (507, 381), (507, 381), (507, 381), (507, 381), (507, 381), (507, 381), (507, 381), (507, 381), (507, 381), (507, 381), (507, 381), (507, 381), (506, 380), (506, 379), (506, 379), (504, 375), (503, 373), (499, 367), (496, 363), (485, 351), (478, 344), (470, 336), (460, 327), (433, 305), (418, 293), (404, 282), (386, 268), (359, 248), (334, 233), (318, 222)]",219.86362150757225,"[7, 2, 4, 1, 8, 6, 9, 3, 5]","(0, 0.25)",CHN010D,CHN,D,Chinese,Thu Nov  8 13:58:34 2018,Mouse
2,1,4,0,8,8,8,1,432,12,420,147,0,500,200,8000,"[(512, 384), (515, 382), (515, 382), (515, 382), (515, 382), (515, 382), (515, 382), (515, 382), (515, 382), (515, 382), (515, 382), (515, 382), (515, 382), (515, 382), (515, 382), (515, 382), (515, 382), (515, 382), (515, 382), (515, 382), (515, 382), (515, 382), (515, 382), (515, 382), (515, 382), (515, 382), (515, 382), (515, 382), (515, 382), (515, 382), (515, 382), (515, 382), (515, 382), (515, 382), (515, 382), (515, 382), (515, 382), (515, 382), (515, 382), (501, 384), (465, 386), (412, 388), (297, 392), (241, 396)]",177.46457376553454,"[7, 2, 4, 1, 8, 6, 9, 3, 5]","(0, 0.25)",CHN010D,CHN,D,Chinese,Thu Nov  8 13:58:34 2018,Mouse
2,1,4,0,9,5,5,1,473,33,440,146,0,500,200,8000,"[(512, 384), (512, 384), (512, 384), (512, 381), (512, 379), (511, 379), (510, 379), (510, 379), (510, 379), (510, 379), (510, 379), (510, 379), (510, 379), (510, 379), (510, 379), (510, 379), (510, 379), (510, 379), (510, 379), (510, 379), (510, 379), (510, 379), (510, 379), (510, 379), (510, 379), (510, 379), (510, 379), (510, 379), (510, 379), (510, 379), (510, 379), (513, 376), (513, 375), (513, 375), (513, 375), (513, 375), (513, 375), (514, 374), (516, 374), (521, 372), (526, 370), (536, 370), (550, 369), (596, 362), (630, 358), (668, 353), (714, 343), (828, 312)]",347.16439051359856,"[7, 2, 4, 1, 8, 6, 9, 3, 5]","(0, 0.25)",CHN010D,CHN,D,Chinese,Thu Nov  8 13:58:34 2018,Mouse
2,1,4,0,10,9,9,1,484,404,80,145,0,500,200,8000,"[(512, 384), (512, 384), (512, 384), (512, 384), (512, 384), (512, 384), (512, 384), (512, 384), (512, 384), (512, 384), (512, 384), (512, 384), (512, 384), (512, 384), (512, 384), (512, 384), (512, 384), (512, 384), (512, 384), (512, 384), (512, 384), (512, 384), (512, 384), (512, 384), (512, 384), (512, 384), (512, 384), (512, 384), (512, 384), (512, 384), (512, 384), (512, 384), (512, 384), (512, 384), (512, 384), (512, 384), (512, 384), (512, 384), (512, 384), (512, 384), (511, 384), (511, 375), (506, 344), (500, 317), (496, 282), (491, 250), (472, 181), (462, 152), (456, 130)]",257.56676481190436,"[7, 2, 4, 1, 8, 6, 9, 3, 5]","(0, 0.25)",CHN010D,CHN,D,Chinese,Thu Nov  8 13:58:34 2018,Mouse
2,1,4,0,11,8,8,1,351,281,70,144,0,500,200,8000,"[(512, 384), (512, 384), (512, 384), (512, 384), (512, 384), (512, 384), (512, 384), (512, 384), (512, 384), (512, 384), (512, 384), (512, 384), (512, 384), (512, 384), (512, 384), (512, 384), (512, 384), (512, 384), (512, 384), (512, 384), (512, 384), (512, 384), (512, 384), (512, 384), (512, 384), (512, 384), (512, 384), (512, 384), (512, 386), (512, 388), (478, 389), (444, 389), (403, 389), (361, 389), (278, 389), (237, 396)]",177.50140561058132,"[7, 2, 4, 1, 8, 6, 9, 3, 5]","(0, 0.25)",CHN010D,CHN,D,Chinese,Thu Nov  8 13:58:34 2018,Mouse
2,1,4,0,12,8,8,1,673,292,381,143,0,500,200,8000,"[(512, 384), (512, 384), (512, 384), (512, 384), (512, 384), (512, 384), (512, 384), (512, 384), (512, 384), (512, 384), (512, 384), (512, 384), (512, 384), (512, 384), (512, 384), (512, 384), (512, 384), (512, 384), (512, 384), (512, 384), (512, 384), (512, 384), (512, 384), (512, 384), (512, 384), (512, 384), (512, 384), (512, 384), (512, 384), (513, 385), (516, 384), (518, 382), (518, 382), (518, 382), (518, 382), (519, 381), (519, 381), (519, 381), (519, 381), (519, 379), (519, 379), (519, 379), (519, 378), (517, 377), (517, 376), (517, 376), (516, 375), (516, 375), (515, 375), (515, 375), (515, 375), (515, 375), (515, 375), (515, 375), (515, 375), (514, 374), (511, 372), (510, 372), (508, 371), (498, 370), (489, 368), (476, 368), (459, 368), (398, 368), (365, 368), (328, 368), (295, 368), (220, 368)]",183.1363583683326,"[7, 2, 4, 1, 8, 6, 9, 3, 5]","(0, 0.25)",CHN010D,CHN,D,Chinese,Thu Nov  8 13:58:34 2018,Mouse
2,1,4,0,13,8,8,1,212,102,110,142,0,500,200,8000,"[(512, 384), (512, 384), (512, 384), (512, 384), (512, 384), (512, 384), (512, 384), (512, 384), (512, 384), (512, 384), (507, 384), (501, 383), (483, 383), (475, 383), (463, 383), (448, 383), (412, 383), (389, 383), (364, 383), (342, 383), (284, 389), (257, 393)]",177.978635059644,"[7, 2, 4, 1, 8, 6, 9, 3, 5]","(0, 0.25)",CHN010D,CHN,D,Chinese,Thu Nov  8 13:58:34 2018,Mouse
2,1,4,0,14,7,7,1,366,266,100,141,0,500,200,8000,"[(512, 384), (512, 384), (512, 384), (512, 384), (512, 384), (512, 384), (512, 384), (512, 384), (512, 384), (512, 384), (512, 384), (512, 384), (512, 384), (512, 384), (512, 384), (512, 384), (512, 384), (512, 384), (512, 384), (512, 384), (512, 384), (512, 384), (512, 384), (512, 384), (512, 384), (512, 384), (517, 382), (519, 381), (524, 380), (535, 380), (584, 380), (611, 384), (630, 388), (654, 394), (718, 411), (755, 424), (791, 435)]",10.359052488083712,"[7, 2, 4, 1, 8, 6, 9, 3, 5]","(0, 0.25)",CHN010D,CHN,D,Chinese,Thu Nov  8 13:58:34 2018,Mouse
2,1,4,0,15,3,5,0,-332,262,70,140,0,500,200,8000,"[(512, 384), (512, 384), (512, 384), (512, 384), (512, 384), (512, 384), (512, 384), (512, 384), (512, 384), (512, 384), (512, 384), (512, 384), (512, 384), (512, 384), (512, 384), (512, 384), (512, 384), (512, 384), (512, 384), (512, 384), (512, 384), (512, 384), (512, 384), (512, 384), (512, 384), (512, 384), (517, 381), (529, 375), (550, 367), (578, 357), (650, 337), (692, 324), (732, 319), (776, 311)]",344.5430718290277,"[7, 2, 4, 1, 8, 6, 9, 3, 5]","(0, 0.25)",CHN010D,CHN,D,Chinese,Thu Nov  8 13:58:34 2018,Mouse
2,1,4,0,16,2,2,1,691,271,420,141,0,500,200,8000,"[(512, 384), (512, 384), (512, 384), (512, 384), (512, 384), (512, 384), (512, 384), (512, 384), (512, 384), (512, 384), (512, 384), (512, 384), (512, 384), (512, 384), (512, 384), (512, 384), (512, 384), (512, 384), (512, 384), (512, 384), (512, 384), (512, 384), (512, 384), (512, 384), (512, 384), (512, 384), (512, 384), (511, 382), (511, 375), (511, 366), (511, 362), (512, 359), (512, 356), (513, 354), (513, 354), (513, 354), (513, 354), (513, 354), (513, 354), (513, 354), (513, 354), (513, 354), (513, 354), (513, 354), (513, 354), (513, 354), (513, 354), (513, 354), (513, 354), (513, 354), (513, 354), (513, 354), (513, 354), (513, 354), (513, 354), (513, 354), (513, 354), (512, 355), (512, 359), (512, 370), (512, 381), (515, 404), (519, 414), (521, 425), (524, 435), (533, 463), (541, 491), (556, 533), (567, 569), (588, 637)]",73.27998137260454,"[7, 2, 4, 1, 8, 6, 9, 3, 5]","(0, 0.25)",CHN010D,CHN,D,Chinese,Thu Nov  8 13:58:34 2018,Mouse
2,1,4,0,17,3,3,1,212,162,50,141,0,500,200,8000,"[(512, 384), (512, 384), (512, 384), (512, 384), (512, 384), (512, 384), (512, 384), (512, 384), (512, 384), (512, 384), (512, 384), (512, 384), (512, 384), (512, 384), (512, 384), (512, 384), (516, 364), (522, 345), (531, 318), (553, 266), (594, 178), (618, 137)]",293.22658063331363,"[7, 2, 4, 1, 8, 6, 9, 3, 5]","(0, 0.25)",CHN010D,CHN,D,Chinese,Thu Nov  8 13:58:34 2018,Mouse
2,1,4,0,18,2,2,1,392,332,60,140,0,500,200,8000,"[(512, 384), (512, 384), (512, 384), (512, 384), (512, 384), (512, 384), (512, 384), (512, 384), (512, 384), (512, 384), (512, 384), (512, 384), (512, 384), (512, 384), (512, 384), (512, 384), (512, 384), (512, 384), (512, 384), (512, 384), (512, 384), (512, 384), (512, 384), (512, 384), (512, 384), (512, 384), (512, 384), (512, 384), (512, 384), (512, 384), (512, 384), (512, 384), (512, 384), (513, 395), (522, 414), (555, 471), (571, 500), (594, 539), (615, 574), (651, 640)]",61.49942251619419,"[7, 2, 4, 1, 8, 6, 9, 3, 5]","(0, 0.25)",CHN010D,CHN,D,Chinese,Thu Nov  8 13:58:34 2018,Mouse
2,1,4,0,19,1,6,0,-323,253,70,139,0,500,200,8000,"[(512, 384), (512, 384), (512, 384), (512, 384), (512, 384), (512, 384), (512, 384), (512, 384), (512, 384), (512, 384), (512, 384), (512, 384), (512, 384), (512, 384), (512, 384), (512, 384), (512, 384), (512, 384), (512, 384), (512, 384), (512, 384), (512, 384), (512, 384), (512, 384), (512, 384), (508, 379), (498, 366), (488, 353), (454, 315), (428, 292), (394, 268), (360, 239), (281, 176)]",222.0009130645448,"[7, 2, 4, 1, 8, 6, 9, 3, 5]","(0, 0.25)",CHN010D,CHN,D,Chinese,Thu Nov  8 13:58:34 2018,Mouse
2,1,4,0,20,1,1,1,912,842,70,140,0,500,200,8000,"[(512, 384), (512, 384), (512, 384), (512, 384), (512, 384), (512, 384), (512, 384), (512, 384), (512, 384), (512, 384), (512, 384), (512, 384), (512, 384), (512, 384), (512, 384), (512, 384), (512, 384), (512, 384), (512, 384), (512, 384), (512, 384), (512, 384), (512, 384), (512, 384), (512, 384), (512, 384), (512, 384), (512, 384), (512, 384), (512, 384), (512, 384), (512, 384), (512, 384), (512, 384), (512, 384), (512, 384), (512, 384), (512, 384), (512, 384), (512, 384), (512, 384), (512, 384), (512, 384), (512, 384), (512, 384), (512, 384), (512, 384), (512, 384), (512, 384), (512, 384), (512, 384), (512, 384), (512, 384), (512, 384), (512, 384), (512, 384), (512, 384), (512, 384), (512, 384), (512, 384), (512, 384), (512, 384), (512, 384), (512, 384), (512, 384), (512, 384), (512, 384), (512, 384), (512, 384), (512, 384), (512, 384), (512, 384), (512, 384), (512, 384), (512, 384), (512, 384), (512, 384), (512, 384), (512, 384), (512, 384), (512, 384), (512, 384), (512, 384), (512, 384), (503, 388), (489, 404), (469, 428), (445, 454), (387, 503), (361, 523), (335, 546), (312, 564)]",138.01278750418336,"[7, 2, 4, 1, 8, 6, 9, 3, 5]","(0, 0.25)",CHN010D,CHN,D,Chinese,Thu Nov  8 13:58:34 2018,Mouse
2,1,4,0,21,4,4,1,412,332,80,140,0,500,200,8000,"[(512, 384), (512, 384), (512, 384), (512, 384), (512, 384), (512, 384), (512, 384), (512, 384), (512, 384), (512, 384), (512, 384), (512, 384), (512, 384), (512, 384), (512, 384), (512, 384), (512, 384), (512, 384), (512, 384), (512, 384), (512, 384), (512, 384), (512, 384), (512, 384), (512, 384), (512, 384), (512, 384), (512, 384), (512, 384), (512, 384), (512, 384), (512, 384), (512, 384), (511, 388), (506, 399), (499, 419), (494, 439), (475, 488), (461, 532), (452, 571), (442, 617), (431, 701)]",104.33355025584781,"[7, 2, 4, 1, 8, 6, 9, 3, 5]","(0, 0.25)",CHN010D,CHN,D,Chinese,Thu Nov  8 13:58:34 2018,Mouse
2,1,4,0,22,7,7,1,341,261,80,139,0,500,200,8000,"[(512, 384), (512, 384), (512, 384), (512, 384), (512, 384), (512, 384), (512, 384), (512, 384), (512, 384), (512, 384), (512, 384), (512, 384), (512, 384), (512, 384), (512, 384), (512, 384), (512, 384), (512, 384), (512, 384), (512, 384), (512, 384), (512, 384), (512, 384), (512, 384), (512, 384), (512, 384), (514, 383), (517, 383), (542, 385), (564, 391), (603, 402), (634, 411), (705, 429), (740, 443), (763, 451)]",14.945623917125621,"[7, 2, 4, 1, 8, 6, 9, 3, 5]","(0, 0.25)",CHN010D,CHN,D,Chinese,Thu Nov  8 13:58:34 2018,Mouse
2,1,4,0,23,1,1,1,617,577,40,138,0,500,200,8000,"[(512, 384), (512, 384), (512, 384), (512, 384), (512, 384), (512, 384), (512, 384), (512, 384), (512, 384), (512, 384), (512, 384), (512, 384), (512, 384), (512, 384), (512, 384), (512, 384), (512, 384), (512, 384), (512, 384), (512, 384), (512, 384), (512, 384), (512, 384), (512, 384), (512, 384), (512, 384), (512, 384), (512, 384), (512, 384), (512, 384), (512, 384), (512, 384), (512, 384), (512, 384), (512, 384), (512, 384), (512, 384), (512, 384), (512, 384), (512, 384), (512, 384), (512, 384), (512, 384), (512, 384), (512, 384), (512, 384), (512, 384), (512, 384), (512, 384), (512, 384), (512, 384), (512, 384), (512, 384), (512, 384), (512, 384), (512, 384), (512, 384), (500, 387), (477, 410), (437, 441), (380, 478), (277, 551)]",144.600940758971,"[7, 2, 4, 1, 8, 6, 9, 3, 5]","(0, 0.25)",CHN010D,CHN,D,Chinese,Thu Nov  8 13:58:34 2018,Mouse
2,1,4,0,24,1,1,1,302,222,80,137,0,500,200,8000,"[(512, 384), (512, 384), (512, 384), (512, 384), (512, 384), (512, 384), (512, 384), (512, 384), (512, 384), (512, 384), (512, 384), (512, 384), (512, 384), (512, 384), (512, 384), (512, 384), (512, 384), (512, 384), (512, 384), (512, 384), (512, 384), (512, 384), (511, 388), (506, 402), (484, 456), (471, 483), (454, 511), (436, 534), (406, 574), (393, 591), (379, 606)]",120.92578716751039,"[7, 2, 4, 1, 8, 6, 9, 3, 5]","(0, 0.25)",CHN010D,CHN,D,Chinese,Thu Nov  8 13:58:34 2018,Mouse
2,1,4,0,25,2,2,1,1023,112,911,136,0,500,200,8000,"[(512, 384), (512, 384), (512, 384), (512, 384), (512, 384), (512, 384), (512, 384), (512, 384), (512, 384), (512, 384), (512, 384), (511, 383), (511, 381), (511, 380), (511, 379), (511, 379), (511, 379), (511, 379), (511, 379), (511, 379), (511, 379), (511, 379), (511, 379), (511, 379), (511, 379), (511, 379), (511, 379), (511, 379), (511, 379), (511, 379), (511, 379), (511, 379), (511, 379), (511, 379), (511, 378), (514, 374), (515, 372), (515, 368), (515, 365), (515, 362), (515, 356), (517, 352), (525, 334), (536, 317), (546, 298), (561, 274), (587, 223), (599, 203), (606, 190), (612, 177), (618, 163), (619, 160), (619, 159), (620, 159), (620, 159), (620, 159), (620, 159), (620, 159), (620, 159), (620, 159), (620, 159), (620, 159), (620, 159), (620, 159), (620, 159), (620, 159), (620, 159), (620, 159), (620, 159), (620, 159), (620, 159), (620, 159), (620, 159), (620, 159), (620, 159), (620, 159), (620, 159), (620, 159), (620, 159), (620, 159), (620, 159), (620, 159), (620, 159), (620, 159), (620, 159), (619, 162), (614, 183), (611, 194), (607, 210), (600, 228), (587, 283), (582, 320), (576, 361), (575, 395), (573, 456), (573, 476), (573, 493), (573, 510), (573, 540), (573, 558), (573, 575), (573, 600), (581, 654)]",75.66456458047989,"[7, 2, 4, 1, 8, 6, 9, 3, 5]","(0, 0.25)",CHN010D,CHN,D,Chinese,Thu Nov  8 13:58:34 2018,Mouse
2,1,4,0,26,6,6,1,612,542,70,135,0,500,200,8000,"[(512, 384), (512, 384), (512, 384), (512, 384), (512, 384), (512, 384), (512, 384), (512, 384), (512, 384), (512, 384), (512, 384), (512, 384), (512, 384), (512, 384), (512, 384), (512, 384), (512, 384), (512, 384), (512, 384), (512, 384), (512, 384), (512, 384), (512, 384), (512, 384), (512, 384), (512, 384), (512, 384), (512, 384), (512, 384), (512, 384), (512, 384), (512, 384), (512, 384), (512, 384), (512, 384), (512, 384), (512, 384), (512, 384), (512, 384), (512, 384), (512, 384), (512, 384), (512, 384), (512, 384), (512, 384), (512, 384), (512, 384), (512, 384), (512, 384), (512, 384), (512, 384), (512, 384), (512, 384), (512, 384), (512, 382), (512, 368), (478, 313), (460, 288), (440, 267), (421, 246), (371, 201), (340, 177)]",230.27620208653198,"[7, 2, 4, 1, 8, 6, 9, 3, 5]","(0, 0.25)",CHN010D,CHN,D,Chinese,Thu Nov  8 13:58:34 2018,Mouse
2,1,4,0,27,6,2,0,-1194,1134,60,134,0,500,200,8000,"[(512, 384), (512, 384), (512, 384), (512, 384), (512, 384), (512, 384), (512, 384), (512, 384), (512, 384), (512, 384), (512, 384), (512, 384), (512, 384), (512, 384), (512, 384), (512, 384), (512, 384), (512, 384), (512, 384), (512, 384), (512, 384), (512, 384), (512, 384), (512, 384), (512, 384), (512, 384), (512, 384), (512, 384), (512, 384), (512, 384), (512, 384), (512, 384), (512, 384), (512, 384), (512, 384), (512, 384), (512, 384), (512, 384), (512, 384), (512, 384), (512, 384), (512, 384), (512, 384), (512, 384), (512, 384), (512, 384), (512, 384), (512, 384), (512, 384), (512, 384), (512, 384), (512, 384), (512, 384), (512, 384), (512, 384), (512, 384), (512, 384), (512, 384), (512, 384), (512, 384), (512, 384), (512, 384), (512, 384), (512, 384), (512, 384), (512, 384), (512, 384), (512, 384), (512, 384), (512, 384), (512, 384), (512, 384), (512, 384), (512, 384), (512, 384), (512, 384), (512, 384), (512, 384), (512, 384), (512, 384), (512, 384), (512, 384), (512, 384), (512, 384), (512, 384), (512, 384), (512, 384), (512, 384), (512, 384), (512, 384), (512, 384), (512, 384), (512, 384), (512, 384), (512, 384), (512, 384), (512, 384), (512, 384), (512, 384), (512, 384), (512, 384), (512, 384), (512, 384), (512, 384), (512, 384), (512, 384), (512, 384), (512, 384), (512, 384), (512, 384), (512, 384), (512, 384), (512, 384), (512, 387), (528, 432), (540, 460), (547, 498), (561, 530), (579, 597), (589, 625)]",72.2812111225484,"[7, 2, 4, 1, 8, 6, 9, 3, 5]","(0, 0.25)",CHN010D,CHN,D,Chinese,Thu Nov  8 13:58:34 2018,Mouse
2,1,4,0,28,7,7,1,661,581,80,135,0,500,200,8000,"[(512, 384), (512, 384), (512, 384), (512, 384), (512, 384), (512, 384), (512, 384), (512, 384), (512, 384), (512, 384), (512, 384), (512, 384), (512, 384), (512, 384), (512, 384), (512, 384), (512, 384), (512, 384), (512, 384), (512, 384), (512, 384), (512, 384), (512, 384), (512, 384), (512, 384), (512, 384), (512, 384), (512, 384), (512, 384), (512, 384), (512, 384), (512, 384), (512, 384), (512, 384), (512, 384), (512, 384), (512, 384), (512, 384), (512, 384), (512, 384), (512, 384), (512, 384), (512, 384), (512, 384), (512, 384), (512, 384), (512, 384), (512, 384), (512, 384), (512, 384), (512, 384), (512, 384), (512, 384), (512, 384), (512, 384), (512, 384), (512, 384), (512, 384), (513, 384), (533, 384), (547, 387), (563, 392), (585, 398), (639, 416), (676, 431), (707, 443), (756, 465)]",18.36447434491676,"[7, 2, 4, 1, 8, 6, 9, 3, 5]","(0, 0.25)",CHN010D,CHN,D,Chinese,Thu Nov  8 13:58:34 2018,Mouse
2,1,4,0,29,1,1,1,322,272,50,135,0,500,200,8000,"[(512, 384), (512, 384), (512, 384), (512, 384), (512, 384), (512, 384), (512, 384), (512, 384), (512, 384), (512, 384), (512, 384), (512, 384), (512, 384), (512, 384), (512, 384), (512, 384), (512, 384), (512, 384), (512, 384), (512, 384), (512, 384), (512, 384), (512, 384), (512, 384), (512, 384), (512, 384), (512, 384), (504, 386), (480, 395), (386, 434), (340, 456), (299, 480), (258, 505)]",154.52789947066702,"[7, 2, 4, 1, 8, 6, 9, 3, 5]","(0, 0.25)",CHN010D,CHN,D,Chinese,Thu Nov  8 13:58:34 2018,Mouse
2,1,4,0,30,7,7,1,443,403,40,134,0,500,200,8000,"[(512, 384), (512, 384), (512, 384), (512, 384), (512, 384), (512, 384), (512, 384), (512, 384), (512, 384), (512, 384), (512, 384), (512, 384), (512, 384), (512, 384), (512, 384), (512, 384), (512, 384), (512, 384), (512, 384), (512, 384), (512, 384), (512, 384), (512, 384), (512, 384), (512, 384), (512, 384), (512, 384), (512, 384), (512, 384), (512, 384), (512, 384), (512, 384), (512, 384), (512, 384), (512, 384), (512, 384), (512, 384), (512, 384), (512, 384), (512, 384), (577, 401), (625, 421), (662, 436), (705, 457), (789, 498)]",22.369730879291456,"[7, 2, 4, 1, 8, 6, 9, 3, 5]","(0, 0.25)",CHN010D,CHN,D,Chinese,Thu Nov  8 13:58:34 2018,Mouse
2,1,4,0,31,1,1,1,613,553,60,133,0,500,200,8000,"[(512, 384), (512, 384), (512, 384), (512, 384), (512, 384), (512, 384), (512, 384), (512, 384), (512, 384), (512, 384), (512, 384), (512, 384), (512, 384), (512, 384), (512, 384), (512, 384), (512, 384), (512, 384), (512, 384), (512, 384), (512, 384), (512, 384), (512, 384), (512, 384), (512, 384), (512, 384), (512, 384), (512, 384), (512, 384), (512, 384), (512, 384), (512, 384), (512, 384), (512, 384), (512, 384), (512, 384), (512, 384), (512, 384), (512, 384), (512, 384), (512, 384), (512, 384), (512, 384), (512, 384), (512, 384), (512, 384), (512, 384), (512, 384), (512, 384), (512, 384), (512, 384), (512, 384), (512, 384), (512, 384), (512, 384), (508, 386), (494, 409), (478, 425), (457, 444), (429, 466), (355, 524), (321, 554)]",138.32924353354684,"[7, 2, 4, 1, 8, 6, 9, 3, 5]","(0, 0.25)",CHN010D,CHN,D,Chinese,Thu Nov  8 13:58:34 2018,Mouse
2,1,4,0,32,7,2,0,-596,536,60,132,0,500,200,8000,"[(512, 384), (512, 384), (512, 384), (512, 384), (512, 384), (512, 384), (512, 384), (512, 384), (512, 384), (512, 384), (512, 384), (512, 384), (512, 384), (512, 384), (512, 384), (512, 384), (512, 384), (512, 384), (512, 384), (512, 384), (512, 384), (512, 384), (512, 384), (512, 384), (512, 384), (512, 384), (512, 384), (512, 384), (512, 384), (512, 384), (512, 384), (512, 384), (512, 384), (512, 384), (512, 384), (512, 384), (512, 384), (512, 384), (512, 384), (512, 384), (512, 384), (512, 384), (512, 384), (512, 384), (512, 384), (512, 384), (512, 384), (512, 384), (512, 384), (512, 384), (512, 384), (512, 384), (512, 384), (516, 387), (549, 435), (570, 471), (592, 502), (611, 530), (640, 584), (654, 608)]",57.628221917390434,"[7, 2, 4, 1, 8, 6, 9, 3, 5]","(0, 0.25)",CHN010D,CHN,D,Chinese,Thu Nov  8 13:58:34 2018,Mouse
2,1,4,0,33,6,1,0,-492,412,80,133,0,500,200,8000,"[(512, 384), (512, 384), (512, 384), (512, 384), (512, 384), (512, 384), (512, 384), (512, 384), (512, 384), (512, 384), (512, 384), (512, 384), (512, 384), (512, 384), (512, 384), (512, 384), (512, 384), (512, 384), (512, 384), (512, 384), (512, 384), (512, 384), (512, 384), (512, 384), (512, 384), (512, 384), (512, 384), (512, 384), (512, 384), (512, 384), (512, 384), (512, 384), (512, 384), (512, 384), (512, 384), (512, 384), (512, 384), (512, 384), (512, 384), (512, 384), (512, 384), (511, 384), (509, 384), (489, 394), (478, 402), (459, 413), (434, 426), (374, 464), (335, 491), (298, 524)]",146.80706342159857,"[7, 2, 4, 1, 8, 6, 9, 3, 5]","(0, 0.25)",CHN010D,CHN,D,Chinese,Thu Nov  8 13:58:34 2018,Mouse
2,1,4,0,34,3,3,1,341,201,140,134,0,500,200,8000,"[(512, 384), (512, 384), (512, 384), (512, 384), (512, 384), (512, 384), (512, 384), (512, 384), (512, 384), (512, 384), (512, 384), (512, 384), (512, 384), (512, 384), (512, 384), (512, 384), (512, 384), (512, 384), (512, 384), (512, 384), (512, 383), (512, 379), (515, 372), (517, 369), (519, 364), (522, 359), (535, 341), (542, 327), (552, 310), (566, 291), (594, 246), (607, 225), (623, 200), (640, 175), (668, 130)]",301.55713234316966,"[7, 2, 4, 1, 8, 6, 9, 3, 5]","(0, 0.25)",CHN010D,CHN,D,Chinese,Thu Nov  8 13:58:34 2018,Mouse
2,1,4,0,35,2,2,1,596,476,120,134,0,500,200,8000,"[(512, 384), (512, 384), (512, 384), (512, 384), (512, 384), (512, 384), (512, 384), (512, 384), (512, 384), (512, 384), (512, 384), (512, 384), (512, 384), (512, 384), (512, 384), (512, 384), (512, 384), (512, 384), (512, 384), (512, 384), (512, 384), (512, 384), (512, 384), (512, 384), (512, 384), (512, 384), (512, 384), (512, 384), (512, 384), (512, 384), (512, 384), (512, 384), (512, 384), (512, 384), (512, 384), (512, 384), (512, 384), (512, 384), (512, 384), (512, 384), (512, 384), (512, 384), (512, 384), (512, 384), (512, 384), (512, 384), (512, 384), (511, 386), (511, 386), (511, 386), (511, 386), (511, 393), (511, 403), (513, 415), (523, 436), (549, 497), (570, 537), (590, 565), (611, 593), (654, 645)]",61.45109903128627,"[7, 2, 4, 1, 8, 6, 9, 3, 5]","(0, 0.25)",CHN010D,CHN,D,Chinese,Thu Nov  8 13:58:34 2018,Mouse
2,1,4,0,36,1,1,1,1498,108,1390,133,0,500,200,8000,"[(512, 384), (512, 384), (512, 384), (512, 384), (512, 384), (512, 384), (512, 384), (512, 384), (512, 384), (512, 384), (512, 383), (512, 383), (512, 382), (512, 381), (512, 379), (512, 379), (512, 379), (512, 379), (512, 379), (512, 379), (512, 379), (512, 379), (512, 379), (512, 379), (512, 379), (512, 379), (512, 379), (512, 379), (512, 379), (511, 379), (511, 379), (511, 379), (511, 379), (511, 379), (511, 379), (511, 379), (511, 379), (511, 379), (511, 379), (511, 379), (511, 379), (511, 379), (511, 379), (511, 379), (511, 379), (511, 379), (511, 379), (511, 379), (511, 379), (511, 379), (511, 379), (511, 379), (511, 379), (511, 379), (511, 379), (511, 379), (511, 379), (511, 379), (511, 379), (511, 379), (511, 379), (511, 379), (511, 379), (511, 379), (511, 379), (511, 379), (511, 379), (511, 379), (511, 379), (511, 379), (511, 379), (511, 379), (511, 379), (511, 379), (511, 379), (511, 379), (511, 379), (511, 379), (511, 379), (511, 379), (511, 379), (511, 379), (511, 379), (511, 379), (511, 379), (511, 379), (511, 379), (511, 379), (511, 379), (511, 379), (511, 379), (511, 379), (511, 379), (511, 379), (511, 379), (511, 379), (511, 379), (511, 379), (511, 379), (511, 379), (511, 379), (511, 379), (511, 379), (511, 379), (511, 379), (511, 379), (511, 379), (511, 379), (511, 379), (511, 379), (511, 379), (511, 379), (511, 379), (511, 379), (511, 379), (511, 379), (511, 379), (511, 379), (511, 379), (511, 379), (511, 379), (511, 379), (511, 379), (511, 379), (511, 379), (511, 379), (511, 379), (511, 379), (511, 379), (511, 379), (511, 379), (511, 379), (511, 379), (511, 379), (511, 379), (511, 379), (511, 379), (511, 379), (511, 379), (511, 379), (507, 380), (496, 387), (456, 407), (437, 419), (416, 429), (396, 437), (350, 460), (320, 478), (293, 493), (262, 513)]",152.70626595652075,"[7, 2, 4, 1, 8, 6, 9, 3, 5]","(0, 0.25)",CHN010D,CHN,D,Chinese,Thu Nov  8 13:58:34 2018,Mouse
2,1,4,0,37,9,1,0,-1713,1653,60,132,0,500,200,8000,"[(512, 384), (512, 384), (512, 384), (512, 384), (512, 384), (512, 384), (512, 384), (512, 384), (512, 384), (512, 384), (512, 384), (512, 384), (512, 384), (512, 384), (512, 384), (512, 384), (512, 384), (512, 384), (512, 384), (512, 384), (512, 384), (512, 384), (512, 384), (512, 384), (512, 384), (512, 384), (512, 384), (512, 384), (512, 384), (512, 384), (512, 384), (512, 384), (512, 384), (512, 384), (512, 384), (512, 384), (512, 384), (512, 384), (512, 384), (512, 384), (512, 384), (512, 384), (512, 384), (512, 384), (512, 384), (512, 384), (512, 384), (512, 384), (512, 384), (512, 384), (512, 384), (512, 384), (512, 384), (512, 384), (512, 384), (512, 384), (512, 384), (512, 384), (512, 384), (512, 384), (512, 384), (512, 384), (512, 384), (512, 384), (512, 384), (512, 384), (512, 384), (512, 384), (512, 384), (512, 384), (512, 384), (512, 384), (512, 384), (512, 384), (512, 384), (512, 384), (512, 384), (512, 384), (512, 384), (512, 384), (512, 384), (512, 384), (512, 384), (512, 384), (512, 384), (512, 384), (512, 384), (512, 384), (512, 384), (512, 384), (512, 384), (512, 384), (512, 384), (512, 384), (512, 384), (512, 384), (512, 384), (512, 384), (512, 384), (512, 384), (512, 384), (512, 384), (512, 384), (512, 384), (512, 384), (512, 384), (512, 384), (512, 384), (512, 384), (512, 384), (512, 384), (512, 384), (512, 384), (512, 384), (512, 384), (512, 384), (512, 384), (512, 384), (512, 384), (512, 384), (512, 384), (512, 384), (512, 384), (512, 384), (512, 384), (512, 384), (512, 384), (512, 384), (512, 384), (512, 384), (512, 384), (512, 384), (512, 384), (512, 384), (512, 384), (512, 384), (512, 384), (512, 384), (512, 384), (512, 384), (512, 384), (512, 384), (512, 384), (512, 384), (512, 384), (512, 384), (512, 384), (512, 384), (512, 384), (512, 384), (512, 384), (512, 384), (512, 384), (512, 384), (512, 384), (512, 384), (512, 384), (512, 384), (512, 384), (512, 384), (512, 384), (512, 384), (512, 384), (512, 384), (512, 384), (491, 403), (467, 423), (442, 441), (414, 462), (349, 513), (319, 540), (290, 568)]",140.34708160029936,"[7, 2, 4, 1, 8, 6, 9, 3, 5]","(0, 0.25)",CHN010D,CHN,D,Chinese,Thu Nov  8 13:58:34 2018,Mouse
2,1,4,0,38,4,6,0,-464,364,100,133,0,500,200,8000,"[(512, 384), (512, 384), (512, 384), (512, 384), (512, 384), (512, 384), (512, 384), (512, 384), (512, 384), (512, 384), (512, 384), (512, 384), (512, 384), (512, 384), (512, 384), (512, 384), (512, 384), (512, 384), (512, 384), (512, 384), (512, 384), (512, 384), (512, 384), (512, 384), (512, 384), (512, 384), (512, 384), (512, 384), (512, 384), (512, 384), (512, 384), (512, 384), (512, 384), (512, 384), (512, 384), (512, 384), (512, 381), (498, 365), (490, 356), (480, 347), (466, 335), (428, 303), (404, 283), (381, 263), (360, 246), (330, 218), (322, 208)]",222.80942613596176,"[7, 2, 4, 1, 8, 6, 9, 3, 5]","(0, 0.25)",CHN010D,CHN,D,Chinese,Thu Nov  8 13:58:34 2018,Mouse
2,1,4,0,39,7,7,1,592,192,400,134,0,500,200,8000,"[(512, 384), (512, 384), (512, 384), (512, 384), (512, 384), (512, 384), (512, 384), (512, 384), (512, 384), (512, 384), (512, 384), (512, 384), (512, 384), (512, 384), (512, 384), (512, 384), (512, 384), (512, 384), (512, 384), (518, 392), (524, 399), (529, 404), (535, 411), (548, 431), (554, 440), (560, 449), (567, 458), (577, 468), (580, 469), (581, 470), (581, 470), (581, 470), (581, 470), (581, 470), (581, 470), (581, 470), (581, 470), (581, 470), (581, 470), (581, 470), (581, 470), (581, 470), (581, 470), (583, 470), (583, 470), (583, 470), (585, 470), (586, 469), (587, 468), (588, 467), (589, 466), (601, 465), (611, 465), (626, 465), (640, 465), (677, 471), (694, 476), (713, 482), (740, 486), (789, 497)]",22.19262226120018,"[7, 2, 4, 1, 8, 6, 9, 3, 5]","(0, 0.25)",CHN010D,CHN,D,Chinese,Thu Nov  8 13:58:34 2018,Mouse
2,1,4,0,40,5,5,1,561,331,230,134,0,500,200,8000,"[(512, 384), (512, 384), (512, 384), (512, 384), (512, 384), (512, 384), (512, 384), (512, 384), (512, 384), (512, 384), (512, 384), (512, 384), (512, 384), (512, 384), (512, 384), (512, 384), (512, 384), (512, 384), (512, 384), (512, 384), (512, 384), (512, 384), (512, 384), (512, 384), (512, 384), (512, 384), (512, 384), (512, 384), (512, 384), (512, 384), (512, 384), (512, 384), (512, 384), (513, 384), (515, 383), (519, 382), (525, 379), (528, 378), (531, 377), (535, 374), (542, 372), (545, 370), (551, 368), (563, 362), (593, 348), (607, 340), (622, 333), (634, 329), (657, 323), (667, 321), (678, 320), (687, 320), (707, 316), (718, 314), (731, 312), (749, 307), (794, 295)]",342.48415596079224,"[7, 2, 4, 1, 8, 6, 9, 3, 5]","(0, 0.25)",CHN010D,CHN,D,Chinese,Thu Nov  8 13:58:34 2018,Mouse
2,1,4,0,41,5,2,0,-532,312,220,133,0,500,200,8000,"[(512, 384), (512, 384), (512, 384), (512, 384), (512, 384), (512, 384), (512, 384), (512, 384), (512, 384), (512, 384), (512, 384), (512, 384), (512, 384), (512, 384), (512, 384), (512, 384), (512, 384), (512, 384), (512, 384), (512, 384), (512, 384), (512, 384), (512, 384), (512, 384), (512, 384), (512, 384), (512, 384), (512, 384), (512, 384), (512, 384), (512, 384), (513, 384), (516, 381), (516, 381), (516, 381), (516, 381), (516, 381), (516, 381), (517, 382), (519, 387), (526, 404), (531, 417), (537, 428), (542, 441), (553, 464), (559, 475), (564, 482), (567, 491), (576, 508), (580, 520), (583, 531), (593, 548), (608, 591), (617, 611)]",65.17685962711134,"[7, 2, 4, 1, 8, 6, 9, 3, 5]","(0, 0.25)",CHN010D,CHN,D,Chinese,Thu Nov  8 13:58:34 2018,Mouse
2,1,4,0,42,3,3,1,744,114,630,134,0,500,200,8000,"[(512, 384), (512, 384), (512, 384), (512, 384), (512, 384), (512, 384), (512, 384), (512, 384), (512, 384), (512, 384), (512, 384), (513, 384), (513, 384), (513, 384), (513, 384), (513, 384), (513, 384), (513, 384), (513, 384), (513, 384), (513, 384), (513, 384), (513, 384), (513, 384), (513, 384), (513, 384), (513, 384), (513, 384), (513, 384), (513, 384), (513, 384), (513, 384), (513, 384), (513, 384), (513, 384), (513, 384), (513, 384), (513, 384), (513, 384), (513, 384), (513, 384), (513, 384), (513, 384), (513, 384), (513, 384), (513, 383), (513, 383), (513, 383), (513, 383), (513, 383), (513, 383), (513, 383), (513, 383), (513, 383), (513, 383), (513, 383), (513, 383), (513, 383), (513, 383), (513, 383), (513, 383), (513, 383), (514, 381), (516, 379), (517, 378), (519, 376), (523, 371), (525, 367), (529, 361), (536, 354), (556, 326), (571, 306), (589, 279), (606, 249), (650, 175)]",303.4362672833935,"[7, 2, 4, 1, 8, 6, 9, 3, 5]","(0, 0.25)",CHN010D,CHN,D,Chinese,Thu Nov  8 13:58:34 2018,Mouse
2,1,4,0,43,9,7,0,-331,271,60,134,0,500,200,8000,"[(512, 384), (512, 384), (512, 384), (512, 384), (512, 384), (512, 384), (512, 384), (512, 384), (512, 384), (512, 384), (512, 384), (512, 384), (512, 384), (512, 384), (512, 384), (512, 384), (512, 384), (512, 384), (512, 384), (512, 384), (512, 384), (512, 384), (512, 384), (512, 384), (512, 384), (512, 384), (512, 384), (513, 388), (544, 400), (583, 414), (666, 438), (703, 449), (743, 468), (786, 486)]",20.41842551743132,"[7, 2, 4, 1, 8, 6, 9, 3, 5]","(0, 0.25)",CHN010D,CHN,D,Chinese,Thu Nov  8 13:58:34 2018,Mouse
2,1,4,0,44,2,3,0,-700,120,580,135,0,500,200,8000,"[(512, 384), (512, 384), (512, 384), (512, 384), (512, 384), (512, 384), (512, 384), (512, 384), (512, 384), (512, 384), (512, 384), (507, 381), (507, 381), (507, 381), (507, 381), (507, 381), (507, 381), (507, 381), (507, 381), (507, 381), (507, 381), (507, 381), (507, 381), (507, 381), (507, 381), (507, 381), (507, 381), (507, 381), (507, 381), (507, 381), (507, 381), (507, 381), (507, 381), (507, 381), (507, 381), (507, 381), (507, 381), (507, 381), (507, 381), (507, 381), (507, 381), (507, 380), (507, 380), (507, 380), (507, 380), (507, 380), (507, 380), (507, 380), (507, 380), (507, 380), (507, 380), (507, 380), (507, 380), (507, 380), (508, 380), (511, 377), (512, 373), (517, 366), (524, 360), (536, 342), (546, 332), (554, 320), (562, 309), (581, 279), (590, 263), (603, 239), (612, 216), (625, 185), (631, 171), (635, 161)]",298.87978914340806,"[7, 2, 4, 1, 8, 6, 9, 3, 5]","(0, 0.25)",CHN010D,CHN,D,Chinese,Thu Nov  8 13:58:34 2018,Mouse
2,1,4,0,45,2,2,1,385,255,130,136,0,500,200,8000,"[(512, 384), (512, 384), (512, 384), (512, 384), (512, 384), (512, 384), (512, 384), (512, 384), (512, 384), (512, 384), (512, 384), (512, 384), (512, 384), (512, 384), (512, 384), (512, 384), (512, 384), (512, 384), (512, 384), (512, 384), (512, 384), (512, 384), (512, 384), (512, 384), (512, 384), (517, 386), (523, 391), (531, 400), (538, 410), (555, 438), (565, 456), (577, 476), (585, 489), (597, 518), (605, 535), (611, 548), (617, 564), (632, 600), (639, 618)]",61.50976511459886,"[7, 2, 4, 1, 8, 6, 9, 3, 5]","(0, 0.25)",CHN010D,CHN,D,Chinese,Thu Nov  8 13:58:34 2018,Mouse
2,1,4,0,46,4,4,1,471,351,120,136,0,500,200,8000,"[(512, 384), (512, 384), (512, 384), (512, 384), (512, 384), (512, 384), (512, 384), (512, 384), (512, 384), (512, 384), (512, 384), (512, 384), (512, 384), (512, 384), (512, 384), (512, 384), (512, 384), (512, 384), (512, 384), (512, 384), (512, 384), (512, 384), (512, 384), (512, 384), (512, 384), (512, 384), (512, 384), (512, 384), (512, 384), (512, 384), (512, 384), (512, 384), (512, 384), (512, 384), (512, 384), (513, 394), (513, 401), (513, 406), (512, 416), (506, 438), (503, 451), (498, 463), (495, 479), (487, 530), (484, 559), (479, 586), (472, 616), (462, 652)]",100.56801420900933,"[7, 2, 4, 1, 8, 6, 9, 3, 5]","(0, 0.25)",CHN010D,CHN,D,Chinese,Thu Nov  8 13:58:34 2018,Mouse
2,1,4,0,47,7,7,1,322,82,240,135,0,500,200,8000,"[(512, 384), (512, 384), (512, 384), (512, 384), (512, 384), (512, 384), (512, 384), (512, 384), (514, 381), (516, 380), (517, 380), (518, 380), (519, 379), (522, 379), (522, 378), (524, 377), (527, 377), (529, 376), (532, 374), (535, 373), (546, 372), (554, 369), (565, 368), (577, 368), (603, 368), (616, 368), (630, 368), (645, 368), (678, 369), (699, 371), (730, 380), (760, 388), (814, 405)]",3.977740645712265,"[7, 2, 4, 1, 8, 6, 9, 3, 5]","(0, 0.25)",CHN010D,CHN,D,Chinese,Thu Nov  8 13:58:34 2018,Mouse
2,1,4,0,48,5,4,0,-852,742,110,134,0,500,200,8000,"[(512, 384), (512, 384), (512, 384), (512, 384), (512, 384), (512, 384), (512, 384), (512, 384), (512, 384), (512, 384), (512, 384), (512, 384), (512, 384), (512, 384), (512, 384), (512, 384), (512, 384), (512, 384), (512, 384), (512, 384), (512, 384), (512, 384), (512, 384), (512, 384), (512, 384), (512, 384), (512, 384), (512, 384), (512, 384), (512, 384), (512, 384), (512, 384), (512, 384), (512, 384), (512, 384), (512, 384), (512, 384), (512, 384), (512, 384), (512, 384), (512, 384), (512, 384), (512, 384), (512, 384), (512, 384), (512, 384), (512, 384), (512, 384), (512, 384), (512, 384), (512, 384), (512, 384), (512, 384), (512, 384), (512, 384), (512, 384), (512, 384), (512, 384), (512, 384), (512, 384), (512, 384), (512, 384), (512, 384), (512, 384), (512, 384), (512, 384), (512, 384), (512, 384), (512, 384), (512, 384), (512, 384), (512, 384), (512, 384), (512, 384), (512, 385), (512, 398), (509, 433), (503, 458), (496, 476), (492, 495), (482, 536), (479, 557), (474, 576), (469, 589), (467, 618), (464, 632)]",100.95406264339833,"[7, 2, 4, 1, 8, 6, 9, 3, 5]","(0, 0.25)",CHN010D,CHN,D,Chinese,Thu Nov  8 13:58:34 2018,Mouse
2,1,4,0,49,1,6,0,-1113,372,741,135,0,500,200,8000,"[(512, 384), (512, 384), (512, 384), (512, 384), (512, 384), (512, 384), (512, 384), (512, 384), (512, 384), (512, 384), (512, 384), (512, 384), (512, 384), (512, 384), (512, 384), (512, 384), (512, 384), (512, 384), (512, 384), (512, 384), (512, 384), (512, 384), (512, 384), (512, 384), (512, 384), (512, 384), (512, 384), (512, 384), (512, 384), (512, 384), (512, 384), (512, 384), (512, 384), (512, 384), (512, 384), (512, 384), (512, 384), (511, 383), (511, 382), (511, 382), (511, 382), (511, 382), (511, 382), (511, 382), (511, 382), (511, 382), (511, 382), (511, 382), (511, 382), (511, 382), (511, 382), (511, 382), (511, 382), (511, 382), (511, 382), (511, 382), (511, 382), (511, 382), (511, 382), (511, 382), (511, 382), (511, 382), (511, 382), (511, 382), (511, 382), (511, 382), (511, 382), (511, 382), (510, 382), (510, 382), (510, 382), (510, 382), (510, 382), (510, 382), (510, 382), (508, 382), (507, 382), (504, 380), (499, 377), (490, 373), (483, 368), (477, 365), (474, 363), (469, 360), (467, 358), (466, 358), (466, 358), (466, 358), (466, 357), (466, 357), (466, 357), (466, 357), (466, 357), (466, 357), (466, 357), (466, 357), (466, 357), (466, 357), (466, 357), (466, 357), (466, 357), (466, 357), (466, 357), (466, 357), (466, 357), (466, 356), (460, 351), (436, 330), (411, 311), (380, 289), (349, 268), (276, 216)]",215.44571032759822,"[7, 2, 4, 1, 8, 6, 9, 3, 5]","(0, 0.25)",CHN010D,CHN,D,Chinese,Thu Nov  8 13:58:34 2018,Mouse
2,1,4,0,50,6,2,0,-482,332,150,136,0,500,200,8000,"[(512, 384), (512, 384), (512, 384), (512, 384), (512, 384), (512, 384), (512, 384), (512, 384), (512, 384), (512, 384), (512, 384), (512, 384), (512, 384), (512, 384), (512, 384), (512, 384), (512, 384), (512, 384), (512, 384), (512, 384), (512, 384), (512, 384), (512, 384), (512, 384), (512, 384), (512, 384), (512, 384), (512, 384), (512, 384), (512, 384), (512, 384), (512, 384), (512, 384), (512, 385), (523, 396), (549, 419), (582, 447), (596, 463), (606, 475), (611, 481), (621, 494), (625, 499), (628, 501), (632, 506), (641, 522), (646, 533), (649, 546), (658, 563), (673, 603)]",53.67816888524076,"[7, 2, 4, 1, 8, 6, 9, 3, 5]","(0, 0.25)",CHN010D,CHN,D,Chinese,Thu Nov  8 13:58:34 2018,Mouse
2,1,4,0,51,8,6,0,-532,242,290,137,0,500,200,8000,"[(512, 384), (512, 384), (512, 384), (512, 384), (512, 384), (512, 384), (512, 384), (512, 384), (512, 384), (512, 384), (512, 384), (512, 384), (512, 384), (512, 384), (512, 384), (512, 384), (512, 384), (512, 384), (512, 384), (512, 384), (512, 384), (512, 384), (512, 384), (512, 384), (514, 382), (514, 382), (514, 382), (514, 382), (514, 382), (514, 382), (514, 382), (514, 382), (514, 382), (514, 382), (514, 382), (514, 382), (514, 382), (514, 382), (514, 382), (514, 382), (514, 382), (514, 382), (514, 382), (514, 382), (514, 382), (514, 381), (510, 381), (500, 376), (475, 359), (453, 345), (426, 330), (396, 312), (321, 262), (287, 236)]",213.33603013999652,"[7, 2, 4, 1, 8, 6, 9, 3, 5]","(0, 0.25)",CHN010D,CHN,D,Chinese,Thu Nov  8 13:58:34 2018,Mouse
2,1,4,0,52,1,3,0,-1881,151,1730,138,0,500,200,8000,"[(512, 384), (512, 384), (512, 384), (512, 384), (512, 384), (512, 384), (512, 384), (512, 384), (512, 384), (512, 384), (512, 384), (512, 384), (512, 384), (512, 384), (512, 384), (512, 382), (512, 382), (512, 382), (512, 382), (512, 382), (512, 382), (512, 382), (512, 382), (512, 382), (512, 382), (512, 382), (512, 382), (512, 382), (512, 382), (512, 382), (512, 382), (512, 382), (512, 382), (512, 382), (512, 382), (512, 381), (512, 381), (512, 381), (512, 381), (512, 381), (512, 381), (512, 381), (512, 381), (512, 381), (512, 381), (512, 381), (512, 381), (512, 381), (512, 381), (512, 381), (512, 381), (512, 381), (512, 381), (512, 381), (512, 381), (512, 381), (512, 381), (512, 381), (512, 381), (512, 381), (512, 381), (512, 381), (512, 381), (512, 381), (512, 381), (512, 381), (512, 381), (512, 381), (512, 381), (512, 381), (512, 381), (512, 381), (512, 381), (512, 381), (512, 381), (512, 381), (512, 381), (512, 381), (512, 381), (512, 381), (512, 381), (512, 381), (512, 381), (512, 381), (512, 381), (512, 381), (512, 381), (512, 381), (512, 381), (512, 381), (512, 381), (512, 381), (512, 381), (512, 381), (512, 381), (512, 381), (512, 381), (512, 381), (512, 381), (512, 381), (512, 381), (512, 381), (512, 381), (512, 381), (512, 381), (512, 381), (512, 381), (512, 381), (512, 381), (512, 381), (512, 381), (512, 381), (512, 381), (512, 381), (512, 381), (512, 381), (512, 381), (512, 381), (512, 381), (512, 381), (512, 381), (512, 381), (512, 381), (512, 381), (512, 381), (512, 381), (512, 381), (512, 381), (512, 381), (512, 381), (512, 381), (512, 381), (512, 381), (512, 381), (512, 381), (512, 381), (512, 381), (512, 381), (512, 381), (512, 381), (512, 381), (512, 381), (512, 381), (512, 381), (512, 381), (512, 381), (512, 381), (512, 381), (512, 381), (512, 381), (512, 381), (512, 381), (512, 381), (512, 381), (512, 381), (512, 381), (512, 381), (512, 381), (512, 381), (512, 381), (512, 381), (512, 381), (512, 381), (512, 381), (512, 381), (512, 381), (512, 381), (512, 381), (512, 381), (512, 381), (512, 381), (512, 381), (512, 381), (512, 381), (512, 381), (512, 381), (512, 381), (512, 381), (512, 378), (519, 364), (524, 355), (532, 348), (541, 336), (567, 304), (580, 286), (596, 261), (615, 236), (650, 188), (659, 172)]",304.7372931016058,"[7, 2, 4, 1, 8, 6, 9, 3, 5]","(0, 0.25)",CHN010D,CHN,D,Chinese,Thu Nov  8 13:58:34 2018,Mouse
2,1,4,0,53,7,7,1,342,132,210,139,0,500,200,8000,"[(512, 384), (512, 384), (512, 384), (512, 384), (512, 384), (512, 384), (512, 384), (512, 384), (512, 384), (512, 384), (512, 384), (512, 384), (512, 384), (513, 384), (513, 384), (513, 384), (513, 384), (513, 384), (513, 384), (513, 384), (513, 384), (513, 384), (513, 384), (513, 384), (513, 384), (513, 384), (513, 384), (528, 388), (560, 401), (599, 414), (623, 425), (672, 444), (701, 457), (730, 469), (767, 484)]",21.412969474871762,"[7, 2, 4, 1, 8, 6, 9, 3, 5]","(0, 0.25)",CHN010D,CHN,D,Chinese,Thu Nov  8 13:58:34 2018,Mouse
2,1,4,0,54,7,7,1,92,12,80,139,0,500,200,8000,"[(512, 384), (517, 382), (527, 382), (547, 385), (568, 388), (625, 399), (658, 408), (692, 418), (725, 427), (792, 446)]",12.485467490857152,"[7, 2, 4, 1, 8, 6, 9, 3, 5]","(0, 0.25)",CHN010D,CHN,D,Chinese,Thu Nov  8 13:58:34 2018,Mouse
2,1,4,0,55,2,2,1,363,283,80,138,0,500,200,8000,"[(512, 384), (512, 384), (512, 384), (512, 384), (512, 384), (512, 384), (512, 384), (512, 384), (512, 384), (512, 384), (512, 384), (512, 384), (512, 384), (512, 384), (512, 384), (512, 384), (512, 384), (512, 384), (512, 384), (512, 384), (512, 384), (512, 384), (512, 384), (512, 384), (512, 384), (512, 384), (512, 384), (512, 384), (514, 384), (525, 396), (535, 415), (550, 440), (578, 494), (594, 526), (610, 556), (627, 596), (652, 651)]",62.32997435943973,"[7, 2, 4, 1, 8, 6, 9, 3, 5]","(0, 0.25)",CHN010D,CHN,D,Chinese,Thu Nov  8 13:58:34 2018,Mouse
2,1,4,0,56,1,6,0,-442,212,230,137,0,500,200,8000,"[(512, 384), (512, 384), (512, 384), (512, 384), (512, 384), (512, 384), (512, 384), (512, 384), (512, 384), (512, 384), (512, 384), (512, 384), (512, 384), (512, 384), (512, 384), (512, 384), (512, 384), (512, 384), (512, 384), (512, 384), (512, 384), (512, 383), (512, 383), (512, 383), (513, 383), (513, 383), (513, 383), (513, 383), (513, 383), (513, 383), (513, 382), (513, 382), (513, 382), (513, 381), (513, 379), (513, 377), (507, 366), (500, 358), (491, 347), (475, 327), (430, 274), (406, 252), (386, 235), (368, 218), (323, 176)]",227.740024679502,"[7, 2, 4, 1, 8, 6, 9, 3, 5]","(0, 0.25)",CHN010D,CHN,D,Chinese,Thu Nov  8 13:58:34 2018,Mouse
2,1,4,0,57,9,7,0,-402,162,240,138,0,500,200,8000,"[(512, 384), (512, 384), (512, 384), (512, 384), (512, 384), (512, 384), (512, 384), (512, 384), (512, 384), (512, 384), (512, 384), (512, 384), (512, 384), (512, 384), (512, 384), (512, 384), (513, 385), (513, 385), (513, 385), (513, 385), (513, 385), (513, 385), (513, 385), (513, 385), (513, 385), (513, 385), (513, 385), (513, 385), (513, 385), (513, 385), (513, 385), (513, 385), (519, 385), (534, 393), (544, 398), (561, 406), (597, 421), (621, 428), (649, 436), (690, 445), (768, 469)]",18.36777912390129,"[7, 2, 4, 1, 8, 6, 9, 3, 5]","(0, 0.25)",CHN010D,CHN,D,Chinese,Thu Nov  8 13:58:34 2018,Mouse
2,1,4,0,58,8,6,0,-441,242,199,139,0,500,200,8000,"[(512, 384), (512, 384), (512, 384), (512, 384), (512, 384), (512, 384), (512, 384), (512, 384), (512, 384), (512, 384), (512, 384), (512, 384), (512, 384), (512, 384), (512, 384), (512, 384), (512, 384), (512, 384), (512, 384), (512, 384), (512, 384), (512, 384), (512, 384), (512, 384), (512, 383), (512, 383), (512, 383), (512, 383), (512, 383), (512, 383), (512, 383), (512, 383), (512, 383), (512, 383), (512, 383), (512, 383), (512, 383), (511, 383), (500, 378), (483, 368), (440, 342), (412, 326), (385, 311), (347, 288), (273, 247)]",209.82227311774494,"[7, 2, 4, 1, 8, 6, 9, 3, 5]","(0, 0.25)",CHN010D,CHN,D,Chinese,Thu Nov  8 13:58:34 2018,Mouse
2,1,4,0,59,8,8,1,532,172,360,140,0,500,200,8000,"[(512, 384), (512, 384), (512, 384), (512, 384), (512, 384), (512, 384), (512, 384), (512, 384), (512, 384), (512, 384), (512, 384), (512, 384), (512, 384), (512, 384), (512, 384), (512, 384), (512, 384), (511, 384), (511, 384), (511, 384), (511, 384), (511, 384), (511, 384), (511, 384), (511, 384), (511, 384), (511, 384), (511, 384), (511, 384), (511, 384), (511, 384), (511, 384), (511, 384), (511, 384), (511, 384), (511, 384), (511, 384), (511, 384), (511, 384), (511, 384), (510, 384), (510, 384), (510, 384), (510, 384), (509, 384), (508, 384), (505, 385), (496, 389), (465, 398), (438, 403), (395, 408), (352, 414), (266, 425), (219, 425)]",172.03422543478942,"[7, 2, 4, 1, 8, 6, 9, 3, 5]","(0, 0.25)",CHN010D,CHN,D,Chinese,Thu Nov  8 13:58:34 2018,Mouse
2,1,4,0,60,7,7,1,422,12,410,140,0,500,200,8000,"[(512, 384), (514, 384), (514, 384), (514, 384), (514, 384), (514, 384), (514, 384), (514, 384), (514, 384), (514, 384), (514, 384), (514, 384), (514, 384), (514, 384), (514, 384), (514, 384), (514, 384), (514, 384), (514, 384), (514, 384), (514, 384), (514, 384), (514, 384), (514, 384), (517, 382), (518, 381), (518, 380), (519, 379), (519, 379), (519, 379), (519, 379), (519, 379), (519, 379), (519, 379), (521, 379), (541, 386), (559, 394), (585, 404), (613, 416), (668, 435), (707, 447), (740, 455), (770, 464)]",17.22748822645095,"[7, 2, 4, 1, 8, 6, 9, 3, 5]","(0, 0.25)",CHN010D,CHN,D,Chinese,Thu Nov  8 13:58:34 2018,Mouse
2,1,4,0,61,7,7,1,172,92,80,139,0,500,200,8000,"[(512, 384), (512, 384), (512, 384), (512, 384), (512, 384), (512, 384), (512, 384), (512, 384), (512, 384), (516, 384), (526, 386), (535, 388), (546, 389), (575, 396), (600, 404), (634, 412), (680, 420), (779, 448)]",13.47949988286977,"[7, 2, 4, 1, 8, 6, 9, 3, 5]","(0, 0.25)",CHN010D,CHN,D,Chinese,Thu Nov  8 13:58:34 2018,Mouse
2,1,4,0,62,8,4,0,-563,453,110,138,0,500,200,8000,"[(512, 384), (512, 384), (512, 384), (512, 384), (512, 384), (512, 384), (512, 384), (512, 384), (512, 384), (512, 384), (512, 384), (512, 384), (512, 384), (512, 384), (512, 384), (512, 384), (512, 384), (512, 384), (512, 384), (512, 384), (512, 384), (512, 384), (512, 384), (512, 384), (512, 384), (512, 384), (512, 384), (512, 384), (512, 384), (512, 384), (512, 384), (512, 384), (512, 384), (512, 384), (512, 384), (512, 384), (512, 384), (512, 384), (512, 384), (512, 384), (512, 384), (512, 384), (512, 384), (512, 384), (512, 384), (509, 387), (504, 403), (500, 422), (482, 459), (478, 472), (472, 486), (464, 506), (454, 540), (448, 560), (444, 579), (441, 600), (440, 640)]",105.70863782901574,"[7, 2, 4, 1, 8, 6, 9, 3, 5]","(0, 0.25)",CHN010D,CHN,D,Chinese,Thu Nov  8 13:58:34 2018,Mouse
2,1,4,0,63,7,7,1,92,12,80,139,0,500,200,8000,"[(514, 384), (520, 384), (527, 384), (536, 384), (566, 387), (591, 393), (618, 401), (664, 421), (747, 446), (792, 459)]",14.995079129175986,"[7, 2, 4, 1, 8, 6, 9, 3, 5]","(0, 0.25)",CHN010D,CHN,D,Chinese,Thu Nov  8 13:58:34 2018,Mouse
2,1,4,0,64,6,6,1,426,326,100,139,0,500,200,8000,"[(512, 384), (512, 384), (512, 384), (512, 384), (512, 384), (512, 384), (512, 384), (512, 384), (512, 384), (512, 384), (512, 384), (512, 384), (512, 384), (512, 384), (512, 384), (512, 384), (512, 384), (512, 384), (512, 384), (512, 384), (512, 384), (512, 384), (512, 384), (512, 384), (512, 384), (512, 384), (512, 384), (512, 384), (512, 384), (512, 384), (512, 384), (512, 384), (510, 383), (502, 383), (478, 372), (463, 363), (444, 351), (423, 340), (373, 311), (351, 295), (331, 281), (311, 267), (287, 248)]",211.15063055798853,"[7, 2, 4, 1, 8, 6, 9, 3, 5]","(0, 0.25)",CHN010D,CHN,D,Chinese,Thu Nov  8 13:58:34 2018,Mouse
2,1,4,0,65,9,9,1,501,331,170,138,0,500,200,8000,"[(512, 384), (512, 384), (512, 384), (512, 384), (512, 384), (512, 384), (512, 384), (512, 384), (512, 384), (512, 384), (512, 384), (512, 384), (512, 384), (512, 384), (512, 384), (512, 384), (512, 384), (512, 384), (512, 384), (512, 384), (512, 384), (512, 384), (512, 384), (512, 384), (512, 384), (512, 384), (512, 384), (512, 384), (512, 384), (512, 384), (512, 384), (512, 384), (512, 384), (512, 383), (513, 375), (516, 365), (521, 348), (524, 339), (525, 328), (526, 317), (528, 291), (528, 279), (528, 267), (528, 250), (522, 218), (519, 205), (516, 191), (510, 174), (498, 152), (494, 140), (491, 130)]",265.27369670705957,"[7, 2, 4, 1, 8, 6, 9, 3, 5]","(0, 0.25)",CHN010D,CHN,D,Chinese,Thu Nov  8 13:58:34 2018,Mouse
2,1,4,0,66,2,3,0,-542,282,260,137,0,500,200,8000,"[(512, 384), (512, 384), (512, 384), (512, 384), (512, 384), (512, 384), (512, 384), (512, 384), (512, 384), (512, 384), (512, 384), (512, 384), (512, 384), (512, 384), (512, 384), (512, 384), (512, 384), (512, 384), (512, 384), (512, 384), (512, 384), (512, 384), (512, 384), (512, 384), (512, 384), (512, 384), (512, 384), (512, 384), (513, 384), (514, 384), (516, 381), (516, 381), (517, 378), (518, 377), (519, 374), (519, 374), (520, 373), (520, 372), (520, 371), (522, 368), (522, 367), (524, 363), (533, 347), (541, 335), (550, 325), (557, 316), (573, 294), (582, 282), (594, 269), (605, 257), (624, 235), (635, 222), (646, 208), (655, 195), (675, 170)]",307.29588072248714,"[7, 2, 4, 1, 8, 6, 9, 3, 5]","(0, 0.25)",CHN010D,CHN,D,Chinese,Thu Nov  8 13:58:34 2018,Mouse
2,1,4,0,67,4,4,1,388,188,200,138,0,500,200,8000,"[(512, 384), (512, 384), (512, 384), (512, 384), (512, 384), (512, 384), (512, 384), (512, 384), (512, 384), (512, 384), (512, 384), (512, 384), (512, 384), (512, 384), (512, 384), (512, 384), (512, 384), (512, 384), (513, 386), (513, 390), (513, 391), (513, 394), (513, 397), (512, 408), (512, 413), (512, 423), (512, 432), (512, 453), (512, 465), (512, 478), (512, 497), (512, 534), (512, 553), (512, 570), (512, 584), (512, 611), (511, 622), (509, 633), (506, 644)]",91.32197565953699,"[7, 2, 4, 1, 8, 6, 9, 3, 5]","(0, 0.25)",CHN010D,CHN,D,Chinese,Thu Nov  8 13:58:34 2018,Mouse
2,1,4,0,68,5,5,1,282,72,210,138,0,500,200,8000,"[(512, 384), (512, 384), (512, 384), (512, 384), (512, 384), (512, 384), (512, 384), (512, 383), (512, 383), (514, 381), (517, 379), (519, 378), (526, 377), (540, 372), (550, 369), (560, 367), (570, 363), (595, 358), (606, 356), (618, 354), (629, 352), (650, 345), (660, 341), (670, 338), (682, 332), (710, 322), (727, 319), (741, 314), (752, 310)]",342.863725496424,"[7, 2, 4, 1, 8, 6, 9, 3, 5]","(0, 0.25)",CHN010D,CHN,D,Chinese,Thu Nov  8 13:58:34 2018,Mouse
2,1,4,0,69,6,6,1,583,443,140,137,0,500,200,8000,"[(512, 384), (512, 384), (512, 384), (512, 384), (512, 384), (512, 384), (512, 384), (512, 384), (512, 384), (512, 384), (512, 384), (512, 384), (512, 384), (512, 384), (512, 384), (512, 384), (512, 384), (512, 384), (512, 384), (512, 384), (512, 384), (512, 384), (512, 384), (512, 384), (512, 384), (512, 384), (512, 384), (512, 384), (512, 384), (512, 384), (512, 384), (512, 384), (512, 384), (512, 384), (512, 384), (512, 384), (512, 384), (512, 384), (512, 384), (512, 384), (512, 384), (512, 384), (512, 384), (512, 384), (512, 383), (506, 382), (505, 382), (503, 380), (498, 375), (491, 369), (488, 367), (486, 362), (482, 357), (467, 341), (458, 329), (445, 316), (421, 292), (363, 243), (321, 209)]",222.4968602204151,"[7, 2, 4, 1, 8, 6, 9, 3, 5]","(0, 0.25)",CHN010D,CHN,D,Chinese,Thu Nov  8 13:58:34 2018,Mouse
2,1,4,0,70,8,6,0,-404,324,80,136,0,500,200,8000,"[(512, 384), (512, 384), (512, 384), (512, 384), (512, 384), (512, 384), (512, 384), (512, 384), (512, 384), (512, 384), (512, 384), (512, 384), (512, 384), (512, 384), (512, 384), (512, 384), (512, 384), (512, 384), (512, 384), (512, 384), (512, 384), (512, 384), (512, 384), (512, 384), (512, 384), (512, 384), (512, 384), (512, 384), (512, 384), (512, 384), (512, 384), (512, 384), (512, 383), (510, 378), (487, 354), (465, 338), (439, 320), (410, 304), (342, 265), (311, 248), (278, 228)]",213.69006752597977,"[7, 2, 4, 1, 8, 6, 9, 3, 5]","(0, 0.25)",CHN010D,CHN,D,Chinese,Thu Nov  8 13:58:34 2018,Mouse
2,1,4,0,71,4,4,1,762,412,350,137,0,500,200,8000,"[(512, 384), (512, 384), (512, 384), (512, 384), (512, 384), (512, 384), (512, 384), (512, 384), (512, 384), (512, 384), (512, 384), (512, 384), (512, 384), (512, 384), (512, 384), (512, 384), (512, 384), (512, 384), (512, 384), (512, 384), (512, 384), (512, 384), (512, 384), (512, 384), (512, 384), (512, 384), (512, 384), (512, 384), (512, 384), (512, 384), (512, 384), (512, 384), (512, 384), (512, 384), (512, 384), (512, 384), (512, 384), (512, 384), (512, 384), (512, 384), (512, 384), (513, 383), (514, 383), (515, 383), (515, 383), (515, 383), (515, 383), (515, 383), (515, 383), (515, 383), (515, 383), (515, 383), (515, 383), (515, 383), (515, 383), (515, 383), (515, 383), (516, 382), (516, 382), (518, 382), (519, 382), (520, 382), (521, 384), (522, 388), (523, 396), (524, 413), (524, 422), (524, 436), (524, 448), (524, 473), (524, 489), (524, 509), (524, 528), (518, 568), (515, 592), (511, 616), (505, 639)]",91.57243042767335,"[7, 2, 4, 1, 8, 6, 9, 3, 5]","(0, 0.25)",CHN010D,CHN,D,Chinese,Thu Nov  8 13:58:34 2018,Mouse
2,1,4,0,72,3,3,1,431,51,380,137,0,500,200,8000,"[(512, 384), (512, 384), (512, 384), (512, 384), (512, 384), (511, 384), (511, 385), (511, 385), (511, 385), (510, 385), (509, 385), (509, 385), (509, 385), (509, 385), (509, 385), (509, 385), (509, 385), (509, 385), (508, 385), (508, 385), (508, 385), (508, 385), (508, 385), (508, 385), (508, 385), (508, 385), (508, 385), (508, 385), (508, 385), (508, 385), (508, 385), (508, 385), (508, 385), (508, 385), (508, 385), (511, 385), (518, 385), (532, 380), (565, 359), (583, 343), (603, 312), (621, 280), (658, 192), (678, 146)]",304.89496363496204,"[7, 2, 4, 1, 8, 6, 9, 3, 5]","(0, 0.25)",CHN010D,CHN,D,Chinese,Thu Nov  8 13:58:34 2018,Mouse
2,1,4,0,73,4,4,1,381,71,310,136,0,500,200,8000,"[(512, 384), (512, 384), (512, 384), (512, 384), (512, 384), (512, 384), (512, 384), (511, 384), (511, 384), (511, 384), (511, 384), (510, 385), (509, 386), (509, 388), (509, 390), (508, 395), (508, 402), (507, 415), (507, 427), (505, 446), (503, 454), (503, 460), (503, 466), (502, 475), (502, 480), (501, 486), (501, 493), (501, 513), (501, 527), (500, 538), (500, 550), (495, 574), (494, 582), (494, 586), (494, 592), (494, 605), (492, 614), (491, 624), (490, 635)]",95.00913957320734,"[7, 2, 4, 1, 8, 6, 9, 3, 5]","(0, 0.25)",CHN010D,CHN,D,Chinese,Thu Nov  8 13:58:34 2018,Mouse
2,1,4,0,74,8,5,0,-884,284,600,135,0,500,200,8000,"[(512, 384), (512, 384), (512, 384), (512, 384), (512, 384), (512, 384), (512, 384), (512, 384), (512, 384), (512, 384), (512, 384), (512, 384), (512, 384), (512, 384), (512, 384), (512, 384), (512, 384), (512, 384), (512, 384), (512, 384), (512, 384), (512, 384), (512, 384), (512, 384), (512, 384), (512, 384), (512, 384), (512, 384), (511, 383), (511, 383), (511, 383), (511, 383), (511, 383), (511, 383), (511, 383), (511, 383), (520, 383), (532, 387), (546, 393), (569, 403), (619, 417), (642, 424), (659, 428), (672, 432), (696, 438), (703, 440), (708, 442), (709, 442), (709, 442), (709, 442), (709, 442), (709, 442), (709, 442), (709, 442), (709, 442), (709, 442), (709, 442), (709, 442), (709, 442), (709, 442), (708, 442), (708, 442), (708, 442), (708, 442), (708, 442), (708, 442), (708, 442), (708, 442), (708, 442), (708, 442), (708, 442), (708, 442), (708, 442), (707, 442), (706, 442), (704, 441), (700, 437), (699, 435), (698, 431), (698, 427), (698, 412), (698, 402), (702, 391), (708, 378), (722, 350), (732, 338), (740, 329), (752, 318), (775, 297)]",341.6958632317827,"[7, 2, 4, 1, 8, 6, 9, 3, 5]","(0, 0.25)",CHN010D,CHN,D,Chinese,Thu Nov  8 13:58:34 2018,Mouse
2,1,4,0,75,5,5,1,403,53,350,136,0,500,200,8000,"[(512, 384), (512, 384), (512, 384), (512, 384), (512, 384), (510, 384), (510, 385), (510, 385), (510, 385), (510, 385), (510, 385), (510, 385), (510, 385), (512, 384), (512, 384), (513, 384), (514, 383), (514, 383), (515, 382), (518, 381), (521, 379), (525, 377), (527, 375), (531, 372), (543, 367), (553, 363), (559, 360), (571, 357), (593, 350), (603, 346), (612, 343), (622, 338), (640, 332), (649, 327), (657, 323), (670, 320), (697, 306), (709, 303), (722, 297), (736, 292), (757, 285)]",337.99727096438096,"[7, 2, 4, 1, 8, 6, 9, 3, 5]","(0, 0.25)",CHN010D,CHN,D,Chinese,Thu Nov  8 13:58:34 2018,Mouse
2,1,4,0,76,6,6,1,540,130,410,136,0,500,200,8000,"[(512, 384), (512, 384), (512, 384), (512, 384), (512, 384), (512, 384), (512, 384), (512, 384), (512, 384), (512, 384), (512, 384), (512, 384), (511, 384), (510, 384), (509, 384), (505, 384), (502, 384), (502, 384), (502, 384), (502, 384), (502, 384), (502, 384), (502, 384), (502, 384), (502, 384), (502, 384), (502, 384), (502, 384), (502, 384), (502, 384), (502, 384), (502, 384), (502, 384), (502, 384), (502, 384), (502, 384), (502, 384), (504, 384), (504, 384), (504, 384), (505, 383), (505, 383), (504, 380), (504, 380), (503, 376), (500, 370), (485, 353), (475, 345), (461, 335), (442, 322), (391, 286), (367, 264), (342, 244), (313, 218)]",219.83387928142082,"[7, 2, 4, 1, 8, 6, 9, 3, 5]","(0, 0.25)",CHN010D,CHN,D,Chinese,Thu Nov  8 13:58:34 2018,Mouse
2,1,4,0,77,3,3,1,391,111,280,135,0,500,200,8000,"[(512, 384), (512, 384), (512, 384), (512, 384), (512, 384), (512, 384), (512, 384), (512, 384), (512, 384), (512, 384), (512, 384), (514, 384), (517, 384), (529, 379), (537, 378), (542, 375), (548, 372), (559, 363), (568, 357), (574, 353), (579, 348), (591, 332), (596, 322), (602, 311), (607, 303), (617, 284), (619, 278), (621, 274), (623, 269), (628, 259), (632, 252), (634, 247), (637, 240), (644, 224), (648, 216), (650, 208), (653, 201), (655, 187), (657, 181), (658, 175)]",304.9367864950582,"[7, 2, 4, 1, 8, 6, 9, 3, 5]","(0, 0.25)",CHN010D,CHN,D,Chinese,Thu Nov  8 13:58:34 2018,Mouse
2,1,4,0,78,4,4,1,311,151,160,134,0,500,200,8000,"[(512, 384), (512, 384), (512, 384), (512, 384), (512, 384), (512, 384), (512, 384), (512, 384), (512, 384), (512, 384), (512, 384), (512, 384), (512, 384), (512, 384), (512, 384), (513, 385), (513, 386), (513, 388), (512, 390), (511, 393), (510, 394), (509, 397), (509, 400), (509, 412), (509, 423), (509, 435), (509, 454), (509, 504), (509, 538), (509, 568), (509, 599), (509, 655)]",90.63424471442613,"[7, 2, 4, 1, 8, 6, 9, 3, 5]","(0, 0.25)",CHN010D,CHN,D,Chinese,Thu Nov  8 13:58:34 2018,Mouse
2,1,4,0,79,6,6,1,460,50,410,133,0,500,200,8000,"[(512, 384), (512, 384), (512, 384), (512, 384), (512, 383), (512, 383), (512, 382), (512, 382), (512, 382), (512, 382), (512, 382), (512, 382), (512, 382), (512, 382), (512, 382), (512, 382), (512, 382), (512, 382), (512, 382), (512, 385), (512, 385), (512, 386), (512, 386), (512, 386), (512, 386), (512, 386), (512, 386), (512, 386), (512, 386), (512, 386), (512, 386), (512, 386), (512, 386), (512, 386), (512, 386), (511, 386), (508, 386), (506, 382), (501, 376), (487, 361), (478, 349), (466, 334), (446, 313), (395, 253), (368, 214), (338, 184)]",228.97673097507757,"[7, 2, 4, 1, 8, 6, 9, 3, 5]","(0, 0.25)",CHN010D,CHN,D,Chinese,Thu Nov  8 13:58:34 2018,Mouse
2,1,4,0,80,2,2,1,1057,697,360,132,0,500,200,8000,"[(512, 384), (512, 384), (512, 384), (512, 384), (512, 384), (512, 384), (512, 384), (512, 384), (512, 384), (512, 384), (512, 384), (512, 384), (512, 384), (512, 384), (512, 384), (512, 384), (512, 384), (512, 384), (512, 384), (512, 384), (512, 384), (512, 384), (512, 384), (512, 384), (512, 384), (512, 384), (512, 384), (512, 384), (512, 384), (512, 384), (512, 384), (512, 384), (512, 384), (512, 384), (512, 384), (512, 384), (512, 384), (512, 384), (512, 384), (512, 384), (512, 384), (512, 384), (512, 384), (512, 384), (512, 384), (512, 384), (512, 384), (512, 384), (512, 384), (512, 384), (512, 384), (512, 384), (512, 384), (512, 384), (512, 384), (512, 384), (512, 384), (512, 384), (512, 384), (512, 384), (512, 384), (512, 384), (512, 384), (512, 384), (512, 384), (512, 384), (512, 384), (512, 384), (512, 384), (514, 382), (515, 382), (517, 379), (520, 374), (529, 358), (535, 351), (539, 345), (543, 337), (549, 327), (550, 326), (550, 325), (550, 325), (550, 325), (550, 325), (550, 325), (550, 325), (549, 325), (549, 326), (547, 326), (545, 326), (544, 328), (543, 329), (543, 329), (543, 331), (543, 340), (543, 347), (545, 358), (551, 372), (570, 412), (578, 434), (587, 455), (596, 476), (616, 516), (626, 532), (637, 549), (647, 568), (674, 614)]",54.84113175963439,"[7, 2, 4, 1, 8, 6, 9, 3, 5]","(0, 0.25)",CHN010D,CHN,D,Chinese,Thu Nov  8 13:58:34 2018,Mouse
2,1,4,0,81,8,5,0,-637,17,620,131,0,500,200,8000,"[(512, 384), (512, 383), (512, 382), (512, 379), (512, 379), (512, 379), (512, 379), (512, 379), (512, 379), (512, 379), (512, 379), (512, 379), (512, 379), (512, 379), (512, 379), (512, 379), (512, 379), (512, 379), (512, 379), (512, 379), (512, 379), (512, 379), (512, 379), (513, 379), (515, 380), (516, 382), (516, 382), (517, 382), (517, 382), (518, 382), (519, 381), (519, 380), (519, 380), (520, 380), (520, 380), (521, 379), (521, 379), (521, 379), (521, 379), (521, 379), (522, 379), (522, 378), (522, 378), (523, 377), (523, 377), (524, 377), (524, 377), (525, 376), (527, 376), (529, 374), (531, 374), (542, 372), (552, 369), (558, 367), (569, 364), (593, 356), (609, 351), (626, 346), (640, 342), (679, 331), (705, 323), (724, 318), (746, 313), (780, 303)]",343.18314570981545,"[7, 2, 4, 1, 8, 6, 9, 3, 5]","(0, 0.25)",CHN010D,CHN,D,Chinese,Thu Nov  8 13:58:34 2018,Mouse
2,1,4,0,82,3,3,1,372,232,140,132,0,500,200,8000,"[(512, 384), (512, 384), (512, 384), (512, 384), (512, 384), (512, 384), (512, 384), (512, 384), (512, 384), (512, 384), (512, 384), (512, 384), (512, 384), (512, 384), (512, 384), (512, 384), (512, 384), (512, 384), (512, 384), (512, 384), (512, 384), (512, 384), (512, 384), (512, 383), (513, 383), (513, 382), (514, 381), (522, 370), (527, 360), (533, 351), (537, 340), (559, 301), (570, 275), (584, 246), (598, 223), (621, 183), (629, 165), (635, 152)]",297.9313013850017,"[7, 2, 4, 1, 8, 6, 9, 3, 5]","(0, 0.25)",CHN010D,CHN,D,Chinese,Thu Nov  8 13:58:34 2018,Mouse
2,1,4,0,83,2,5,0,-572,442,130,132,0,500,200,8000,"[(512, 384), (512, 384), (512, 384), (512, 384), (512, 384), (512, 384), (512, 384), (512, 384), (512, 384), (512, 384), (512, 384), (512, 384), (512, 384), (512, 384), (512, 384), (512, 384), (512, 384), (512, 384), (512, 384), (512, 384), (512, 384), (512, 384), (512, 384), (512, 384), (512, 384), (512, 384), (512, 384), (512, 384), (512, 384), (512, 384), (512, 384), (512, 384), (512, 384), (512, 384), (512, 384), (512, 384), (512, 384), (512, 384), (512, 384), (512, 384), (512, 384), (512, 384), (512, 384), (512, 384), (512, 383), (514, 382), (525, 377), (533, 375), (542, 371), (552, 369), (570, 364), (584, 360), (602, 354), (627, 348), (683, 338), (713, 335), (745, 330), (776, 319)]",346.16820090796955,"[7, 2, 4, 1, 8, 6, 9, 3, 5]","(0, 0.25)",CHN010D,CHN,D,Chinese,Thu Nov  8 13:58:34 2018,Mouse
2,1,4,0,84,6,3,0,-471,331,140,133,0,500,200,8000,"[(512, 384), (512, 384), (512, 384), (512, 384), (512, 384), (512, 384), (512, 384), (512, 384), (512, 384), (512, 384), (512, 384), (512, 384), (512, 384), (512, 384), (512, 384), (512, 384), (512, 384), (512, 384), (512, 384), (512, 384), (512, 384), (512, 384), (512, 384), (512, 384), (512, 384), (512, 384), (512, 384), (512, 384), (512, 384), (512, 384), (512, 384), (512, 384), (512, 384), (512, 383), (513, 382), (515, 380), (517, 377), (522, 370), (533, 354), (538, 347), (543, 339), (551, 329), (575, 294), (587, 277), (597, 258), (611, 233), (633, 189), (640, 168)]",300.65066795705286,"[7, 2, 4, 1, 8, 6, 9, 3, 5]","(0, 0.25)",CHN010D,CHN,D,Chinese,Thu Nov  8 13:58:34 2018,Mouse
2,1,4,0,85,3,3,1,592,512,80,134,0,500,200,8000,"[(512, 384), (512, 384), (512, 384), (512, 384), (512, 384), (512, 384), (512, 384), (512, 384), (512, 384), (512, 384), (512, 384), (512, 384), (512, 384), (512, 384), (512, 384), (512, 384), (512, 384), (512, 384), (512, 384), (512, 384), (512, 384), (512, 384), (512, 384), (512, 384), (512, 384), (512, 384), (512, 384), (512, 384), (512, 384), (512, 384), (512, 384), (512, 384), (512, 384), (512, 384), (512, 384), (512, 384), (512, 384), (512, 384), (512, 384), (512, 384), (512, 384), (512, 384), (512, 384), (512, 384), (512, 384), (512, 384), (512, 384), (512, 384), (512, 384), (512, 384), (512, 384), (513, 384), (521, 380), (530, 372), (543, 356), (571, 305), (595, 259), (608, 225), (624, 190), (642, 146)]",298.64418289898276,"[7, 2, 4, 1, 8, 6, 9, 3, 5]","(0, 0.25)",CHN010D,CHN,D,Chinese,Thu Nov  8 13:58:34 2018,Mouse
2,1,4,0,86,4,4,1,592,502,90,134,0,500,200,8000,"[(512, 384), (512, 384), (512, 384), (512, 384), (512, 384), (512, 384), (512, 384), (512, 384), (512, 384), (512, 384), (512, 384), (512, 384), (512, 384), (512, 384), (512, 384), (512, 384), (512, 384), (512, 384), (512, 384), (512, 384), (512, 384), (512, 384), (512, 384), (512, 384), (512, 384), (512, 384), (512, 384), (512, 384), (512, 384), (512, 384), (512, 384), (512, 384), (512, 384), (512, 384), (512, 384), (512, 384), (512, 384), (512, 384), (512, 384), (512, 384), (512, 384), (512, 384), (512, 384), (512, 384), (512, 384), (512, 384), (512, 384), (512, 384), (512, 384), (512, 384), (512, 388), (512, 392), (512, 421), (512, 446), (512, 477), (511, 516), (506, 573), (503, 605), (503, 625), (501, 651)]",92.35916613258163,"[7, 2, 4, 1, 8, 6, 9, 3, 5]","(0, 0.25)",CHN010D,CHN,D,Chinese,Thu Nov  8 13:58:34 2018,Mouse
2,1,4,0,87,7,2,0,-595,494,101,133,0,500,200,8000,"[(512, 384), (512, 384), (512, 384), (512, 384), (512, 384), (512, 384), (512, 384), (512, 384), (512, 384), (512, 384), (512, 384), (512, 384), (512, 384), (512, 384), (512, 384), (512, 384), (512, 384), (512, 384), (512, 384), (512, 384), (512, 384), (512, 384), (512, 384), (512, 384), (512, 384), (512, 384), (512, 384), (512, 384), (512, 384), (512, 384), (512, 384), (512, 384), (512, 384), (512, 384), (512, 384), (512, 384), (512, 384), (512, 384), (512, 384), (512, 384), (512, 384), (512, 384), (512, 384), (512, 384), (512, 384), (512, 384), (512, 384), (512, 384), (512, 384), (513, 384), (521, 389), (537, 406), (566, 435), (578, 454), (592, 473), (606, 508), (626, 555), (635, 573), (639, 586), (645, 597)]",58.018802429784806,"[7, 2, 4, 1, 8, 6, 9, 3, 5]","(0, 0.25)",CHN010D,CHN,D,Chinese,Thu Nov  8 13:58:34 2018,Mouse
2,1,4,0,88,9,5,0,-282,162,120,134,0,500,200,8000,"[(512, 384), (512, 384), (512, 384), (512, 384), (512, 384), (512, 384), (512, 384), (512, 384), (512, 384), (512, 384), (512, 384), (512, 384), (512, 384), (512, 384), (512, 384), (512, 384), (513, 384), (515, 384), (515, 384), (515, 384), (517, 384), (525, 383), (538, 382), (551, 381), (613, 359), (655, 348), (699, 334), (750, 314), (858, 262)]",340.5772907774382,"[7, 2, 4, 1, 8, 6, 9, 3, 5]","(0, 0.25)",CHN010D,CHN,D,Chinese,Thu Nov  8 13:58:34 2018,Mouse
2,1,4,0,89,9,4,0,-742,672,70,135,0,500,200,8000,"[(512, 384), (512, 384), (512, 384), (512, 384), (512, 384), (512, 384), (512, 384), (512, 384), (512, 384), (512, 384), (512, 384), (512, 384), (512, 384), (512, 384), (512, 384), (512, 384), (512, 384), (512, 384), (512, 384), (512, 384), (512, 384), (512, 384), (512, 384), (512, 384), (512, 384), (512, 384), (512, 384), (512, 384), (512, 384), (512, 384), (512, 384), (512, 384), (512, 384), (512, 384), (512, 384), (512, 384), (512, 384), (512, 384), (512, 384), (512, 384), (512, 384), (512, 384), (512, 384), (512, 384), (512, 384), (512, 384), (512, 384), (512, 384), (512, 384), (512, 384), (512, 384), (512, 384), (512, 384), (512, 384), (512, 384), (512, 384), (512, 384), (512, 384), (512, 384), (512, 384), (512, 384), (512, 384), (512, 384), (512, 384), (512, 384), (512, 384), (512, 384), (511, 385), (507, 409), (504, 436), (497, 463), (490, 506), (482, 591), (483, 628), (486, 671)]",95.17642834925915,"[7, 2, 4, 1, 8, 6, 9, 3, 5]","(0, 0.25)",CHN010D,CHN,D,Chinese,Thu Nov  8 13:58:34 2018,Mouse
2,1,4,0,90,3,3,1,471,62,409,136,0,500,200,8000,"[(512, 384), (512, 384), (512, 384), (512, 384), (512, 384), (512, 384), (512, 383), (512, 381), (512, 380), (512, 380), (512, 380), (512, 380), (512, 380), (512, 380), (512, 380), (512, 380), (512, 380), (512, 380), (512, 380), (512, 380), (512, 380), (512, 380), (512, 380), (512, 380), (512, 380), (512, 381), (513, 381), (513, 381), (513, 381), (513, 381), (513, 381), (513, 381), (513, 380), (513, 377), (517, 374), (524, 361), (530, 352), (534, 344), (539, 336), (549, 311), (552, 300), (558, 288), (563, 269), (576, 227), (582, 208), (589, 187), (598, 167), (612, 136)]",291.96056402009646,"[7, 2, 4, 1, 8, 6, 9, 3, 5]","(0, 0.25)",CHN010D,CHN,D,Chinese,Thu Nov  8 13:58:34 2018,Mouse
2,1,4,0,91,7,4,0,-781,531,250,136,0,500,200,8000,"[(512, 384), (512, 384), (512, 384), (512, 384), (512, 384), (512, 384), (512, 384), (512, 384), (512, 384), (512, 384), (512, 384), (512, 384), (512, 384), (512, 384), (512, 384), (512, 384), (512, 384), (512, 384), (512, 384), (512, 384), (512, 384), (512, 384), (512, 384), (512, 384), (512, 384), (512, 384), (512, 384), (512, 384), (512, 384), (512, 384), (512, 384), (512, 384), (512, 384), (512, 384), (512, 384), (512, 384), (512, 384), (512, 384), (512, 384), (512, 384), (512, 384), (512, 384), (512, 384), (512, 384), (512, 384), (512, 384), (512, 384), (512, 384), (512, 384), (512, 384), (512, 384), (512, 384), (512, 384), (513, 385), (513, 387), (513, 391), (513, 403), (513, 409), (513, 413), (513, 417), (513, 424), (513, 426), (513, 429), (513, 432), (513, 437), (513, 441), (513, 448), (513, 455), (513, 470), (513, 476), (513, 484), (513, 491), (513, 506), (512, 515), (511, 524), (506, 537), (498, 576), (491, 604), (482, 639)]",96.70983680775694,"[7, 2, 4, 1, 8, 6, 9, 3, 5]","(0, 0.25)",CHN010D,CHN,D,Chinese,Thu Nov  8 13:58:34 2018,Mouse
2,1,4,0,92,5,5,1,355,15,340,137,0,500,200,8000,"[(512, 384), (509, 384), (509, 384), (509, 384), (509, 384), (509, 384), (509, 384), (509, 384), (509, 384), (509, 384), (509, 384), (509, 384), (509, 384), (509, 384), (509, 384), (509, 384), (509, 384), (509, 384), (509, 384), (509, 384), (509, 384), (510, 387), (510, 387), (512, 387), (512, 387), (517, 386), (523, 385), (532, 385), (544, 382), (570, 376), (585, 374), (608, 366), (637, 354), (686, 334), (726, 319), (752, 307)]",342.21202746154756,"[7, 2, 4, 1, 8, 6, 9, 3, 5]","(0, 0.25)",CHN010D,CHN,D,Chinese,Thu Nov  8 13:58:34 2018,Mouse
2,1,4,0,93,4,4,1,442,102,340,137,0,500,200,8000,"[(512, 384), (512, 384), (512, 384), (512, 384), (512, 384), (512, 384), (512, 384), (512, 384), (512, 384), (512, 384), (509, 384), (508, 386), (508, 386), (507, 386), (505, 386), (503, 386), (500, 386), (498, 386), (498, 386), (498, 386), (498, 386), (498, 386), (498, 386), (498, 386), (498, 386), (498, 386), (498, 386), (498, 387), (498, 387), (498, 387), (498, 387), (498, 387), (498, 387), (498, 387), (498, 387), (498, 387), (498, 387), (498, 388), (498, 396), (498, 416), (498, 441), (489, 513), (478, 552), (465, 589), (452, 628)]",103.81502534126162,"[7, 2, 4, 1, 8, 6, 9, 3, 5]","(0, 0.25)",CHN010D,CHN,D,Chinese,Thu Nov  8 13:58:34 2018,Mouse
2,1,4,0,94,2,3,0,-1103,403,700,136,0,500,200,8000,"[(512, 384), (512, 384), (512, 384), (512, 384), (512, 384), (512, 384), (512, 384), (512, 384), (512, 384), (512, 384), (512, 384), (512, 384), (512, 384), (512, 384), (512, 384), (512, 384), (512, 384), (512, 384), (512, 384), (512, 384), (512, 384), (512, 384), (512, 384), (512, 384), (512, 384), (512, 384), (512, 384), (512, 384), (512, 384), (512, 384), (512, 384), (512, 384), (512, 384), (512, 384), (512, 384), (512, 384), (512, 384), (512, 384), (512, 384), (512, 384), (513, 384), (516, 384), (520, 380), (522, 379), (524, 377), (529, 374), (531, 372), (535, 369), (537, 367), (542, 363), (543, 359), (545, 357), (548, 352), (555, 337), (558, 330), (561, 325), (563, 318), (567, 308), (570, 304), (570, 302), (570, 301), (570, 300), (570, 300), (570, 300), (570, 300), (570, 300), (570, 300), (570, 300), (570, 300), (569, 300), (567, 302), (565, 306), (561, 310), (547, 320), (541, 324), (534, 328), (528, 332), (518, 338), (516, 339), (514, 339), (513, 339), (513, 339), (513, 339), (513, 339), (513, 339), (517, 335), (519, 331), (524, 325), (528, 320), (538, 308), (543, 303), (549, 299), (552, 298), (562, 294), (566, 294), (566, 294), (567, 294), (569, 294), (569, 294), (570, 295), (570, 295), (570, 295), (570, 295), (570, 295), (570, 295), (571, 295), (577, 288), (586, 275), (603, 247), (633, 196), (644, 169)]",301.5479896428648,"[7, 2, 4, 1, 8, 6, 9, 3, 5]","(0, 0.25)",CHN010D,CHN,D,Chinese,Thu Nov  8 13:58:34 2018,Mouse
2,1,4,0,95,7,5,0,-372,222,150,137,0,500,200,8000,"[(512, 384), (512, 384), (512, 384), (512, 384), (512, 384), (512, 384), (512, 384), (512, 384), (512, 384), (512, 384), (512, 384), (512, 384), (512, 384), (512, 384), (512, 384), (512, 384), (512, 384), (512, 384), (512, 384), (512, 384), (512, 384), (512, 384), (514, 385), (518, 383), (522, 381), (525, 379), (532, 375), (542, 371), (551, 368), (558, 366), (568, 364), (594, 357), (610, 352), (631, 345), (650, 339), (701, 321), (727, 313), (757, 305)]",342.12813653227334,"[7, 2, 4, 1, 8, 6, 9, 3, 5]","(0, 0.25)",CHN010D,CHN,D,Chinese,Thu Nov  8 13:58:34 2018,Mouse
2,1,4,0,96,9,9,1,335,145,190,138,0,500,200,8000,"[(512, 384), (512, 384), (512, 384), (512, 384), (512, 384), (512, 384), (512, 384), (512, 384), (512, 384), (512, 384), (512, 384), (512, 384), (512, 384), (512, 384), (511, 384), (510, 384), (507, 384), (492, 376), (480, 368), (466, 355), (456, 346), (434, 319), (426, 308), (420, 295), (417, 283), (412, 255), (412, 243), (412, 231), (412, 219), (412, 196), (414, 184), (415, 172), (417, 161), (419, 140)]",249.13577785357802,"[7, 2, 4, 1, 8, 6, 9, 3, 5]","(0, 0.25)",CHN010D,CHN,D,Chinese,Thu Nov  8 13:58:34 2018,Mouse
2,1,4,0,97,8,6,0,-601,441,160,138,0,500,200,8000,"[(512, 384), (512, 384), (512, 384), (512, 384), (512, 384), (512, 384), (512, 384), (512, 384), (512, 384), (512, 384), (512, 384), (512, 384), (512, 384), (512, 384), (512, 384), (512, 384), (512, 384), (512, 384), (512, 384), (512, 384), (512, 384), (512, 384), (512, 384), (512, 384), (512, 384), (512, 384), (512, 384), (512, 384), (512, 384), (512, 384), (512, 384), (512, 384), (512, 384), (512, 384), (512, 384), (512, 384), (512, 384), (512, 384), (512, 384), (512, 384), (512, 384), (512, 384), (512, 384), (512, 384), (510, 381), (507, 376), (505, 373), (500, 371), (494, 366), (480, 356), (473, 350), (464, 344), (456, 340), (437, 326), (421, 314), (410, 307), (393, 297), (358, 279), (337, 268), (319, 260), (298, 251)]",211.86075807263668,"[7, 2, 4, 1, 8, 6, 9, 3, 5]","(0, 0.25)",CHN010D,CHN,D,Chinese,Thu Nov  8 13:58:34 2018,Mouse
2,1,4,0,98,8,5,0,-692,212,480,139,0,500,200,8000,"[(512, 384), (512, 384), (512, 384), (512, 384), (512, 384), (512, 384), (512, 384), (512, 384), (512, 384), (512, 384), (512, 384), (512, 384), (512, 384), (512, 384), (512, 384), (512, 384), (512, 384), (512, 384), (512, 384), (512, 384), (512, 384), (522, 383), (529, 377), (537, 373), (544, 368), (561, 356), (571, 346), (582, 338), (594, 329), (612, 311), (623, 300), (629, 293), (635, 284), (645, 265), (647, 262), (648, 257), (650, 255), (650, 254), (650, 254), (650, 254), (650, 254), (650, 254), (650, 254), (650, 254), (650, 254), (648, 255), (647, 255), (647, 255), (647, 255), (647, 255), (647, 255), (647, 255), (646, 256), (646, 256), (646, 257), (646, 257), (646, 257), (646, 259), (646, 260), (646, 261), (648, 263), (654, 269), (659, 273), (667, 278), (677, 280), (697, 284), (708, 285), (720, 285), (731, 285), (750, 285)]",337.4143312756002,"[7, 2, 4, 1, 8, 6, 9, 3, 5]","(0, 0.25)",CHN010D,CHN,D,Chinese,Thu Nov  8 13:58:34 2018,Mouse
2,1,4,0,99,2,2,1,512,432,80,140,0,500,200,8000,"[(512, 384), (512, 384), (512, 384), (512, 384), (512, 384), (512, 384), (512, 384), (512, 384), (512, 384), (512, 384), (512, 384), (512, 384), (512, 384), (512, 384), (512, 384), (512, 384), (512, 384), (512, 384), (512, 384), (512, 384), (512, 384), (512, 384), (512, 384), (512, 384), (512, 384), (512, 384), (512, 384), (512, 384), (512, 384), (512, 384), (512, 384), (512, 384), (512, 384), (512, 384), (512, 384), (512, 384), (512, 384), (512, 384), (512, 384), (512, 384), (512, 384), (512, 384), (512, 384), (514, 386), (518, 392), (525, 403), (534, 422), (567, 482), (588, 517), (604, 552), (619, 584), (640, 636)]",63.0723221489595,"[7, 2, 4, 1, 8, 6, 9, 3, 5]","(0, 0.25)",CHN010D,CHN,D,Chinese,Thu Nov  8 13:58:34 2018,Mouse
2,1,4,0,100,1,4,0,-443,53,390,140,0,500,200,8000,"[(512, 384), (512, 384), (512, 384), (512, 384), (512, 384), (513, 384), (514, 384), (516, 383), (516, 383), (517, 382), (517, 382), (517, 382), (518, 382), (518, 382), (519, 381), (519, 381), (519, 381), (519, 381), (519, 381), (520, 381), (520, 380), (520, 380), (520, 380), (520, 380), (521, 379), (522, 378), (522, 378), (522, 378), (522, 378), (522, 378), (522, 378), (522, 378), (522, 378), (522, 379), (522, 385), (521, 394), (519, 422), (515, 441), (515, 466), (515, 494), (515, 545), (515, 567), (515, 587), (515, 606), (515, 638)]",89.32330965972068,"[7, 2, 4, 1, 8, 6, 9, 3, 5]","(0, 0.25)",CHN010D,CHN,D,Chinese,Thu Nov  8 13:58:34 2018,Mouse
2,1,4,0,101,5,5,1,352,82,270,141,0,500,200,8000,"[(512, 384), (512, 384), (512, 384), (512, 384), (512, 384), (512, 384), (512, 384), (512, 384), (513, 383), (513, 383), (513, 382), (514, 382), (515, 381), (515, 381), (515, 381), (515, 381), (516, 380), (516, 380), (518, 378), (518, 378), (520, 377), (522, 376), (524, 376), (528, 376), (539, 374), (547, 372), (552, 371), (560, 368), (580, 360), (591, 356), (602, 354), (613, 350), (650, 341), (678, 332), (724, 321), (772, 305)]",343.0987975628937,"[7, 2, 4, 1, 8, 6, 9, 3, 5]","(0, 0.25)",CHN010D,CHN,D,Chinese,Thu Nov  8 13:58:34 2018,Mouse
2,1,4,0,102,8,8,1,332,12,320,141,0,500,200,8000,"[(512, 384), (508, 384), (505, 384), (501, 384), (496, 384), (489, 384), (483, 385), (477, 386), (470, 387), (459, 387), (455, 388), (451, 388), (446, 390), (438, 391), (435, 392), (430, 392), (426, 394), (419, 395), (412, 396), (406, 396), (401, 396), (387, 397), (377, 397), (369, 397), (360, 397), (341, 397), (331, 397), (319, 397), (311, 397), (291, 397), (282, 397), (273, 395), (265, 394), (251, 393)]",178.02506598911802,"[7, 2, 4, 1, 8, 6, 9, 3, 5]","(0, 0.25)",CHN010D,CHN,D,Chinese,Thu Nov  8 13:58:34 2018,Mouse
2,1,4,0,103,5,5,1,566,76,490,140,0,500,200,8000,"[(512, 384), (512, 384), (512, 384), (512, 384), (512, 384), (512, 384), (512, 384), (512, 383), (518, 382), (530, 382), (541, 382), (553, 382), (573, 382), (579, 382), (588, 382), (593, 382), (598, 382), (598, 382), (600, 382), (600, 382), (600, 382), (600, 382), (600, 382), (600, 382), (600, 382), (600, 382), (600, 382), (600, 382), (600, 382), (600, 382), (601, 380), (601, 380), (603, 380), (603, 380), (604, 380), (605, 379), (606, 379), (607, 378), (607, 378), (610, 377), (614, 375), (617, 374), (622, 372), (627, 371), (634, 368), (637, 367), (641, 367), (644, 366), (652, 362), (658, 361), (665, 357), (674, 356), (699, 348), (714, 344), (734, 339), (749, 334), (777, 328)]",348.067762748762,"[7, 2, 4, 1, 8, 6, 9, 3, 5]","(0, 0.25)",CHN010D,CHN,D,Chinese,Thu Nov  8 13:58:34 2018,Mouse
2,1,4,0,104,3,3,1,442,202,240,139,0,500,200,8000,"[(512, 384), (512, 384), (512, 384), (512, 384), (512, 384), (512, 384), (512, 384), (512, 384), (512, 384), (512, 384), (512, 384), (512, 384), (512, 384), (512, 384), (512, 384), (512, 384), (512, 384), (512, 384), (512, 384), (512, 384), (512, 382), (512, 382), (512, 381), (512, 378), (512, 378), (513, 376), (513, 373), (515, 372), (519, 366), (520, 365), (521, 363), (522, 360), (529, 351), (535, 345), (540, 339), (547, 331), (560, 317), (568, 307), (577, 297), (604, 265), (622, 245), (639, 224), (656, 206), (660, 198), (665, 185)]",307.5546751528532,"[7, 2, 4, 1, 8, 6, 9, 3, 5]","(0, 0.25)",CHN010D,CHN,D,Chinese,Thu Nov  8 13:58:34 2018,Mouse
2,1,4,0,105,5,5,1,275,135,140,138,0,500,200,8000,"[(512, 384), (512, 384), (512, 384), (512, 384), (512, 384), (512, 384), (512, 384), (512, 384), (512, 384), (512, 384), (512, 384), (512, 384), (512, 384), (513, 384), (526, 384), (535, 384), (544, 384), (552, 384), (570, 383), (578, 382), (589, 380), (603, 377), (639, 372), (662, 369), (689, 364), (714, 360), (752, 350), (766, 348)]",351.9330682702069,"[7, 2, 4, 1, 8, 6, 9, 3, 5]","(0, 0.25)",CHN010D,CHN,D,Chinese,Thu Nov  8 13:58:34 2018,Mouse
2,1,4,0,106,3,3,1,412,12,400,137,0,500,200,8000,"[(512, 384), (512, 383), (513, 383), (516, 381), (516, 381), (518, 380), (518, 379), (521, 378), (522, 376), (524, 375), (527, 372), (531, 369), (533, 366), (534, 364), (536, 362), (538, 358), (538, 358), (539, 356), (540, 355), (542, 351), (543, 349), (545, 347), (547, 343), (552, 335), (557, 328), (559, 323), (561, 318), (566, 305), (571, 298), (575, 288), (578, 278), (588, 256), (593, 246), (595, 238), (601, 228), (612, 210), (617, 200), (621, 193), (627, 184), (632, 174), (636, 169), (637, 165)]",299.7166984268526,"[7, 2, 4, 1, 8, 6, 9, 3, 5]","(0, 0.25)",CHN010D,CHN,D,Chinese,Thu Nov  8 13:58:34 2018,Mouse
2,1,4,0,107,5,5,1,613,13,600,136,0,500,200,8000,"[(512, 384), (517, 383), (533, 381), (541, 379), (545, 377), (549, 376), (559, 373), (564, 372), (568, 370), (572, 370), (581, 367), (585, 365), (591, 364), (596, 362), (607, 359), (614, 358), (623, 357), (631, 355), (645, 354), (650, 353), (655, 352), (662, 352), (674, 349), (678, 348), (683, 348), (689, 346), (700, 344), (706, 341), (708, 340), (713, 339), (721, 338), (725, 337), (729, 337), (730, 336), (734, 335), (737, 334), (738, 334), (740, 333), (741, 333), (742, 332), (742, 332), (743, 332), (744, 332), (745, 332), (746, 332), (747, 332), (748, 332), (750, 332), (750, 332), (750, 332), (750, 332), (752, 332), (752, 332), (752, 332), (753, 332), (753, 332), (755, 332), (756, 332), (756, 332), (756, 332), (756, 332), (758, 332)]",348.06439745673254,"[7, 2, 4, 1, 8, 6, 9, 3, 5]","(0, 0.25)",CHN010D,CHN,D,Chinese,Thu Nov  8 13:58:34 2018,Mouse
2,1,4,0,108,4,4,1,462,12,450,135,0,500,200,8000,"[(512, 384), (511, 383), (511, 383), (511, 383), (511, 383), (511, 383), (511, 383), (511, 383), (511, 383), (511, 383), (511, 383), (511, 383), (511, 383), (511, 383), (511, 383), (511, 383), (511, 383), (511, 383), (511, 383), (511, 383), (511, 383), (511, 383), (511, 383), (511, 383), (511, 383), (512, 383), (512, 383), (513, 383), (513, 384), (513, 384), (513, 384), (513, 384), (513, 384), (515, 385), (515, 386), (515, 389), (515, 395), (515, 412), (515, 425), (515, 437), (515, 450), (515, 491), (515, 517), (515, 553), (515, 578), (508, 631), (504, 653)]",91.70346161005114,"[7, 2, 4, 1, 8, 6, 9, 3, 5]","(0, 0.25)",CHN010D,CHN,D,Chinese,Thu Nov  8 13:58:34 2018,Mouse
2,1,4,0,109,4,4,1,512,152,360,134,0,500,200,8000,"[(512, 384), (512, 384), (512, 384), (512, 384), (512, 384), (512, 384), (512, 384), (512, 384), (512, 384), (512, 384), (512, 384), (512, 384), (512, 384), (512, 384), (512, 384), (512, 386), (512, 386), (512, 387), (512, 388), (512, 389), (512, 390), (512, 391), (512, 393), (512, 399), (512, 404), (512, 410), (512, 419), (512, 434), (512, 439), (512, 449), (512, 456), (512, 474), (512, 482), (512, 490), (512, 500), (512, 513), (512, 519), (512, 523), (512, 529), (512, 538), (512, 543), (512, 551), (512, 558), (513, 575), (514, 584), (514, 594), (514, 601), (514, 614), (514, 621), (514, 628), (514, 632), (511, 643)]",90.22121812666487,"[7, 2, 4, 1, 8, 6, 9, 3, 5]","(0, 0.25)",CHN010D,CHN,D,Chinese,Thu Nov  8 13:58:34 2018,Mouse
2,1,4,0,110,4,5,0,-444,254,190,133,0,500,200,8000,"[(512, 384), (512, 384), (512, 384), (512, 384), (512, 384), (512, 384), (512, 384), (512, 384), (512, 384), (512, 384), (512, 384), (512, 384), (512, 384), (512, 384), (512, 384), (512, 384), (512, 384), (512, 384), (512, 384), (512, 384), (512, 384), (512, 384), (512, 384), (512, 384), (512, 384), (513, 383), (514, 383), (520, 383), (525, 383), (534, 380), (542, 379), (552, 377), (575, 369), (590, 365), (607, 360), (642, 348), (660, 340), (675, 334), (691, 326), (717, 310), (723, 307), (729, 303), (730, 302), (742, 293), (747, 290)]",338.1985905136482,"[7, 2, 4, 1, 8, 6, 9, 3, 5]","(0, 0.25)",CHN010D,CHN,D,Chinese,Thu Nov  8 13:58:34 2018,Mouse
2,1,4,0,111,9,4,0,-426,286,140,134,0,500,200,8000,"[(512, 384), (512, 384), (512, 384), (512, 384), (512, 384), (512, 384), (512, 384), (512, 384), (512, 384), (512, 384), (512, 384), (512, 384), (512, 384), (512, 384), (512, 384), (512, 384), (512, 384), (512, 384), (512, 384), (512, 384), (512, 384), (512, 384), (512, 384), (512, 384), (512, 384), (512, 384), (512, 384), (512, 384), (512, 385), (512, 385), (512, 390), (512, 393), (512, 395), (512, 398), (512, 420), (512, 435), (512, 452), (512, 477), (512, 524), (512, 549), (510, 575), (504, 605), (494, 656)]",93.78611203538159,"[7, 2, 4, 1, 8, 6, 9, 3, 5]","(0, 0.25)",CHN010D,CHN,D,Chinese,Thu Nov  8 13:58:34 2018,Mouse
2,1,4,0,112,9,5,0,-304,84,220,135,0,500,200,8000,"[(512, 384), (512, 384), (512, 384), (512, 384), (512, 384), (512, 384), (512, 384), (512, 384), (513, 383), (513, 383), (513, 383), (513, 383), (514, 382), (514, 382), (515, 382), (517, 381), (518, 380), (520, 380), (524, 377), (530, 373), (535, 371), (542, 367), (550, 365), (567, 357), (579, 351), (594, 345), (615, 336), (664, 318), (704, 300), (739, 284), (770, 272)]",336.5339241303263,"[7, 2, 4, 1, 8, 6, 9, 3, 5]","(0, 0.25)",CHN010D,CHN,D,Chinese,Thu Nov  8 13:58:34 2018,Mouse
2,1,4,0,113,1,6,0,-423,213,210,136,0,500,200,8000,"[(512, 384), (512, 384), (512, 384), (512, 384), (512, 384), (512, 384), (512, 384), (512, 384), (512, 384), (512, 384), (512, 384), (512, 384), (512, 384), (512, 384), (512, 384), (512, 384), (512, 384), (512, 384), (512, 384), (512, 384), (512, 384), (512, 383), (512, 383), (512, 383), (512, 383), (512, 383), (512, 382), (512, 382), (512, 382), (512, 382), (512, 379), (510, 375), (507, 372), (490, 359), (474, 349), (460, 338), (435, 324), (390, 300), (368, 288), (346, 273), (330, 266), (307, 248), (299, 242)]",213.69006752597977,"[7, 2, 4, 1, 8, 6, 9, 3, 5]","(0, 0.25)",CHN010D,CHN,D,Chinese,Thu Nov  8 13:58:34 2018,Mouse
2,1,4,0,114,5,5,1,712,222,490,137,0,500,200,8000,"[(512, 384), (512, 384), (512, 384), (512, 384), (512, 384), (512, 384), (512, 384), (512, 384), (512, 384), (512, 384), (512, 384), (512, 384), (512, 384), (512, 384), (512, 384), (512, 384), (512, 384), (512, 384), (512, 384), (512, 384), (512, 384), (512, 384), (513, 384), (520, 385), (524, 386), (532, 387), (540, 388), (561, 391), (572, 395), (586, 401), (599, 403), (623, 412), (630, 413), (635, 414), (639, 416), (641, 416), (641, 416), (641, 416), (641, 416), (641, 416), (641, 416), (641, 416), (641, 416), (641, 416), (641, 416), (641, 416), (641, 416), (641, 416), (641, 416), (641, 416), (641, 416), (641, 416), (641, 416), (641, 416), (640, 416), (639, 416), (638, 415), (638, 415), (637, 415), (637, 412), (637, 410), (640, 408), (644, 405), (657, 395), (662, 392), (672, 387), (684, 381), (713, 365), (724, 358), (737, 351), (751, 342), (768, 329)]",347.87467702590726,"[7, 2, 4, 1, 8, 6, 9, 3, 5]","(0, 0.25)",CHN010D,CHN,D,Chinese,Thu Nov  8 13:58:34 2018,Mouse
2,1,4,0,115,9,9,1,762,142,620,137,0,500,200,8000,"[(512, 384), (512, 384), (512, 384), (512, 384), (512, 384), (512, 384), (512, 384), (512, 384), (512, 384), (512, 384), (512, 384), (512, 384), (512, 384), (512, 384), (512, 386), (509, 392), (509, 398), (510, 398), (510, 398), (510, 398), (510, 398), (510, 398), (510, 399), (510, 399), (510, 399), (510, 399), (510, 399), (510, 399), (510, 392), (510, 383), (510, 374), (510, 362), (510, 328), (510, 313), (510, 297), (510, 280), (508, 251), (504, 237), (502, 225), (501, 211), (499, 194), (497, 188), (497, 180), (497, 175), (497, 170), (498, 166), (498, 164), (499, 163), (500, 162), (500, 161), (500, 159), (500, 158), (500, 156), (500, 156), (500, 156), (500, 155), (500, 155), (500, 155), (500, 155), (500, 155), (500, 155), (500, 155), (500, 155), (500, 155), (500, 155), (500, 155), (500, 155), (500, 155), (500, 154), (500, 153), (500, 151), (500, 150), (500, 146), (500, 144), (500, 140), (498, 135), (494, 127)]",265.99360852837276,"[7, 2, 4, 1, 8, 6, 9, 3, 5]","(0, 0.25)",CHN010D,CHN,D,Chinese,Thu Nov  8 13:58:34 2018,Mouse
2,1,4,0,116,9,9,1,561,11,550,136,0,500,200,8000,"[(512, 389), (512, 394), (512, 398), (512, 401), (512, 404), (512, 405), (512, 406), (512, 407), (512, 407), (512, 407), (512, 408), (513, 410), (516, 410), (518, 410), (519, 411), (519, 411), (521, 412), (521, 412), (521, 412), (521, 412), (522, 412), (522, 412), (522, 412), (522, 412), (522, 412), (522, 412), (522, 412), (522, 412), (522, 412), (522, 412), (522, 412), (522, 412), (522, 412), (522, 412), (522, 412), (522, 412), (523, 412), (524, 416), (524, 419), (524, 423), (524, 426), (524, 427), (524, 427), (524, 427), (526, 426), (526, 422), (526, 418), (526, 410), (526, 385), (526, 370), (522, 348), (513, 318), (494, 238), (485, 203), (473, 166), (470, 145), (464, 108)]",260.1341930569156,"[7, 2, 4, 1, 8, 6, 9, 3, 5]","(0, 0.25)",CHN010D,CHN,D,Chinese,Thu Nov  8 13:58:34 2018,Mouse
2,1,4,0,117,6,6,1,337,117,220,135,0,500,200,8000,"[(512, 384), (512, 384), (512, 384), (512, 384), (512, 384), (512, 384), (512, 384), (512, 384), (512, 384), (512, 384), (512, 384), (513, 388), (513, 388), (513, 388), (513, 388), (513, 388), (513, 388), (513, 388), (513, 387), (513, 384), (511, 381), (508, 377), (502, 372), (485, 359), (470, 349), (456, 338), (439, 327), (400, 301), (381, 290), (361, 276), (347, 267), (320, 250), (309, 243), (297, 237)]",214.36123339049323,"[7, 2, 4, 1, 8, 6, 9, 3, 5]","(0, 0.25)",CHN010D,CHN,D,Chinese,Thu Nov  8 13:58:34 2018,Mouse
2,1,4,0,118,3,5,0,-1282,572,710,134,0,500,200,8000,"[(512, 384), (512, 384), (512, 384), (512, 384), (512, 384), (512, 384), (512, 384), (512, 384), (512, 384), (512, 384), (512, 384), (512, 384), (512, 384), (512, 384), (512, 384), (512, 384), (512, 384), (512, 384), (512, 384), (512, 384), (512, 384), (512, 384), (512, 384), (512, 384), (512, 384), (512, 384), (512, 384), (512, 384), (512, 384), (512, 384), (512, 384), (512, 384), (512, 384), (512, 384), (512, 384), (512, 384), (512, 384), (512, 384), (512, 384), (512, 384), (512, 384), (512, 384), (512, 384), (512, 384), (512, 384), (512, 384), (512, 384), (512, 384), (512, 384), (512, 384), (512, 384), (512, 384), (512, 384), (512, 384), (512, 384), (512, 384), (512, 384), (513, 384), (514, 383), (516, 382), (516, 381), (517, 381), (519, 378), (520, 377), (522, 376), (523, 375), (525, 373), (527, 373), (529, 373), (530, 371), (531, 371), (531, 371), (531, 371), (531, 371), (531, 371), (531, 371), (531, 371), (531, 371), (531, 371), (531, 371), (531, 371), (531, 371), (531, 371), (531, 371), (531, 371), (531, 371), (531, 371), (531, 371), (531, 371), (531, 371), (531, 371), (531, 371), (531, 371), (531, 371), (531, 371), (531, 371), (531, 371), (531, 371), (531, 371), (531, 371), (531, 371), (531, 371), (531, 371), (531, 371), (531, 371), (531, 371), (531, 371), (531, 371), (531, 371), (531, 371), (531, 371), (531, 371), (531, 371), (531, 371), (531, 371), (531, 371), (531, 371), (531, 371), (535, 371), (536, 370), (538, 370), (542, 369), (568, 365), (592, 360), (616, 357), (646, 352), (704, 335), (743, 324), (766, 316)]",345.01243802894317,"[7, 2, 4, 1, 8, 6, 9, 3, 5]","(0, 0.25)",CHN010D,CHN,D,Chinese,Thu Nov  8 13:58:34 2018,Mouse
2,1,4,0,119,2,5,0,-693,333,360,135,0,500,200,8000,"[(512, 384), (512, 384), (512, 384), (512, 384), (512, 384), (512, 384), (512, 384), (512, 384), (512, 384), (512, 384), (512, 384), (512, 384), (512, 384), (512, 384), (512, 384), (512, 384), (512, 384), (512, 384), (512, 384), (512, 384), (512, 384), (512, 384), (512, 384), (512, 384), (512, 384), (512, 384), (512, 384), (512, 384), (512, 384), (512, 384), (512, 384), (512, 384), (512, 384), (511, 385), (511, 394), (510, 398), (507, 401), (507, 402), (507, 406), (507, 408), (507, 410), (507, 410), (507, 411), (507, 411), (507, 411), (507, 411), (507, 411), (507, 411), (507, 411), (507, 411), (507, 412), (510, 412), (512, 411), (514, 411), (522, 404), (527, 401), (532, 397), (540, 393), (553, 387), (560, 384), (568, 381), (576, 376), (589, 371), (597, 368), (601, 366), (610, 362), (648, 346), (681, 338), (731, 326), (767, 313)]",344.4411291817187,"[7, 2, 4, 1, 8, 6, 9, 3, 5]","(0, 0.25)",CHN010D,CHN,D,Chinese,Thu Nov  8 13:58:34 2018,Mouse
2,1,4,0,120,1,2,0,-1194,14,1180,136,0,500,200,8000,"[(512, 384), (511, 384), (510, 384), (507, 384), (503, 384), (503, 384), (503, 384), (503, 384), (503, 384), (503, 384), (503, 384), (503, 384), (503, 384), (503, 384), (503, 384), (503, 384), (503, 384), (503, 384), (503, 384), (503, 384), (504, 386), (504, 387), (504, 387), (504, 387), (504, 387), (504, 387), (504, 387), (504, 387), (504, 387), (504, 387), (504, 387), (504, 387), (504, 387), (504, 387), (504, 387), (505, 387), (505, 387), (505, 387), (505, 386), (505, 385), (505, 384), (505, 384), (505, 384), (505, 384), (505, 384), (505, 384), (505, 384), (505, 384), (505, 384), (505, 384), (505, 384), (505, 384), (505, 383), (505, 383), (505, 383), (506, 382), (506, 382), (506, 382), (506, 382), (506, 382), (506, 382), (506, 382), (506, 382), (506, 382), (506, 382), (506, 382), (506, 382), (506, 382), (506, 382), (506, 382), (506, 382), (506, 382), (506, 382), (506, 382), (506, 382), (506, 382), (506, 382), (506, 382), (506, 382), (506, 382), (506, 382), (506, 382), (506, 382), (506, 382), (506, 382), (506, 382), (506, 382), (506, 382), (506, 382), (506, 382), (506, 382), (506, 382), (506, 382), (506, 382), (506, 382), (506, 382), (506, 382), (506, 382), (506, 382), (506, 382), (506, 382), (506, 382), (506, 382), (506, 382), (506, 382), (506, 382), (506, 382), (506, 382), (506, 382), (506, 382), (507, 382), (509, 382), (515, 383), (519, 387), (527, 399), (540, 422), (584, 498), (603, 536), (624, 574), (648, 620)]",60.0463918321985,"[7, 2, 4, 1, 8, 6, 9, 3, 5]","(0, 0.25)",CHN010D,CHN,D,Chinese,Thu Nov  8 13:58:34 2018,Mouse
2,1,4,0,121,9,9,1,232,162,70,137,0,500,200,8000,"[(512, 384), (512, 384), (512, 384), (512, 384), (512, 384), (512, 384), (512, 384), (512, 384), (512, 384), (512, 384), (512, 384), (512, 384), (512, 384), (512, 384), (512, 384), (512, 384), (512, 377), (512, 337), (512, 298), (508, 253), (508, 219), (500, 161), (494, 141), (486, 113)]",264.51976146002835,"[7, 2, 4, 1, 8, 6, 9, 3, 5]","(0, 0.25)",CHN010D,CHN,D,Chinese,Thu Nov  8 13:58:34 2018,Mouse
