NativeLangNumber,LanuageNumber,SessionNumber,Block,TrialNum,ConditionNumber,Response,Accuracy,RT,MovementOnsetTime,TimeInMotion,SignalContrast,SignalContrastNumber,StimDisplayTime,MaskTime,MaxResponseTime,MousePositionXY,MouseAngle,WheelOrder,NoiseMuSigma,ParticipantID,LanuageTested,SessionTested,NativeLanuage,Date,ResponseDevice
2,1,3,0,1,3,3,1,1011,951,60,153,0,500,200,8000,"[(512, 384), (512, 384), (512, 384), (512, 384), (512, 384), (512, 384), (512, 384), (512, 384), (512, 384), (512, 384), (512, 384), (512, 384), (512, 384), (512, 384), (512, 384), (512, 384), (512, 384), (512, 384), (512, 384), (512, 384), (512, 384), (512, 384), (512, 384), (512, 384), (512, 384), (512, 384), (512, 384), (512, 384), (512, 384), (512, 384), (512, 384), (512, 384), (512, 384), (512, 384), (512, 384), (512, 384), (512, 384), (512, 384), (512, 384), (512, 384), (512, 384), (512, 384), (512, 384), (512, 384), (512, 384), (512, 384), (512, 384), (512, 384), (512, 384), (512, 384), (512, 384), (512, 384), (512, 384), (512, 384), (512, 384), (512, 384), (512, 384), (512, 384), (512, 384), (512, 384), (512, 384), (512, 384), (512, 384), (512, 384), (512, 384), (512, 384), (512, 384), (512, 384), (512, 384), (512, 384), (512, 384), (512, 384), (512, 384), (512, 384), (512, 384), (512, 384), (512, 384), (512, 384), (512, 384), (512, 384), (512, 384), (512, 384), (512, 384), (512, 384), (512, 384), (512, 384), (512, 384), (512, 384), (512, 384), (512, 384), (512, 384), (512, 384), (512, 384), (512, 384), (509, 384), (497, 384), (441, 384), (399, 384), (360, 384), (318, 382), (245, 380)]",180.8582995300315,"[2, 7, 1, 6, 3, 9, 8, 5, 4]","(0, 0.25)",CHN008C,CHN,C,Chinese,Fri Oct 19 16:55:49 2018,Mouse
2,1,3,0,2,4,4,1,429,359,70,153,0,500,200,8000,"[(512, 384), (512, 384), (512, 384), (512, 384), (512, 384), (512, 384), (512, 384), (512, 384), (512, 384), (512, 384), (512, 384), (512, 384), (512, 384), (512, 384), (512, 384), (512, 384), (512, 384), (512, 384), (512, 384), (512, 384), (512, 384), (512, 384), (512, 384), (512, 384), (512, 384), (512, 384), (512, 384), (512, 384), (512, 384), (512, 384), (512, 384), (512, 384), (512, 384), (512, 384), (512, 384), (517, 383), (533, 378), (557, 367), (585, 357), (646, 331), (680, 316), (717, 299), (752, 285)]",337.58385252065636,"[2, 7, 1, 6, 3, 9, 8, 5, 4]","(0, 0.25)",CHN008C,CHN,C,Chinese,Fri Oct 19 16:55:49 2018,Mouse
2,1,3,0,3,7,7,1,448,348,100,152,0,500,200,8000,"[(512, 384), (512, 384), (512, 384), (512, 384), (512, 384), (512, 384), (512, 384), (512, 384), (512, 384), (512, 384), (512, 384), (512, 384), (512, 384), (512, 384), (512, 384), (512, 384), (512, 384), (512, 384), (512, 384), (512, 384), (512, 384), (512, 384), (512, 384), (512, 384), (512, 384), (512, 384), (512, 384), (512, 384), (512, 384), (512, 384), (512, 384), (512, 384), (512, 384), (512, 384), (514, 385), (526, 403), (563, 445), (581, 461), (598, 479), (612, 495), (635, 519), (646, 529), (658, 540), (668, 552), (690, 582)]",48.04477844419399,"[2, 7, 1, 6, 3, 9, 8, 5, 4]","(0, 0.25)",CHN008C,CHN,C,Chinese,Fri Oct 19 16:55:49 2018,Mouse
2,1,3,0,4,7,7,1,399,319,80,151,0,500,200,8000,"[(512, 384), (512, 384), (512, 384), (512, 384), (512, 384), (512, 384), (512, 384), (512, 384), (512, 384), (512, 384), (512, 384), (512, 384), (512, 384), (512, 384), (512, 384), (512, 384), (512, 384), (512, 384), (512, 384), (512, 384), (512, 384), (512, 384), (512, 384), (512, 384), (512, 384), (512, 384), (512, 384), (512, 384), (512, 384), (512, 384), (512, 384), (523, 395), (533, 404), (546, 415), (565, 436), (584, 457), (623, 499), (639, 519), (655, 544), (684, 591)]",50.27620208653197,"[2, 7, 1, 6, 3, 9, 8, 5, 4]","(0, 0.25)",CHN008C,CHN,C,Chinese,Fri Oct 19 16:55:49 2018,Mouse
2,1,3,0,5,6,6,1,518,438,80,150,0,500,200,8000,"[(512, 384), (512, 384), (512, 384), (512, 384), (512, 384), (512, 384), (512, 384), (512, 384), (512, 384), (512, 384), (512, 384), (512, 384), (512, 384), (512, 384), (512, 384), (512, 384), (512, 384), (512, 384), (512, 384), (512, 384), (512, 384), (512, 384), (512, 384), (512, 384), (512, 384), (512, 384), (512, 384), (512, 384), (512, 384), (512, 384), (512, 384), (512, 384), (512, 384), (512, 384), (512, 384), (512, 384), (512, 384), (512, 384), (512, 384), (512, 384), (512, 384), (512, 384), (512, 384), (504, 389), (480, 406), (453, 423), (425, 438), (379, 467), (355, 487), (332, 505), (312, 523), (270, 561)]",143.8180773147292,"[2, 7, 1, 6, 3, 9, 8, 5, 4]","(0, 0.25)",CHN008C,CHN,C,Chinese,Fri Oct 19 16:55:49 2018,Mouse
2,1,3,0,6,2,2,1,369,319,50,149,0,500,200,8000,"[(512, 384), (512, 384), (512, 384), (512, 384), (512, 384), (512, 384), (512, 384), (512, 384), (512, 384), (512, 384), (512, 384), (512, 384), (512, 384), (512, 384), (512, 384), (512, 384), (512, 384), (512, 384), (512, 384), (512, 384), (512, 384), (512, 384), (512, 384), (512, 384), (512, 384), (512, 384), (512, 384), (512, 384), (512, 384), (512, 384), (512, 384), (513, 384), (525, 386), (552, 394), (602, 410), (732, 449), (801, 470)]",16.571839597539967,"[2, 7, 1, 6, 3, 9, 8, 5, 4]","(0, 0.25)",CHN008C,CHN,C,Chinese,Fri Oct 19 16:55:49 2018,Mouse
2,1,3,0,7,5,5,1,599,239,360,148,0,500,200,8000,"[(512, 384), (512, 384), (512, 384), (512, 384), (512, 384), (512, 384), (512, 384), (512, 384), (512, 384), (512, 384), (512, 384), (512, 384), (512, 384), (512, 384), (512, 384), (512, 384), (512, 384), (512, 384), (512, 384), (512, 384), (512, 384), (512, 384), (512, 384), (511, 384), (510, 383), (509, 382), (508, 381), (508, 381), (508, 381), (508, 381), (508, 380), (508, 380), (508, 380), (508, 379), (508, 379), (508, 379), (508, 379), (508, 378), (510, 376), (511, 375), (513, 373), (516, 371), (524, 365), (532, 360), (540, 356), (552, 346), (578, 328), (595, 317), (612, 305), (624, 296), (646, 278), (655, 270), (662, 265), (667, 259), (675, 246), (678, 239), (682, 232), (685, 224), (689, 211), (690, 208)]",315.32370152492024,"[2, 7, 1, 6, 3, 9, 8, 5, 4]","(0, 0.25)",CHN008C,CHN,C,Chinese,Fri Oct 19 16:55:49 2018,Mouse
2,1,3,0,8,1,1,1,581,481,100,147,0,500,200,8000,"[(512, 384), (512, 384), (512, 384), (512, 384), (512, 384), (512, 384), (512, 384), (512, 384), (512, 384), (512, 384), (512, 384), (512, 384), (512, 384), (512, 384), (512, 384), (512, 384), (512, 384), (512, 384), (512, 384), (512, 384), (512, 384), (512, 384), (512, 384), (512, 384), (512, 384), (512, 384), (512, 384), (512, 384), (512, 384), (512, 384), (512, 384), (512, 384), (512, 384), (512, 384), (512, 384), (512, 384), (512, 384), (512, 384), (512, 384), (512, 384), (512, 384), (512, 384), (512, 384), (512, 384), (512, 384), (512, 384), (512, 384), (512, 384), (511, 393), (506, 404), (503, 414), (495, 429), (489, 439), (482, 450), (476, 463), (460, 512), (453, 550), (451, 589), (451, 628)]",104.03624346792648,"[2, 7, 1, 6, 3, 9, 8, 5, 4]","(0, 0.25)",CHN008C,CHN,C,Chinese,Fri Oct 19 16:55:49 2018,Mouse
2,1,3,0,9,7,7,1,299,229,70,146,0,500,200,8000,"[(512, 384), (512, 384), (512, 384), (512, 384), (512, 384), (512, 384), (512, 384), (512, 384), (512, 384), (512, 384), (512, 384), (512, 384), (512, 384), (512, 384), (512, 384), (512, 384), (512, 384), (512, 384), (512, 384), (512, 384), (512, 384), (512, 384), (513, 385), (521, 392), (554, 416), (575, 433), (597, 457), (616, 478), (660, 542), (683, 578)]",48.605651673912256,"[2, 7, 1, 6, 3, 9, 8, 5, 4]","(0, 0.25)",CHN008C,CHN,C,Chinese,Fri Oct 19 16:55:49 2018,Mouse
2,1,3,0,10,2,2,1,468,348,120,145,0,500,200,8000,"[(512, 384), (512, 384), (512, 384), (512, 384), (512, 384), (512, 384), (512, 384), (512, 384), (512, 384), (512, 384), (512, 384), (512, 384), (512, 384), (512, 384), (512, 384), (512, 384), (512, 384), (512, 384), (512, 384), (512, 384), (512, 384), (512, 384), (512, 384), (512, 384), (512, 384), (512, 384), (512, 384), (512, 384), (512, 384), (512, 384), (512, 384), (512, 384), (512, 384), (512, 384), (516, 387), (520, 391), (525, 394), (528, 396), (535, 400), (539, 403), (547, 407), (559, 411), (587, 426), (613, 436), (644, 448), (684, 465), (767, 500)]",24.460881154964923,"[2, 7, 1, 6, 3, 9, 8, 5, 4]","(0, 0.25)",CHN008C,CHN,C,Chinese,Fri Oct 19 16:55:49 2018,Mouse
2,1,3,0,11,6,6,1,1169,1119,50,144,0,500,200,8000,"[(512, 384), (512, 384), (512, 384), (512, 384), (512, 384), (512, 384), (512, 384), (512, 384), (512, 384), (512, 384), (512, 384), (512, 384), (512, 384), (512, 384), (512, 384), (512, 384), (512, 384), (512, 384), (512, 384), (512, 384), (512, 384), (512, 384), (512, 384), (512, 384), (512, 384), (512, 384), (512, 384), (512, 384), (512, 384), (512, 384), (512, 384), (512, 384), (512, 384), (512, 384), (512, 384), (512, 384), (512, 384), (512, 384), (512, 384), (512, 384), (512, 384), (512, 384), (512, 384), (512, 384), (512, 384), (512, 384), (512, 384), (512, 384), (512, 384), (512, 384), (512, 384), (512, 384), (512, 384), (512, 384), (512, 384), (512, 384), (512, 384), (512, 384), (512, 384), (512, 384), (512, 384), (512, 384), (512, 384), (512, 384), (512, 384), (512, 384), (512, 384), (512, 384), (512, 384), (512, 384), (512, 384), (512, 384), (512, 384), (512, 384), (512, 384), (512, 384), (512, 384), (512, 384), (512, 384), (512, 384), (512, 384), (512, 384), (512, 384), (512, 384), (512, 384), (512, 384), (512, 384), (512, 384), (512, 384), (512, 384), (512, 384), (512, 384), (512, 384), (512, 384), (512, 384), (512, 384), (512, 384), (512, 384), (512, 384), (512, 384), (512, 384), (512, 384), (512, 384), (512, 384), (512, 384), (512, 384), (512, 384), (512, 384), (512, 384), (512, 384), (512, 384), (491, 399), (464, 415), (428, 435), (392, 464), (309, 513), (271, 538)]",147.42125340893827,"[2, 7, 1, 6, 3, 9, 8, 5, 4]","(0, 0.25)",CHN008C,CHN,C,Chinese,Fri Oct 19 16:55:49 2018,Mouse
2,1,3,0,12,2,2,1,580,490,90,143,0,500,200,8000,"[(512, 384), (512, 384), (512, 384), (512, 384), (512, 384), (512, 384), (512, 384), (512, 384), (512, 384), (512, 384), (512, 384), (512, 384), (512, 384), (512, 384), (512, 384), (512, 384), (512, 384), (512, 384), (512, 384), (512, 384), (512, 384), (512, 384), (512, 384), (512, 384), (512, 384), (512, 384), (512, 384), (512, 384), (512, 384), (512, 384), (512, 384), (512, 384), (512, 384), (512, 384), (512, 384), (512, 384), (512, 384), (512, 384), (512, 384), (512, 384), (512, 384), (512, 384), (512, 384), (512, 384), (512, 384), (512, 384), (512, 384), (512, 384), (521, 387), (540, 396), (583, 413), (603, 418), (623, 426), (644, 435), (688, 446), (710, 452), (735, 460), (760, 465)]",18.087705925836246,"[2, 7, 1, 6, 3, 9, 8, 5, 4]","(0, 0.25)",CHN008C,CHN,C,Chinese,Fri Oct 19 16:55:49 2018,Mouse
2,1,3,0,13,9,9,1,490,410,80,142,0,500,200,8000,"[(512, 384), (512, 384), (512, 384), (512, 384), (512, 384), (512, 384), (512, 384), (512, 384), (512, 384), (512, 384), (512, 384), (512, 384), (512, 384), (512, 384), (512, 384), (512, 384), (512, 384), (512, 384), (512, 384), (512, 384), (512, 384), (512, 384), (512, 384), (512, 384), (512, 384), (512, 384), (512, 384), (512, 384), (512, 384), (512, 384), (512, 384), (512, 384), (512, 384), (512, 384), (512, 384), (512, 384), (512, 384), (512, 384), (512, 384), (512, 384), (504, 381), (497, 376), (486, 367), (472, 353), (430, 314), (403, 287), (368, 252), (334, 221), (254, 158)]",221.21735455340368,"[2, 7, 1, 6, 3, 9, 8, 5, 4]","(0, 0.25)",CHN008C,CHN,C,Chinese,Fri Oct 19 16:55:49 2018,Mouse
2,1,3,0,14,6,6,1,1100,1010,90,141,0,500,200,8000,"[(512, 384), (512, 384), (512, 384), (512, 384), (512, 384), (512, 384), (512, 384), (512, 384), (512, 384), (512, 384), (512, 384), (512, 384), (512, 384), (512, 384), (512, 384), (512, 384), (512, 384), (512, 384), (512, 384), (512, 384), (512, 384), (512, 384), (512, 384), (512, 384), (512, 384), (512, 384), (512, 384), (512, 384), (512, 384), (512, 384), (512, 384), (512, 384), (512, 384), (512, 384), (512, 384), (512, 384), (512, 384), (512, 384), (512, 384), (512, 384), (512, 384), (512, 384), (512, 384), (512, 384), (512, 384), (512, 384), (512, 384), (512, 384), (512, 384), (512, 384), (512, 384), (512, 384), (512, 384), (512, 384), (512, 384), (512, 384), (512, 384), (512, 384), (512, 384), (512, 384), (512, 384), (512, 384), (512, 384), (512, 384), (512, 384), (512, 384), (512, 384), (512, 384), (512, 384), (512, 384), (512, 384), (512, 384), (512, 384), (512, 384), (512, 384), (512, 384), (512, 384), (512, 384), (512, 384), (512, 384), (512, 384), (512, 384), (512, 384), (512, 384), (512, 384), (512, 384), (512, 384), (512, 384), (512, 384), (512, 384), (512, 384), (512, 384), (512, 384), (512, 384), (512, 384), (512, 384), (512, 384), (512, 384), (512, 384), (512, 384), (510, 386), (505, 394), (498, 404), (475, 435), (460, 455), (442, 472), (421, 489), (376, 519), (351, 536), (328, 554)]",137.26475454822344,"[2, 7, 1, 6, 3, 9, 8, 5, 4]","(0, 0.25)",CHN008C,CHN,C,Chinese,Fri Oct 19 16:55:49 2018,Mouse
2,1,3,0,15,4,4,1,360,300,60,140,0,500,200,8000,"[(512, 384), (512, 384), (512, 384), (512, 384), (512, 384), (512, 384), (512, 384), (512, 384), (512, 384), (512, 384), (512, 384), (512, 384), (512, 384), (512, 384), (512, 384), (512, 384), (512, 384), (512, 384), (512, 384), (512, 384), (512, 384), (512, 384), (512, 384), (512, 384), (512, 384), (512, 384), (512, 384), (512, 384), (512, 384), (515, 382), (531, 377), (561, 370), (597, 359), (680, 323), (728, 303), (781, 284)]",339.60752303776906,"[2, 7, 1, 6, 3, 9, 8, 5, 4]","(0, 0.25)",CHN008C,CHN,C,Chinese,Fri Oct 19 16:55:49 2018,Mouse
2,1,3,0,16,2,2,1,482,382,100,139,0,500,200,8000,"[(512, 384), (512, 384), (512, 384), (512, 384), (512, 384), (512, 384), (512, 384), (512, 384), (512, 384), (512, 384), (512, 384), (512, 384), (512, 384), (512, 384), (512, 384), (512, 384), (512, 384), (512, 384), (512, 384), (512, 384), (512, 384), (512, 384), (512, 384), (512, 384), (512, 384), (512, 384), (512, 384), (512, 384), (512, 384), (512, 384), (512, 384), (512, 384), (512, 384), (512, 384), (512, 384), (512, 384), (512, 384), (512, 384), (513, 384), (521, 388), (534, 395), (546, 403), (568, 416), (583, 425), (602, 436), (621, 447), (677, 476), (706, 489), (733, 503)]",28.30075576600638,"[2, 7, 1, 6, 3, 9, 8, 5, 4]","(0, 0.25)",CHN008C,CHN,C,Chinese,Fri Oct 19 16:55:49 2018,Mouse
2,1,3,0,17,8,8,1,509,459,50,138,0,500,200,8000,"[(512, 384), (512, 384), (512, 384), (512, 384), (512, 384), (512, 384), (512, 384), (512, 384), (512, 384), (512, 384), (512, 384), (512, 384), (512, 384), (512, 384), (512, 384), (512, 384), (512, 384), (512, 384), (512, 384), (512, 384), (512, 384), (512, 384), (512, 384), (512, 384), (512, 384), (512, 384), (512, 384), (512, 384), (512, 384), (512, 384), (512, 384), (512, 384), (512, 384), (512, 384), (512, 384), (512, 384), (512, 384), (512, 384), (512, 384), (512, 384), (512, 384), (512, 384), (512, 384), (512, 384), (512, 384), (510, 375), (506, 358), (499, 322), (486, 280), (449, 177), (429, 126)]",252.16673502769004,"[2, 7, 1, 6, 3, 9, 8, 5, 4]","(0, 0.25)",CHN008C,CHN,C,Chinese,Fri Oct 19 16:55:49 2018,Mouse
2,1,3,0,18,5,5,1,389,319,70,137,0,500,200,8000,"[(512, 384), (512, 384), (512, 384), (512, 384), (512, 384), (512, 384), (512, 384), (512, 384), (512, 384), (512, 384), (512, 384), (512, 384), (512, 384), (512, 384), (512, 384), (512, 384), (512, 384), (512, 384), (512, 384), (512, 384), (512, 384), (512, 384), (512, 384), (512, 384), (512, 384), (512, 384), (512, 384), (512, 384), (512, 384), (512, 384), (512, 384), (513, 382), (525, 372), (546, 362), (592, 330), (621, 304), (658, 273), (688, 241), (742, 178)]",318.15071641326773,"[2, 7, 1, 6, 3, 9, 8, 5, 4]","(0, 0.25)",CHN008C,CHN,C,Chinese,Fri Oct 19 16:55:49 2018,Mouse
2,1,3,0,19,9,9,1,797,747,50,136,0,500,200,8000,"[(512, 384), (512, 384), (512, 384), (512, 384), (512, 384), (512, 384), (512, 384), (512, 384), (512, 384), (512, 384), (512, 384), (512, 384), (512, 384), (512, 384), (512, 384), (512, 384), (512, 384), (512, 384), (512, 384), (512, 384), (512, 384), (512, 384), (512, 384), (512, 384), (512, 384), (512, 384), (512, 384), (512, 384), (512, 384), (512, 384), (512, 384), (512, 384), (512, 384), (512, 384), (512, 384), (512, 384), (512, 384), (512, 384), (512, 384), (512, 384), (512, 384), (512, 384), (512, 384), (512, 384), (512, 384), (512, 384), (512, 384), (512, 384), (512, 384), (512, 384), (512, 384), (512, 384), (512, 384), (512, 384), (512, 384), (512, 384), (512, 384), (512, 384), (512, 384), (512, 384), (512, 384), (512, 384), (512, 384), (512, 384), (512, 384), (512, 384), (512, 384), (512, 384), (512, 384), (512, 384), (512, 384), (512, 384), (512, 384), (512, 384), (508, 383), (455, 344), (418, 313), (381, 282), (337, 249), (259, 197)]",216.46923439005187,"[2, 7, 1, 6, 3, 9, 8, 5, 4]","(0, 0.25)",CHN008C,CHN,C,Chinese,Fri Oct 19 16:55:49 2018,Mouse
2,1,3,0,20,7,7,1,1480,1410,70,135,0,500,200,8000,"[(512, 384), (512, 384), (512, 384), (512, 384), (512, 384), (512, 384), (512, 384), (512, 384), (512, 384), (512, 384), (512, 384), (512, 384), (512, 384), (512, 384), (512, 384), (512, 384), (512, 384), (512, 384), (512, 384), (512, 384), (512, 384), (512, 384), (512, 384), (512, 384), (512, 384), (512, 384), (512, 384), (512, 384), (512, 384), (512, 384), (512, 384), (512, 384), (512, 384), (512, 384), (512, 384), (512, 384), (512, 384), (512, 384), (512, 384), (512, 384), (512, 384), (512, 384), (512, 384), (512, 384), (512, 384), (512, 384), (512, 384), (512, 384), (512, 384), (512, 384), (512, 384), (512, 384), (512, 384), (512, 384), (512, 384), (512, 384), (512, 384), (512, 384), (512, 384), (512, 384), (512, 384), (512, 384), (512, 384), (512, 384), (512, 384), (512, 384), (512, 384), (512, 384), (512, 384), (512, 384), (512, 384), (512, 384), (512, 384), (512, 384), (512, 384), (512, 384), (512, 384), (512, 384), (512, 384), (512, 384), (512, 384), (512, 384), (512, 384), (512, 384), (512, 384), (512, 384), (512, 384), (512, 384), (512, 384), (512, 384), (512, 384), (512, 384), (512, 384), (512, 384), (512, 384), (512, 384), (512, 384), (512, 384), (512, 384), (512, 384), (512, 384), (512, 384), (512, 384), (512, 384), (512, 384), (512, 384), (512, 384), (512, 384), (512, 384), (512, 384), (512, 384), (512, 384), (512, 384), (512, 384), (512, 384), (512, 384), (512, 384), (512, 384), (512, 384), (512, 384), (512, 384), (512, 384), (512, 384), (512, 384), (512, 384), (512, 384), (512, 384), (512, 384), (512, 384), (512, 384), (512, 384), (512, 384), (512, 384), (512, 384), (512, 384), (512, 384), (512, 384), (512, 384), (512, 384), (512, 384), (516, 389), (527, 401), (542, 421), (582, 472), (603, 500), (625, 534), (647, 565), (695, 642)]",54.65183346680425,"[2, 7, 1, 6, 3, 9, 8, 5, 4]","(0, 0.25)",CHN008C,CHN,C,Chinese,Fri Oct 19 16:55:49 2018,Mouse
2,1,3,0,21,2,4,0,-638,578,60,134,0,500,200,8000,"[(512, 384), (512, 384), (512, 384), (512, 384), (512, 384), (512, 384), (512, 384), (512, 384), (512, 384), (512, 384), (512, 384), (512, 384), (512, 384), (512, 384), (512, 384), (512, 384), (512, 384), (512, 384), (512, 384), (512, 384), (512, 384), (512, 384), (512, 384), (512, 384), (512, 384), (512, 384), (512, 384), (512, 384), (512, 384), (512, 384), (512, 384), (512, 384), (512, 384), (512, 384), (512, 384), (512, 384), (512, 384), (512, 384), (512, 384), (512, 384), (512, 384), (512, 384), (512, 384), (512, 384), (512, 384), (512, 384), (512, 384), (512, 384), (512, 384), (512, 384), (512, 384), (512, 384), (512, 384), (512, 384), (512, 384), (512, 384), (512, 384), (513, 384), (527, 380), (597, 358), (642, 343), (687, 327), (732, 309), (831, 286)]",342.9225170216086,"[2, 7, 1, 6, 3, 9, 8, 5, 4]","(0, 0.25)",CHN008C,CHN,C,Chinese,Fri Oct 19 16:55:49 2018,Mouse
2,1,3,0,22,4,4,1,368,298,70,135,0,500,200,8000,"[(512, 384), (512, 384), (512, 384), (512, 384), (512, 384), (512, 384), (512, 384), (512, 384), (512, 384), (512, 384), (512, 384), (512, 384), (512, 384), (512, 384), (512, 384), (512, 384), (512, 384), (512, 384), (512, 384), (512, 384), (512, 384), (512, 384), (512, 384), (512, 384), (512, 384), (512, 384), (512, 384), (512, 384), (512, 384), (514, 384), (528, 380), (567, 362), (592, 353), (621, 343), (657, 330), (742, 311), (783, 302)]",343.16507589222573,"[2, 7, 1, 6, 3, 9, 8, 5, 4]","(0, 0.25)",CHN008C,CHN,C,Chinese,Fri Oct 19 16:55:49 2018,Mouse
2,1,3,0,23,9,9,1,479,429,50,135,0,500,200,8000,"[(512, 384), (512, 384), (512, 384), (512, 384), (512, 384), (512, 384), (512, 384), (512, 384), (512, 384), (512, 384), (512, 384), (512, 384), (512, 384), (512, 384), (512, 384), (512, 384), (512, 384), (512, 384), (512, 384), (512, 384), (512, 384), (512, 384), (512, 384), (512, 384), (512, 384), (512, 384), (512, 384), (512, 384), (512, 384), (512, 384), (512, 384), (512, 384), (512, 384), (512, 384), (512, 384), (512, 384), (512, 384), (512, 384), (512, 384), (512, 384), (512, 384), (512, 384), (500, 377), (471, 364), (433, 343), (393, 323), (319, 282), (277, 252)]",209.32301479633273,"[2, 7, 1, 6, 3, 9, 8, 5, 4]","(0, 0.25)",CHN008C,CHN,C,Chinese,Fri Oct 19 16:55:49 2018,Mouse
2,1,3,0,24,9,9,1,428,388,40,134,0,500,200,8000,"[(512, 384), (512, 384), (512, 384), (512, 384), (512, 384), (512, 384), (512, 384), (512, 384), (512, 384), (512, 384), (512, 384), (512, 384), (512, 384), (512, 384), (512, 384), (512, 384), (512, 384), (512, 384), (512, 384), (512, 384), (512, 384), (512, 384), (512, 384), (512, 384), (512, 384), (512, 384), (512, 384), (512, 384), (512, 384), (512, 384), (512, 384), (512, 384), (512, 384), (512, 384), (512, 384), (512, 384), (512, 384), (512, 384), (484, 347), (462, 323), (440, 295), (411, 258), (339, 190)]",228.27493393694922,"[2, 7, 1, 6, 3, 9, 8, 5, 4]","(0, 0.25)",CHN008C,CHN,C,Chinese,Fri Oct 19 16:55:49 2018,Mouse
2,1,3,0,25,3,9,0,-569,399,170,133,0,500,200,8000,"[(512, 384), (512, 384), (512, 384), (512, 384), (512, 384), (512, 384), (512, 384), (512, 384), (512, 384), (512, 384), (512, 384), (512, 384), (512, 384), (512, 384), (512, 384), (512, 384), (512, 384), (512, 384), (512, 384), (512, 384), (512, 384), (512, 384), (512, 384), (512, 384), (512, 384), (512, 384), (512, 384), (512, 384), (512, 384), (512, 384), (512, 384), (512, 384), (512, 384), (512, 384), (512, 384), (512, 384), (512, 384), (512, 384), (512, 384), (513, 384), (513, 384), (513, 384), (513, 384), (513, 384), (513, 384), (513, 384), (513, 384), (513, 384), (511, 384), (502, 378), (488, 370), (455, 341), (436, 320), (424, 307), (404, 284), (353, 232), (327, 210)]",223.24496811225566,"[2, 7, 1, 6, 3, 9, 8, 5, 4]","(0, 0.25)",CHN008C,CHN,C,Chinese,Fri Oct 19 16:55:49 2018,Mouse
2,1,3,0,26,9,9,1,2980,2900,80,134,0,500,200,8000,"[(512, 384), (512, 384), (512, 384), (512, 384), (512, 384), (512, 384), (512, 384), (512, 384), (512, 384), (512, 384), (512, 384), (512, 384), (512, 384), (512, 384), (512, 384), (512, 384), (512, 384), (512, 384), (512, 384), (512, 384), (512, 384), (512, 384), (512, 384), (512, 384), (512, 384), (512, 384), (512, 384), (512, 384), (512, 384), (512, 384), (512, 384), (512, 384), (512, 384), (512, 384), (512, 384), (512, 384), (512, 384), (512, 384), (512, 384), (512, 384), (512, 384), (512, 384), (512, 384), (512, 384), (512, 384), (512, 384), (512, 384), (512, 384), (512, 384), (512, 384), (512, 384), (512, 384), (512, 384), (512, 384), (512, 384), (512, 384), (512, 384), (512, 384), (512, 384), (512, 384), (512, 384), (512, 384), (512, 384), (512, 384), (512, 384), (512, 384), (512, 384), (512, 384), (512, 384), (512, 384), (512, 384), (512, 384), (512, 384), (512, 384), (512, 384), (512, 384), (512, 384), (512, 384), (512, 384), (512, 384), (512, 384), (512, 384), (512, 384), (512, 384), (512, 384), (512, 384), (512, 384), (512, 384), (512, 384), (512, 384), (512, 384), (512, 384), (512, 384), (512, 384), (512, 384), (512, 384), (512, 384), (512, 384), (512, 384), (512, 384), (512, 384), (512, 384), (512, 384), (512, 384), (512, 384), (512, 384), (512, 384), (512, 384), (512, 384), (512, 384), (512, 384), (512, 384), (512, 384), (512, 384), (512, 384), (512, 384), (512, 384), (512, 384), (512, 384), (512, 384), (512, 384), (512, 384), (512, 384), (512, 384), (512, 384), (512, 384), (512, 384), (512, 384), (512, 384), (512, 384), (512, 384), (512, 384), (512, 384), (512, 384), (512, 384), (512, 384), (512, 384), (512, 384), (512, 384), (512, 384), (512, 384), (512, 384), (512, 384), (512, 384), (512, 384), (512, 384), (512, 384), (512, 384), (512, 384), (512, 384), (512, 384), (512, 384), (512, 384), (512, 384), (512, 384), (512, 384), (512, 384), (512, 384), (512, 384), (512, 384), (512, 384), (512, 384), (512, 384), (512, 384), (512, 384), (512, 384), (512, 384), (512, 384), (512, 384), (512, 384), (512, 384), (512, 384), (512, 384), (512, 384), (512, 384), (512, 384), (512, 384), (512, 384), (512, 384), (512, 384), (512, 384), (512, 384), (512, 384), (512, 384), (512, 384), (512, 384), (512, 384), (512, 384), (512, 384), (512, 384), (512, 384), (512, 384), (512, 384), (512, 384), (512, 384), (512, 384), (512, 384), (512, 384), (512, 384), (512, 384), (512, 384), (512, 384), (512, 384), (512, 384), (512, 384), (512, 384), (512, 384), (512, 384), (512, 384), (512, 384), (512, 384), (512, 384), (512, 384), (512, 384), (512, 384), (512, 384), (512, 384), (512, 384), (512, 384), (512, 384), (512, 384), (512, 384), (512, 384), (512, 384), (512, 384), (512, 384), (512, 384), (512, 384), (512, 384), (512, 384), (512, 384), (512, 384), (512, 384), (512, 384), (512, 384), (512, 384), (512, 384), (512, 384), (512, 384), (512, 384), (512, 384), (512, 384), (512, 384), (512, 384), (512, 384), (512, 384), (512, 384), (512, 384), (512, 384), (512, 384), (512, 384), (512, 384), (512, 384), (512, 384), (512, 384), (512, 384), (512, 384), (512, 384), (512, 384), (512, 384), (512, 384), (512, 384), (512, 384), (512, 384), (512, 384), (512, 384), (512, 384), (512, 384), (512, 384), (512, 384), (512, 384), (512, 384), (512, 384), (512, 384), (512, 384), (512, 384), (512, 384), (512, 384), (512, 384), (512, 384), (512, 384), (512, 384), (512, 384), (512, 384), (512, 384), (512, 384), (512, 384), (512, 384), (512, 384), (509, 379), (499, 364), (489, 347), (472, 322), (453, 294), (409, 239), (385, 215), (359, 193), (334, 168)]",230.50894969821604,"[2, 7, 1, 6, 3, 9, 8, 5, 4]","(0, 0.25)",CHN008C,CHN,C,Chinese,Fri Oct 19 16:55:49 2018,Mouse
2,1,3,0,27,7,7,1,1088,448,640,134,0,500,200,8000,"[(512, 384), (512, 384), (512, 384), (512, 384), (512, 384), (512, 384), (512, 384), (512, 384), (512, 384), (512, 384), (512, 384), (512, 384), (512, 384), (512, 384), (512, 384), (512, 384), (512, 384), (512, 384), (512, 384), (512, 384), (512, 384), (512, 384), (512, 384), (512, 384), (512, 384), (512, 384), (512, 384), (512, 384), (512, 384), (512, 384), (512, 384), (512, 384), (512, 384), (512, 384), (512, 384), (512, 384), (512, 384), (512, 384), (512, 384), (512, 384), (512, 384), (512, 384), (512, 384), (512, 384), (512, 385), (513, 386), (513, 386), (513, 386), (513, 386), (513, 386), (513, 386), (513, 386), (513, 387), (513, 387), (514, 387), (514, 387), (514, 387), (514, 387), (514, 387), (514, 387), (514, 387), (514, 387), (514, 387), (514, 387), (514, 387), (514, 387), (514, 387), (514, 387), (514, 387), (514, 387), (514, 387), (514, 387), (514, 387), (514, 387), (514, 387), (514, 387), (514, 387), (514, 387), (514, 387), (514, 387), (514, 387), (514, 387), (514, 387), (514, 387), (516, 389), (517, 391), (517, 393), (520, 395), (523, 399), (524, 401), (526, 402), (527, 403), (530, 406), (530, 406), (530, 408), (531, 408), (533, 411), (534, 413), (536, 418), (541, 424), (551, 444), (557, 455), (566, 469), (573, 484), (596, 521), (608, 537), (620, 552), (632, 567), (656, 601)]",56.43196802859098,"[2, 7, 1, 6, 3, 9, 8, 5, 4]","(0, 0.25)",CHN008C,CHN,C,Chinese,Fri Oct 19 16:55:49 2018,Mouse
2,1,3,0,28,8,9,0,-997,927,70,133,0,500,200,8000,"[(512, 384), (512, 384), (512, 384), (512, 384), (512, 384), (512, 384), (512, 384), (512, 384), (512, 384), (512, 384), (512, 384), (512, 384), (512, 384), (512, 384), (512, 384), (512, 384), (512, 384), (512, 384), (512, 384), (512, 384), (512, 384), (512, 384), (512, 384), (512, 384), (512, 384), (512, 384), (512, 384), (512, 384), (512, 384), (512, 384), (512, 384), (512, 384), (512, 384), (512, 384), (512, 384), (512, 384), (512, 384), (512, 384), (512, 384), (512, 384), (512, 384), (512, 384), (512, 384), (512, 384), (512, 384), (512, 384), (512, 384), (512, 384), (512, 384), (512, 384), (512, 384), (512, 384), (512, 384), (512, 384), (512, 384), (512, 384), (512, 384), (512, 384), (512, 384), (512, 384), (512, 384), (512, 384), (512, 384), (512, 384), (512, 384), (512, 384), (512, 384), (512, 384), (512, 384), (512, 384), (512, 384), (512, 384), (512, 384), (512, 384), (512, 384), (512, 384), (512, 384), (512, 384), (512, 384), (512, 384), (512, 384), (512, 384), (512, 384), (512, 384), (512, 384), (512, 384), (512, 384), (512, 384), (512, 384), (512, 384), (512, 384), (512, 384), (509, 382), (490, 369), (454, 347), (392, 301), (358, 277), (335, 257), (312, 241), (275, 214)]",215.65185815001738,"[2, 7, 1, 6, 3, 9, 8, 5, 4]","(0, 0.25)",CHN008C,CHN,C,Chinese,Fri Oct 19 16:55:49 2018,Mouse
2,1,3,0,29,9,9,1,309,209,100,134,0,500,200,8000,"[(512, 384), (512, 384), (512, 384), (512, 384), (512, 384), (512, 384), (512, 384), (512, 384), (512, 384), (512, 384), (512, 384), (512, 384), (512, 384), (512, 384), (512, 384), (512, 384), (512, 384), (512, 384), (512, 384), (512, 384), (511, 382), (502, 370), (488, 355), (469, 335), (454, 323), (432, 299), (409, 277), (372, 241), (354, 227), (338, 211), (325, 198)]",224.84639238005062,"[2, 7, 1, 6, 3, 9, 8, 5, 4]","(0, 0.25)",CHN008C,CHN,C,Chinese,Fri Oct 19 16:55:49 2018,Mouse
2,1,3,0,30,2,8,0,-999,19,980,134,0,500,200,8000,"[(512, 383), (511, 383), (511, 383), (511, 383), (511, 383), (511, 383), (511, 383), (511, 383), (511, 383), (511, 383), (511, 383), (511, 383), (511, 383), (511, 383), (511, 383), (511, 383), (511, 383), (511, 383), (511, 383), (511, 383), (511, 383), (511, 383), (511, 383), (511, 383), (511, 383), (511, 383), (511, 383), (511, 383), (511, 383), (511, 383), (511, 383), (511, 383), (511, 383), (511, 383), (511, 383), (511, 383), (511, 383), (511, 383), (511, 383), (511, 383), (511, 383), (511, 383), (511, 383), (511, 383), (511, 383), (511, 383), (511, 383), (511, 383), (511, 383), (511, 383), (511, 383), (511, 383), (511, 383), (511, 383), (511, 383), (511, 383), (511, 383), (511, 383), (511, 383), (511, 383), (511, 383), (511, 383), (511, 383), (511, 383), (511, 383), (511, 383), (511, 383), (511, 383), (511, 383), (511, 383), (511, 383), (511, 383), (511, 383), (511, 383), (511, 383), (511, 383), (511, 383), (511, 383), (511, 383), (511, 383), (511, 383), (511, 383), (511, 383), (511, 383), (511, 383), (511, 383), (511, 383), (511, 383), (511, 383), (511, 383), (511, 381), (511, 369), (511, 333), (511, 318), (511, 302), (511, 276), (511, 215), (512, 184), (514, 155), (514, 125)]",270.4424296580395,"[2, 7, 1, 6, 3, 9, 8, 5, 4]","(0, 0.25)",CHN008C,CHN,C,Chinese,Fri Oct 19 16:55:49 2018,Mouse
2,1,3,0,31,7,9,0,-2180,2020,160,135,0,500,200,8000,"[(512, 384), (512, 384), (512, 384), (512, 384), (512, 384), (512, 384), (512, 384), (512, 384), (512, 384), (512, 384), (512, 384), (512, 384), (512, 384), (512, 384), (512, 384), (512, 384), (512, 384), (512, 384), (512, 384), (512, 384), (512, 384), (512, 384), (512, 384), (512, 384), (512, 384), (512, 384), (512, 384), (512, 384), (512, 384), (512, 384), (512, 384), (512, 384), (512, 384), (512, 384), (512, 384), (512, 384), (512, 384), (512, 384), (512, 384), (512, 384), (512, 384), (512, 384), (512, 384), (512, 384), (512, 384), (512, 384), (512, 384), (512, 384), (512, 384), (512, 384), (512, 384), (512, 384), (512, 384), (512, 384), (512, 384), (512, 384), (512, 384), (512, 384), (512, 384), (512, 384), (512, 384), (512, 384), (512, 384), (512, 384), (512, 384), (512, 384), (512, 384), (512, 384), (512, 384), (512, 384), (512, 384), (512, 384), (512, 384), (512, 384), (512, 384), (512, 384), (512, 384), (512, 384), (512, 384), (512, 384), (512, 384), (512, 384), (512, 384), (512, 384), (512, 384), (512, 384), (512, 384), (512, 384), (512, 384), (512, 384), (512, 384), (512, 384), (512, 384), (512, 384), (512, 384), (512, 384), (512, 384), (512, 384), (512, 384), (512, 384), (512, 384), (512, 384), (512, 384), (512, 384), (512, 384), (512, 384), (512, 384), (512, 384), (512, 384), (512, 384), (512, 384), (512, 384), (512, 384), (512, 384), (512, 384), (512, 384), (512, 384), (512, 384), (512, 384), (512, 384), (512, 384), (512, 384), (512, 384), (512, 384), (512, 384), (512, 384), (512, 384), (512, 384), (512, 384), (512, 384), (512, 384), (512, 384), (512, 384), (512, 384), (512, 384), (512, 384), (512, 384), (512, 384), (512, 384), (512, 384), (512, 384), (512, 384), (512, 384), (512, 384), (512, 384), (512, 384), (512, 384), (512, 384), (512, 384), (512, 384), (512, 384), (512, 384), (512, 384), (512, 384), (512, 384), (512, 384), (512, 384), (512, 384), (512, 384), (512, 384), (512, 384), (512, 384), (512, 384), (512, 384), (512, 384), (512, 384), (512, 384), (512, 384), (512, 384), (512, 384), (512, 384), (512, 384), (512, 384), (512, 384), (512, 384), (512, 384), (512, 384), (512, 384), (512, 384), (512, 384), (512, 384), (512, 384), (512, 384), (512, 384), (512, 384), (512, 384), (512, 384), (512, 384), (512, 384), (512, 384), (512, 384), (512, 384), (512, 384), (512, 384), (512, 384), (512, 384), (512, 384), (512, 384), (512, 384), (512, 384), (512, 384), (512, 383), (506, 380), (496, 371), (474, 358), (466, 355), (457, 348), (447, 341), (422, 325), (408, 317), (397, 309), (381, 299), (349, 280), (337, 270), (328, 264), (319, 257), (308, 249), (303, 245)]",213.62675729814066,"[2, 7, 1, 6, 3, 9, 8, 5, 4]","(0, 0.25)",CHN008C,CHN,C,Chinese,Fri Oct 19 16:55:49 2018,Mouse
2,1,3,0,32,2,9,0,-931,651,280,136,0,500,200,8000,"[(512, 384), (512, 384), (512, 384), (512, 384), (512, 384), (512, 384), (512, 384), (512, 384), (512, 384), (512, 384), (512, 384), (512, 384), (512, 384), (512, 384), (512, 384), (512, 384), (512, 384), (512, 384), (512, 384), (512, 384), (512, 384), (512, 384), (512, 384), (512, 384), (512, 384), (512, 384), (512, 384), (512, 384), (512, 384), (512, 384), (512, 384), (512, 384), (512, 384), (512, 384), (512, 384), (512, 384), (512, 384), (512, 384), (512, 384), (512, 384), (512, 384), (512, 384), (512, 384), (512, 384), (512, 384), (512, 384), (512, 384), (512, 384), (512, 384), (512, 384), (512, 384), (512, 384), (512, 384), (512, 384), (512, 384), (512, 384), (512, 384), (512, 384), (512, 384), (512, 384), (512, 384), (512, 384), (512, 384), (512, 384), (512, 384), (509, 381), (508, 377), (504, 372), (501, 365), (498, 362), (494, 357), (487, 347), (483, 341), (478, 334), (475, 328), (467, 314), (464, 308), (460, 302), (456, 296), (449, 281), (443, 273), (441, 269), (436, 261), (428, 250), (423, 244), (418, 238), (412, 234), (398, 224), (391, 220), (382, 218), (375, 213), (355, 206), (347, 203), (340, 199)]",227.08547946412963,"[2, 7, 1, 6, 3, 9, 8, 5, 4]","(0, 0.25)",CHN008C,CHN,C,Chinese,Fri Oct 19 16:55:49 2018,Mouse
2,1,3,0,33,3,8,0,-658,578,80,137,0,500,200,8000,"[(512, 384), (512, 384), (512, 384), (512, 384), (512, 384), (512, 384), (512, 384), (512, 384), (512, 384), (512, 384), (512, 384), (512, 384), (512, 384), (512, 384), (512, 384), (512, 384), (512, 384), (512, 384), (512, 384), (512, 384), (512, 384), (512, 384), (512, 384), (512, 384), (512, 384), (512, 384), (512, 384), (512, 384), (512, 384), (512, 384), (512, 384), (512, 384), (512, 384), (512, 384), (512, 384), (512, 384), (512, 384), (512, 384), (512, 384), (512, 384), (512, 384), (512, 384), (512, 384), (512, 384), (512, 384), (512, 384), (512, 384), (512, 384), (512, 384), (512, 384), (512, 384), (512, 384), (512, 384), (512, 384), (512, 384), (512, 384), (512, 384), (511, 377), (507, 365), (504, 350), (501, 329), (493, 278), (487, 241), (482, 206), (479, 171), (472, 94)]",262.14668669802177,"[2, 7, 1, 6, 3, 9, 8, 5, 4]","(0, 0.25)",CHN008C,CHN,C,Chinese,Fri Oct 19 16:55:49 2018,Mouse
2,1,3,0,34,2,2,1,429,339,90,138,0,500,200,8000,"[(512, 384), (512, 384), (512, 384), (512, 384), (512, 384), (512, 384), (512, 384), (512, 384), (512, 384), (512, 384), (512, 384), (512, 384), (512, 384), (512, 384), (512, 384), (512, 384), (512, 384), (512, 384), (512, 384), (512, 384), (512, 384), (512, 384), (512, 384), (512, 384), (512, 384), (512, 384), (512, 384), (512, 384), (512, 384), (512, 384), (512, 384), (512, 384), (512, 384), (517, 385), (529, 395), (558, 411), (574, 421), (590, 429), (610, 436), (657, 455), (691, 467), (720, 479), (751, 491)]",24.118002534754375,"[2, 7, 1, 6, 3, 9, 8, 5, 4]","(0, 0.25)",CHN008C,CHN,C,Chinese,Fri Oct 19 16:55:49 2018,Mouse
2,1,3,0,35,5,5,1,321,241,80,138,0,500,200,8000,"[(512, 384), (512, 384), (512, 384), (512, 384), (512, 384), (512, 384), (512, 384), (512, 384), (512, 384), (512, 384), (512, 384), (512, 384), (512, 384), (512, 384), (512, 384), (512, 384), (512, 384), (512, 384), (512, 384), (512, 384), (512, 384), (512, 384), (512, 384), (512, 384), (514, 379), (521, 370), (526, 361), (533, 350), (544, 328), (575, 264), (590, 225), (606, 192), (624, 160)]",296.565051177078,"[2, 7, 1, 6, 3, 9, 8, 5, 4]","(0, 0.25)",CHN008C,CHN,C,Chinese,Fri Oct 19 16:55:49 2018,Mouse
2,1,3,0,36,9,9,1,759,699,60,137,0,500,200,8000,"[(512, 384), (512, 384), (512, 384), (512, 384), (512, 384), (512, 384), (512, 384), (512, 384), (512, 384), (512, 384), (512, 384), (512, 384), (512, 384), (512, 384), (512, 384), (512, 384), (512, 384), (512, 384), (512, 384), (512, 384), (512, 384), (512, 384), (512, 384), (512, 384), (512, 384), (512, 384), (512, 384), (512, 384), (512, 384), (512, 384), (512, 384), (512, 384), (512, 384), (512, 384), (512, 384), (512, 384), (512, 384), (512, 384), (512, 384), (512, 384), (512, 384), (512, 384), (512, 384), (512, 384), (512, 384), (512, 384), (512, 384), (512, 384), (512, 384), (512, 384), (512, 384), (512, 384), (512, 384), (512, 384), (512, 384), (512, 384), (512, 384), (512, 384), (512, 384), (512, 384), (512, 384), (512, 384), (512, 384), (512, 384), (512, 384), (512, 384), (512, 384), (512, 384), (512, 384), (504, 381), (492, 372), (473, 360), (409, 316), (370, 287), (336, 262), (297, 237)]",214.36123339049323,"[2, 7, 1, 6, 3, 9, 8, 5, 4]","(0, 0.25)",CHN008C,CHN,C,Chinese,Fri Oct 19 16:55:49 2018,Mouse
2,1,3,0,37,9,9,1,600,470,130,136,0,500,200,8000,"[(512, 384), (512, 384), (512, 384), (512, 384), (512, 384), (512, 384), (512, 384), (512, 384), (512, 384), (512, 384), (512, 384), (512, 384), (512, 384), (512, 384), (512, 384), (512, 384), (512, 384), (512, 384), (512, 384), (512, 384), (512, 384), (512, 384), (512, 384), (512, 384), (512, 384), (512, 384), (512, 384), (512, 384), (512, 384), (512, 384), (512, 384), (512, 384), (512, 384), (512, 384), (512, 384), (512, 384), (512, 384), (512, 384), (512, 384), (512, 384), (512, 384), (512, 384), (512, 384), (512, 384), (512, 384), (512, 384), (509, 381), (503, 376), (487, 365), (480, 359), (470, 352), (459, 344), (438, 329), (426, 321), (411, 310), (396, 298), (359, 274), (336, 255), (318, 241), (298, 225)]",216.6120039058088,"[2, 7, 1, 6, 3, 9, 8, 5, 4]","(0, 0.25)",CHN008C,CHN,C,Chinese,Fri Oct 19 16:55:49 2018,Mouse
2,1,3,0,38,4,4,1,480,400,80,135,0,500,200,8000,"[(512, 384), (512, 384), (512, 384), (512, 384), (512, 384), (512, 384), (512, 384), (512, 384), (512, 384), (512, 384), (512, 384), (512, 384), (512, 384), (512, 384), (512, 384), (512, 384), (512, 384), (512, 384), (512, 384), (512, 384), (512, 384), (512, 384), (512, 384), (512, 384), (512, 384), (512, 384), (512, 384), (512, 384), (512, 384), (512, 384), (512, 384), (512, 384), (512, 384), (512, 384), (512, 384), (512, 384), (512, 384), (512, 384), (512, 384), (514, 384), (533, 385), (544, 385), (556, 385), (571, 384), (635, 374), (684, 368), (735, 363), (788, 361)]",355.23635830927384,"[2, 7, 1, 6, 3, 9, 8, 5, 4]","(0, 0.25)",CHN008C,CHN,C,Chinese,Fri Oct 19 16:55:49 2018,Mouse
2,1,3,0,39,1,8,0,-1858,1778,80,134,0,500,200,8000,"[(512, 384), (512, 384), (512, 384), (512, 384), (512, 384), (512, 384), (512, 384), (512, 384), (512, 384), (512, 384), (512, 384), (512, 384), (512, 384), (512, 384), (512, 384), (512, 384), (512, 384), (512, 384), (512, 384), (512, 384), (512, 384), (512, 384), (512, 384), (512, 384), (512, 384), (512, 384), (512, 384), (512, 384), (512, 384), (512, 384), (512, 384), (512, 384), (512, 384), (512, 384), (512, 384), (512, 384), (512, 384), (512, 384), (512, 384), (512, 384), (512, 384), (512, 384), (512, 384), (512, 384), (512, 384), (512, 384), (512, 384), (512, 384), (512, 384), (512, 384), (512, 384), (512, 384), (512, 384), (512, 384), (512, 384), (512, 384), (512, 384), (512, 384), (512, 384), (512, 384), (512, 384), (512, 384), (512, 384), (512, 384), (512, 384), (512, 384), (512, 384), (512, 384), (512, 384), (512, 384), (512, 384), (512, 384), (512, 384), (512, 384), (512, 384), (512, 384), (512, 384), (512, 384), (512, 384), (512, 384), (512, 384), (512, 384), (512, 384), (512, 384), (512, 384), (512, 384), (512, 384), (512, 384), (512, 384), (512, 384), (512, 384), (512, 384), (512, 384), (512, 384), (512, 384), (512, 384), (512, 384), (512, 384), (512, 384), (512, 384), (512, 384), (512, 384), (512, 384), (512, 384), (512, 384), (512, 384), (512, 384), (512, 384), (512, 384), (512, 384), (512, 384), (512, 384), (512, 384), (512, 384), (512, 384), (512, 384), (512, 384), (512, 384), (512, 384), (512, 384), (512, 384), (512, 384), (512, 384), (512, 384), (512, 384), (512, 384), (512, 384), (512, 384), (512, 384), (512, 384), (512, 384), (512, 384), (512, 384), (512, 384), (512, 384), (512, 384), (512, 384), (512, 384), (512, 384), (512, 384), (512, 384), (512, 384), (512, 384), (512, 384), (512, 384), (512, 384), (512, 384), (512, 384), (512, 384), (512, 384), (512, 384), (512, 384), (512, 384), (512, 384), (512, 384), (512, 384), (512, 384), (512, 384), (512, 384), (512, 384), (512, 384), (512, 384), (512, 384), (512, 384), (512, 384), (512, 384), (512, 384), (512, 384), (512, 384), (512, 384), (512, 384), (512, 384), (512, 384), (512, 384), (512, 384), (512, 384), (512, 384), (512, 382), (512, 373), (512, 360), (512, 309), (512, 275), (510, 241), (510, 208), (506, 146), (503, 117)]",268.069412558833,"[2, 7, 1, 6, 3, 9, 8, 5, 4]","(0, 0.25)",CHN008C,CHN,C,Chinese,Fri Oct 19 16:55:49 2018,Mouse
2,1,3,0,40,2,9,0,-319,229,90,135,0,500,200,8000,"[(512, 384), (512, 384), (512, 384), (512, 384), (512, 384), (512, 384), (512, 384), (512, 384), (512, 384), (512, 384), (512, 384), (512, 384), (512, 384), (512, 384), (512, 384), (512, 384), (512, 384), (512, 384), (512, 384), (512, 384), (512, 384), (512, 384), (506, 381), (496, 375), (485, 369), (473, 363), (453, 349), (437, 334), (412, 307), (383, 280), (330, 230), (311, 212)]",220.5543116465043,"[2, 7, 1, 6, 3, 9, 8, 5, 4]","(0, 0.25)",CHN008C,CHN,C,Chinese,Fri Oct 19 16:55:49 2018,Mouse
2,1,3,0,41,7,6,0,-949,889,60,136,0,500,200,8000,"[(512, 384), (512, 384), (512, 384), (512, 384), (512, 384), (512, 384), (512, 384), (512, 384), (512, 384), (512, 384), (512, 384), (512, 384), (512, 384), (512, 384), (512, 384), (512, 384), (512, 384), (512, 384), (512, 384), (512, 384), (512, 384), (512, 384), (512, 384), (512, 384), (512, 384), (512, 384), (512, 384), (512, 384), (512, 384), (512, 384), (512, 384), (512, 384), (512, 384), (512, 384), (512, 384), (512, 384), (512, 384), (512, 384), (512, 384), (512, 384), (512, 384), (512, 384), (512, 384), (512, 384), (512, 384), (512, 384), (512, 384), (512, 384), (512, 384), (512, 384), (512, 384), (512, 384), (512, 384), (512, 384), (512, 384), (512, 384), (512, 384), (512, 384), (512, 384), (512, 384), (512, 384), (512, 384), (512, 384), (512, 384), (512, 384), (512, 384), (512, 384), (512, 384), (512, 384), (512, 384), (512, 384), (512, 384), (512, 384), (512, 384), (512, 384), (512, 384), (512, 384), (512, 384), (512, 384), (512, 384), (512, 384), (512, 384), (512, 384), (512, 384), (512, 384), (512, 384), (512, 384), (512, 384), (509, 389), (501, 402), (472, 440), (450, 464), (423, 490), (395, 522), (330, 590)]",131.46044083145006,"[2, 7, 1, 6, 3, 9, 8, 5, 4]","(0, 0.25)",CHN008C,CHN,C,Chinese,Fri Oct 19 16:55:49 2018,Mouse
2,1,3,0,42,8,8,1,360,280,80,137,0,500,200,8000,"[(512, 384), (512, 384), (512, 384), (512, 384), (512, 384), (512, 384), (512, 384), (512, 384), (512, 384), (512, 384), (512, 384), (512, 384), (512, 384), (512, 384), (512, 384), (512, 384), (512, 384), (512, 384), (512, 384), (512, 384), (512, 384), (512, 384), (512, 384), (512, 384), (512, 384), (512, 384), (512, 384), (512, 378), (510, 368), (510, 358), (509, 350), (508, 319), (506, 291), (504, 249), (498, 198), (490, 91)]",265.7059853289635,"[2, 7, 1, 6, 3, 9, 8, 5, 4]","(0, 0.25)",CHN008C,CHN,C,Chinese,Fri Oct 19 16:55:49 2018,Mouse
2,1,3,0,43,5,6,0,-1151,1091,60,137,0,500,200,8000,"[(512, 384), (512, 384), (512, 384), (512, 384), (512, 384), (512, 384), (512, 384), (512, 384), (512, 384), (512, 384), (512, 384), (512, 384), (512, 384), (512, 384), (512, 384), (512, 384), (512, 384), (512, 384), (512, 384), (512, 384), (512, 384), (512, 384), (512, 384), (512, 384), (512, 384), (512, 384), (512, 384), (512, 384), (512, 384), (512, 384), (512, 384), (512, 384), (512, 384), (512, 384), (512, 384), (512, 384), (512, 384), (512, 384), (512, 384), (512, 384), (512, 384), (512, 384), (512, 384), (512, 384), (512, 384), (512, 384), (512, 384), (512, 384), (512, 384), (512, 384), (512, 384), (512, 384), (512, 384), (512, 384), (512, 384), (512, 384), (512, 384), (512, 384), (512, 384), (512, 384), (512, 384), (512, 384), (512, 384), (512, 384), (512, 384), (512, 384), (512, 384), (512, 384), (512, 384), (512, 384), (512, 384), (512, 384), (512, 384), (512, 384), (512, 384), (512, 384), (512, 384), (512, 384), (512, 384), (512, 384), (512, 384), (512, 384), (512, 384), (512, 384), (512, 384), (512, 384), (512, 384), (512, 384), (512, 384), (512, 384), (512, 384), (512, 384), (512, 384), (512, 384), (512, 384), (512, 384), (512, 384), (512, 384), (512, 384), (512, 384), (512, 384), (512, 384), (512, 384), (512, 384), (512, 384), (512, 384), (512, 384), (512, 384), (512, 384), (508, 387), (492, 399), (470, 413), (412, 450), (373, 475), (337, 502), (295, 532)]",145.7049308896594,"[2, 7, 1, 6, 3, 9, 8, 5, 4]","(0, 0.25)",CHN008C,CHN,C,Chinese,Fri Oct 19 16:55:49 2018,Mouse
2,1,3,0,44,7,9,0,-568,498,70,138,0,500,200,8000,"[(512, 384), (512, 384), (512, 384), (512, 384), (512, 384), (512, 384), (512, 384), (512, 384), (512, 384), (512, 384), (512, 384), (512, 384), (512, 384), (512, 384), (512, 384), (512, 384), (512, 384), (512, 384), (512, 384), (512, 384), (512, 384), (512, 384), (512, 384), (512, 384), (512, 384), (512, 384), (512, 384), (512, 384), (512, 384), (512, 384), (512, 384), (512, 384), (512, 384), (512, 384), (512, 384), (512, 384), (512, 384), (512, 384), (512, 384), (512, 384), (512, 384), (512, 384), (512, 384), (512, 384), (512, 384), (512, 384), (512, 384), (512, 384), (512, 384), (512, 382), (506, 374), (497, 364), (462, 318), (437, 289), (406, 252), (372, 215), (305, 149)]",228.62475333207394,"[2, 7, 1, 6, 3, 9, 8, 5, 4]","(0, 0.25)",CHN008C,CHN,C,Chinese,Fri Oct 19 16:55:49 2018,Mouse
2,1,3,0,45,6,6,1,549,479,70,139,0,500,200,8000,"[(512, 384), (512, 384), (512, 384), (512, 384), (512, 384), (512, 384), (512, 384), (512, 384), (512, 384), (512, 384), (512, 384), (512, 384), (512, 384), (512, 384), (512, 384), (512, 384), (512, 384), (512, 384), (512, 384), (512, 384), (512, 384), (512, 384), (512, 384), (512, 384), (512, 384), (512, 384), (512, 384), (512, 384), (512, 384), (512, 384), (512, 384), (512, 384), (512, 384), (512, 384), (512, 384), (512, 384), (512, 384), (512, 384), (512, 384), (512, 384), (512, 384), (512, 384), (512, 384), (512, 384), (512, 384), (512, 384), (512, 384), (508, 388), (500, 402), (487, 419), (473, 434), (434, 476), (406, 506), (374, 538), (339, 573)]",132.4692369823646,"[2, 7, 1, 6, 3, 9, 8, 5, 4]","(0, 0.25)",CHN008C,CHN,C,Chinese,Fri Oct 19 16:55:49 2018,Mouse
2,1,3,0,46,8,8,1,278,148,130,139,0,500,200,8000,"[(512, 384), (512, 384), (512, 384), (512, 384), (512, 384), (512, 384), (512, 384), (512, 384), (512, 384), (512, 384), (512, 384), (512, 384), (512, 384), (512, 384), (513, 382), (514, 376), (515, 352), (515, 333), (515, 305), (515, 278), (517, 235), (521, 213), (525, 194), (528, 178), (532, 155), (534, 145), (535, 137), (537, 127)]",275.5560384231251,"[2, 7, 1, 6, 3, 9, 8, 5, 4]","(0, 0.25)",CHN008C,CHN,C,Chinese,Fri Oct 19 16:55:49 2018,Mouse
2,1,3,0,47,7,9,0,-1149,839,310,138,0,500,200,8000,"[(512, 384), (512, 384), (512, 384), (512, 384), (512, 384), (512, 384), (512, 384), (512, 384), (512, 384), (512, 384), (512, 384), (512, 384), (512, 384), (512, 384), (512, 384), (512, 384), (512, 384), (512, 384), (512, 384), (512, 384), (512, 384), (512, 384), (512, 384), (512, 384), (512, 384), (512, 384), (512, 384), (512, 384), (512, 384), (512, 384), (512, 384), (512, 384), (512, 384), (512, 384), (512, 384), (512, 384), (512, 384), (512, 384), (512, 384), (512, 384), (512, 384), (512, 384), (512, 384), (512, 384), (512, 384), (512, 384), (512, 384), (512, 384), (512, 384), (512, 384), (512, 384), (512, 384), (512, 384), (512, 384), (512, 384), (512, 384), (512, 384), (512, 384), (512, 384), (512, 384), (512, 384), (512, 384), (512, 384), (512, 384), (512, 384), (512, 384), (512, 384), (512, 384), (512, 384), (512, 384), (512, 384), (512, 384), (512, 384), (512, 384), (512, 384), (512, 384), (512, 384), (512, 384), (512, 384), (512, 384), (512, 384), (512, 384), (512, 384), (512, 383), (512, 378), (512, 376), (511, 375), (510, 374), (510, 371), (509, 369), (508, 366), (507, 362), (507, 361), (507, 361), (507, 361), (507, 361), (506, 361), (506, 360), (506, 359), (504, 357), (498, 349), (493, 343), (488, 338), (476, 328), (447, 309), (432, 301), (418, 293), (404, 284), (382, 270), (372, 265), (359, 257), (348, 251), (327, 240), (316, 235), (308, 231)]",216.86989764584402,"[2, 7, 1, 6, 3, 9, 8, 5, 4]","(0, 0.25)",CHN008C,CHN,C,Chinese,Fri Oct 19 16:55:49 2018,Mouse
2,1,3,0,48,3,3,1,307,237,70,139,0,500,200,8000,"[(512, 384), (512, 384), (512, 384), (512, 384), (512, 384), (512, 384), (512, 384), (512, 384), (512, 384), (512, 384), (512, 384), (512, 384), (512, 384), (512, 384), (512, 384), (512, 384), (512, 384), (512, 384), (512, 384), (512, 384), (512, 384), (512, 384), (512, 384), (506, 384), (490, 384), (471, 387), (440, 397), (376, 415), (340, 426), (299, 433), (254, 449)]",165.85929761496948,"[2, 7, 1, 6, 3, 9, 8, 5, 4]","(0, 0.25)",CHN008C,CHN,C,Chinese,Fri Oct 19 16:55:49 2018,Mouse
2,1,3,0,49,4,4,1,271,201,70,139,0,500,200,8000,"[(512, 384), (512, 384), (512, 384), (512, 384), (512, 384), (512, 384), (512, 384), (512, 384), (512, 384), (512, 384), (512, 384), (512, 384), (512, 384), (512, 384), (512, 384), (512, 384), (512, 384), (512, 384), (512, 384), (512, 384), (515, 384), (538, 373), (558, 366), (589, 357), (619, 349), (695, 325), (748, 309), (803, 295)]",342.9941712663194,"[2, 7, 1, 6, 3, 9, 8, 5, 4]","(0, 0.25)",CHN008C,CHN,C,Chinese,Fri Oct 19 16:55:49 2018,Mouse
2,1,3,0,50,3,3,1,1080,1020,60,138,0,500,200,8000,"[(512, 384), (512, 384), (512, 384), (512, 384), (512, 384), (512, 384), (512, 384), (512, 384), (512, 384), (512, 384), (512, 384), (512, 384), (512, 384), (512, 384), (512, 384), (512, 384), (512, 384), (512, 384), (512, 384), (512, 384), (512, 384), (512, 384), (512, 384), (512, 384), (512, 384), (512, 384), (512, 384), (512, 384), (512, 384), (512, 384), (512, 384), (512, 384), (512, 384), (512, 384), (512, 384), (512, 384), (512, 384), (512, 384), (512, 384), (512, 384), (512, 384), (512, 384), (512, 384), (512, 384), (512, 384), (512, 384), (512, 384), (512, 384), (512, 384), (512, 384), (512, 384), (512, 384), (512, 384), (512, 384), (512, 384), (512, 384), (512, 384), (512, 384), (512, 384), (512, 384), (512, 384), (512, 384), (512, 384), (512, 384), (512, 384), (512, 384), (512, 384), (512, 384), (512, 384), (512, 384), (512, 384), (512, 384), (512, 384), (512, 384), (512, 384), (512, 384), (512, 384), (512, 384), (512, 384), (512, 384), (512, 384), (512, 384), (512, 384), (512, 384), (512, 384), (512, 384), (512, 384), (512, 384), (512, 384), (512, 384), (512, 384), (512, 384), (512, 384), (512, 384), (512, 384), (512, 384), (512, 384), (512, 384), (512, 384), (512, 384), (512, 384), (501, 382), (481, 378), (447, 375), (407, 373), (312, 369), (268, 369), (218, 369)]",182.9207215210004,"[2, 7, 1, 6, 3, 9, 8, 5, 4]","(0, 0.25)",CHN008C,CHN,C,Chinese,Fri Oct 19 16:55:49 2018,Mouse
2,1,3,0,51,1,1,1,909,839,70,137,0,500,200,8000,"[(512, 384), (512, 384), (512, 384), (512, 384), (512, 384), (512, 384), (512, 384), (512, 384), (512, 384), (512, 384), (512, 384), (512, 384), (512, 384), (512, 384), (512, 384), (512, 384), (512, 384), (512, 384), (512, 384), (512, 384), (512, 384), (512, 384), (512, 384), (512, 384), (512, 384), (512, 384), (512, 384), (512, 384), (512, 384), (512, 384), (512, 384), (512, 384), (512, 384), (512, 384), (512, 384), (512, 384), (512, 384), (512, 384), (512, 384), (512, 384), (512, 384), (512, 384), (512, 384), (512, 384), (512, 384), (512, 384), (512, 384), (512, 384), (512, 384), (512, 384), (512, 384), (512, 384), (512, 384), (512, 384), (512, 384), (512, 384), (512, 384), (512, 384), (512, 384), (512, 384), (512, 384), (512, 384), (512, 384), (512, 384), (512, 384), (512, 384), (512, 384), (512, 384), (512, 384), (512, 384), (512, 384), (512, 384), (512, 384), (512, 384), (512, 384), (512, 384), (512, 384), (512, 384), (512, 384), (512, 384), (512, 384), (512, 384), (512, 384), (512, 385), (513, 391), (515, 420), (517, 445), (517, 479), (517, 518), (510, 600), (505, 640)]",91.56629118698307,"[2, 7, 1, 6, 3, 9, 8, 5, 4]","(0, 0.25)",CHN008C,CHN,C,Chinese,Fri Oct 19 16:55:49 2018,Mouse
2,1,3,0,52,1,1,1,869,749,120,136,0,500,200,8000,"[(512, 384), (512, 384), (512, 384), (512, 384), (512, 384), (512, 384), (512, 384), (512, 384), (512, 384), (512, 384), (512, 384), (512, 384), (512, 384), (512, 384), (512, 384), (512, 384), (512, 384), (512, 384), (512, 384), (512, 384), (512, 384), (512, 384), (512, 384), (512, 384), (512, 384), (512, 384), (512, 384), (512, 384), (512, 384), (512, 384), (512, 384), (512, 384), (512, 384), (512, 384), (512, 384), (512, 384), (512, 384), (512, 384), (512, 384), (512, 384), (512, 384), (512, 384), (512, 384), (512, 384), (512, 384), (512, 384), (512, 384), (512, 384), (512, 384), (512, 384), (512, 384), (512, 384), (512, 384), (512, 384), (512, 384), (512, 384), (512, 384), (512, 384), (512, 384), (512, 384), (512, 384), (512, 384), (512, 384), (512, 384), (512, 384), (512, 384), (512, 384), (512, 384), (512, 384), (512, 384), (512, 384), (512, 384), (512, 384), (512, 384), (514, 387), (515, 393), (515, 401), (515, 412), (512, 444), (509, 460), (508, 480), (508, 500), (517, 539), (524, 559), (528, 578), (535, 608), (540, 653)]",84.05752675443908,"[2, 7, 1, 6, 3, 9, 8, 5, 4]","(0, 0.25)",CHN008C,CHN,C,Chinese,Fri Oct 19 16:55:49 2018,Mouse
2,1,3,0,53,1,7,0,-1062,922,140,135,0,500,200,8000,"[(512, 384), (512, 384), (512, 384), (512, 384), (512, 384), (512, 384), (512, 384), (512, 384), (512, 384), (512, 384), (512, 384), (512, 384), (512, 384), (512, 384), (512, 384), (512, 384), (512, 384), (512, 384), (512, 384), (512, 384), (512, 384), (512, 384), (512, 384), (512, 384), (512, 384), (512, 384), (512, 384), (512, 384), (512, 384), (512, 384), (512, 384), (512, 384), (512, 384), (512, 384), (512, 384), (512, 384), (512, 384), (512, 384), (512, 384), (512, 384), (512, 384), (512, 384), (512, 384), (512, 384), (512, 384), (512, 384), (512, 384), (512, 384), (512, 384), (512, 384), (512, 384), (512, 384), (512, 384), (512, 384), (512, 384), (512, 384), (512, 384), (512, 384), (512, 384), (512, 384), (512, 384), (512, 384), (512, 384), (512, 384), (512, 384), (512, 384), (512, 384), (512, 384), (512, 384), (512, 384), (512, 384), (512, 384), (512, 384), (512, 384), (512, 384), (512, 384), (512, 384), (512, 384), (512, 384), (512, 384), (512, 384), (512, 384), (512, 384), (512, 384), (512, 384), (512, 384), (512, 384), (512, 384), (512, 384), (512, 384), (512, 384), (512, 384), (517, 388), (519, 389), (519, 389), (521, 391), (527, 396), (532, 400), (536, 406), (540, 412), (553, 431), (564, 447), (582, 472), (603, 498), (650, 546), (668, 565), (690, 589)]",49.032456858772235,"[2, 7, 1, 6, 3, 9, 8, 5, 4]","(0, 0.25)",CHN008C,CHN,C,Chinese,Fri Oct 19 16:55:49 2018,Mouse
2,1,3,0,54,6,9,0,-619,309,310,136,0,500,200,8000,"[(512, 384), (512, 384), (512, 384), (512, 384), (512, 384), (512, 384), (512, 384), (512, 384), (512, 384), (512, 384), (512, 384), (512, 384), (512, 384), (512, 384), (512, 384), (512, 384), (512, 384), (512, 384), (512, 384), (512, 384), (512, 384), (512, 384), (512, 384), (512, 384), (512, 384), (512, 384), (512, 384), (512, 384), (512, 384), (512, 384), (514, 385), (515, 385), (516, 387), (520, 389), (522, 390), (524, 391), (524, 391), (524, 391), (524, 391), (524, 392), (524, 392), (524, 392), (524, 392), (524, 392), (524, 392), (524, 392), (524, 390), (524, 385), (524, 377), (516, 354), (507, 339), (498, 325), (484, 305), (458, 275), (440, 258), (420, 241), (406, 234), (377, 220), (364, 212), (352, 208), (342, 201), (322, 193)]",225.1503822780716,"[2, 7, 1, 6, 3, 9, 8, 5, 4]","(0, 0.25)",CHN008C,CHN,C,Chinese,Fri Oct 19 16:55:49 2018,Mouse
2,1,3,0,55,5,4,0,-518,408,110,137,0,500,200,8000,"[(512, 384), (512, 384), (512, 384), (512, 384), (512, 384), (512, 384), (512, 384), (512, 384), (512, 384), (512, 384), (512, 384), (512, 384), (512, 384), (512, 384), (512, 384), (512, 384), (512, 384), (512, 384), (512, 384), (512, 384), (512, 384), (512, 384), (512, 384), (512, 384), (512, 384), (512, 384), (512, 384), (512, 384), (512, 384), (512, 384), (512, 384), (512, 384), (512, 384), (512, 384), (512, 384), (512, 384), (512, 384), (512, 384), (512, 384), (512, 384), (517, 384), (523, 380), (529, 377), (547, 368), (554, 363), (564, 360), (573, 353), (606, 336), (630, 327), (656, 317), (682, 306), (745, 282)]",336.3577236249161,"[2, 7, 1, 6, 3, 9, 8, 5, 4]","(0, 0.25)",CHN008C,CHN,C,Chinese,Fri Oct 19 16:55:49 2018,Mouse
2,1,3,0,56,8,8,1,1828,1768,60,138,0,500,200,8000,"[(512, 384), (512, 384), (512, 384), (512, 384), (512, 384), (512, 384), (512, 384), (512, 384), (512, 384), (512, 384), (512, 384), (512, 384), (512, 384), (512, 384), (512, 384), (512, 384), (512, 384), (512, 384), (512, 384), (512, 384), (512, 384), (512, 384), (512, 384), (512, 384), (512, 384), (512, 384), (512, 384), (512, 384), (512, 384), (512, 384), (512, 384), (512, 384), (512, 384), (512, 384), (512, 384), (512, 384), (512, 384), (512, 384), (512, 384), (512, 384), (512, 384), (512, 384), (512, 384), (512, 384), (512, 384), (512, 384), (512, 384), (512, 384), (512, 384), (512, 384), (512, 384), (512, 384), (512, 384), (512, 384), (512, 384), (512, 384), (512, 384), (512, 384), (512, 384), (512, 384), (512, 384), (512, 384), (512, 384), (512, 384), (512, 384), (512, 384), (512, 384), (512, 384), (512, 384), (512, 384), (512, 384), (512, 384), (512, 384), (512, 384), (512, 384), (512, 384), (512, 384), (512, 384), (512, 384), (512, 384), (512, 384), (512, 384), (512, 384), (512, 384), (512, 384), (512, 384), (512, 384), (512, 384), (512, 384), (512, 384), (512, 384), (512, 384), (512, 384), (512, 384), (512, 384), (512, 384), (512, 384), (512, 384), (512, 384), (512, 384), (512, 384), (512, 384), (512, 384), (512, 384), (512, 384), (512, 384), (512, 384), (512, 384), (512, 384), (512, 384), (512, 384), (512, 384), (512, 384), (512, 384), (512, 384), (512, 384), (512, 384), (512, 384), (512, 384), (512, 384), (512, 384), (512, 384), (512, 384), (512, 384), (512, 384), (512, 384), (512, 384), (512, 384), (512, 384), (512, 384), (512, 384), (512, 384), (512, 384), (512, 384), (512, 384), (512, 384), (512, 384), (512, 384), (512, 384), (512, 384), (512, 384), (512, 384), (512, 384), (512, 384), (512, 384), (512, 384), (512, 384), (512, 384), (512, 384), (512, 384), (512, 384), (512, 384), (512, 384), (512, 384), (512, 384), (512, 384), (512, 384), (512, 384), (512, 384), (512, 384), (512, 384), (512, 384), (512, 384), (512, 384), (512, 384), (512, 384), (512, 384), (512, 384), (512, 384), (512, 384), (512, 384), (512, 384), (512, 384), (512, 384), (512, 384), (512, 384), (512, 383), (510, 369), (501, 339), (485, 262), (477, 219), (468, 175), (458, 131)]",257.9516487817766,"[2, 7, 1, 6, 3, 9, 8, 5, 4]","(0, 0.25)",CHN008C,CHN,C,Chinese,Fri Oct 19 16:55:49 2018,Mouse
2,1,3,0,57,1,1,1,349,279,70,138,0,500,200,8000,"[(512, 384), (512, 384), (512, 384), (512, 384), (512, 384), (512, 384), (512, 384), (512, 384), (512, 384), (512, 384), (512, 384), (512, 384), (512, 384), (512, 384), (512, 384), (512, 384), (512, 384), (512, 384), (512, 384), (512, 384), (512, 384), (512, 384), (512, 384), (512, 384), (512, 384), (512, 384), (512, 384), (512, 389), (504, 423), (494, 449), (481, 475), (467, 507), (435, 569), (420, 604), (407, 633)]",112.86450812189965,"[2, 7, 1, 6, 3, 9, 8, 5, 4]","(0, 0.25)",CHN008C,CHN,C,Chinese,Fri Oct 19 16:55:49 2018,Mouse
2,1,3,0,58,2,2,1,320,220,100,137,0,500,200,8000,"[(512, 384), (512, 384), (512, 384), (512, 384), (512, 384), (512, 384), (512, 384), (512, 384), (512, 384), (512, 384), (512, 384), (512, 384), (512, 384), (512, 384), (512, 384), (512, 384), (512, 384), (512, 384), (512, 384), (512, 384), (512, 384), (513, 384), (521, 383), (535, 384), (552, 387), (592, 394), (616, 397), (641, 403), (668, 409), (725, 419), (757, 424), (793, 433)]",9.891619726822183,"[2, 7, 1, 6, 3, 9, 8, 5, 4]","(0, 0.25)",CHN008C,CHN,C,Chinese,Fri Oct 19 16:55:49 2018,Mouse
2,1,3,0,59,5,3,0,-1249,1169,80,136,0,500,200,8000,"[(512, 384), (512, 384), (512, 384), (512, 384), (512, 384), (512, 384), (512, 384), (512, 384), (512, 384), (512, 384), (512, 384), (512, 384), (512, 384), (512, 384), (512, 384), (512, 384), (512, 384), (512, 384), (512, 384), (512, 384), (512, 384), (512, 384), (512, 384), (512, 384), (512, 384), (512, 384), (512, 384), (512, 384), (512, 384), (512, 384), (512, 384), (512, 384), (512, 384), (512, 384), (512, 384), (512, 384), (512, 384), (512, 384), (512, 384), (512, 384), (512, 384), (512, 384), (512, 384), (512, 384), (512, 384), (512, 384), (512, 384), (512, 384), (512, 384), (512, 384), (512, 384), (512, 384), (512, 384), (512, 384), (512, 384), (512, 384), (512, 384), (512, 384), (512, 384), (512, 384), (512, 384), (512, 384), (512, 384), (512, 384), (512, 384), (512, 384), (512, 384), (512, 384), (512, 384), (512, 384), (512, 384), (512, 384), (512, 384), (512, 384), (512, 384), (512, 384), (512, 384), (512, 384), (512, 384), (512, 384), (512, 384), (512, 384), (512, 384), (512, 384), (512, 384), (512, 384), (512, 384), (512, 384), (512, 384), (512, 384), (512, 384), (512, 384), (512, 384), (512, 384), (512, 384), (512, 384), (512, 384), (512, 384), (512, 384), (512, 384), (512, 384), (512, 384), (512, 384), (512, 384), (512, 384), (512, 384), (512, 384), (512, 384), (512, 384), (512, 384), (512, 384), (512, 384), (512, 384), (512, 384), (512, 384), (512, 384), (510, 384), (490, 388), (472, 393), (454, 395), (428, 398), (369, 398), (340, 400), (298, 402), (259, 405)]",175.2551007945435,"[2, 7, 1, 6, 3, 9, 8, 5, 4]","(0, 0.25)",CHN008C,CHN,C,Chinese,Fri Oct 19 16:55:49 2018,Mouse
2,1,3,0,60,1,8,0,-850,750,100,137,0,500,200,8000,"[(512, 384), (512, 384), (512, 384), (512, 384), (512, 384), (512, 384), (512, 384), (512, 384), (512, 384), (512, 384), (512, 384), (512, 384), (512, 384), (512, 384), (512, 384), (512, 384), (512, 384), (512, 384), (512, 384), (512, 384), (512, 384), (512, 384), (512, 384), (512, 384), (512, 384), (512, 384), (512, 384), (512, 384), (512, 384), (512, 384), (512, 384), (512, 384), (512, 384), (512, 384), (512, 384), (512, 384), (512, 384), (512, 384), (512, 384), (512, 384), (512, 384), (512, 384), (512, 384), (512, 384), (512, 384), (512, 384), (512, 384), (512, 384), (512, 384), (512, 384), (512, 384), (512, 384), (512, 384), (512, 384), (512, 384), (512, 384), (512, 384), (512, 384), (512, 384), (512, 384), (512, 384), (512, 384), (512, 384), (512, 384), (512, 384), (512, 384), (512, 384), (512, 384), (512, 384), (512, 384), (512, 384), (512, 384), (512, 384), (512, 384), (512, 381), (512, 377), (512, 371), (512, 364), (512, 349), (509, 326), (494, 257), (477, 220), (465, 193), (454, 170), (442, 143)]",253.80372106315303,"[2, 7, 1, 6, 3, 9, 8, 5, 4]","(0, 0.25)",CHN008C,CHN,C,Chinese,Fri Oct 19 16:55:49 2018,Mouse
2,1,3,0,61,3,3,1,602,522,80,138,0,500,200,8000,"[(512, 384), (512, 384), (512, 384), (512, 384), (512, 384), (512, 384), (512, 384), (512, 384), (512, 384), (512, 384), (512, 384), (512, 384), (512, 384), (512, 384), (512, 384), (512, 384), (512, 384), (512, 384), (512, 384), (512, 384), (512, 384), (512, 384), (512, 384), (512, 384), (512, 384), (512, 384), (512, 384), (512, 384), (512, 384), (512, 384), (512, 384), (512, 384), (512, 384), (512, 384), (512, 384), (512, 384), (512, 384), (512, 384), (512, 384), (512, 384), (512, 384), (512, 384), (512, 384), (512, 384), (512, 384), (512, 384), (512, 384), (512, 384), (512, 384), (512, 384), (512, 384), (512, 384), (504, 384), (490, 384), (476, 388), (441, 390), (419, 390), (394, 390), (360, 390), (276, 392), (234, 394)]",177.93988897627688,"[2, 7, 1, 6, 3, 9, 8, 5, 4]","(0, 0.25)",CHN008C,CHN,C,Chinese,Fri Oct 19 16:55:49 2018,Mouse
2,1,3,0,62,2,2,1,379,299,80,138,0,500,200,8000,"[(512, 384), (512, 384), (512, 384), (512, 384), (512, 384), (512, 384), (512, 384), (512, 384), (512, 384), (512, 384), (512, 384), (512, 384), (512, 384), (512, 384), (512, 384), (512, 384), (512, 384), (512, 384), (512, 384), (512, 384), (512, 384), (512, 384), (512, 384), (512, 384), (512, 384), (512, 384), (512, 384), (512, 384), (512, 384), (516, 386), (525, 390), (545, 402), (559, 406), (577, 413), (600, 422), (670, 446), (712, 457), (762, 471)]",19.187896604627575,"[2, 7, 1, 6, 3, 9, 8, 5, 4]","(0, 0.25)",CHN008C,CHN,C,Chinese,Fri Oct 19 16:55:49 2018,Mouse
2,1,3,0,63,7,7,1,1178,1038,140,137,0,500,200,8000,"[(512, 384), (512, 384), (512, 384), (512, 384), (512, 384), (512, 384), (512, 384), (512, 384), (512, 384), (512, 384), (512, 384), (512, 384), (512, 384), (512, 384), (512, 384), (512, 384), (512, 384), (512, 384), (512, 384), (512, 384), (512, 384), (512, 384), (512, 384), (512, 384), (512, 384), (512, 384), (512, 384), (512, 384), (512, 384), (512, 384), (512, 384), (512, 384), (512, 384), (512, 384), (512, 384), (512, 384), (512, 384), (512, 384), (512, 384), (512, 384), (512, 384), (512, 384), (512, 384), (512, 384), (512, 384), (512, 384), (512, 384), (512, 384), (512, 384), (512, 384), (512, 384), (512, 384), (512, 384), (512, 384), (512, 384), (512, 384), (512, 384), (512, 384), (512, 384), (512, 384), (512, 384), (512, 384), (512, 384), (512, 384), (512, 384), (512, 384), (512, 384), (512, 384), (512, 384), (512, 384), (512, 384), (512, 384), (512, 384), (512, 384), (512, 384), (512, 384), (512, 384), (512, 384), (512, 384), (512, 384), (512, 384), (512, 384), (512, 384), (512, 384), (512, 384), (512, 384), (512, 384), (512, 384), (512, 384), (512, 384), (512, 384), (512, 384), (512, 384), (512, 384), (512, 384), (512, 384), (512, 384), (512, 384), (512, 384), (512, 384), (512, 384), (512, 384), (512, 384), (515, 389), (520, 398), (526, 415), (529, 423), (533, 431), (537, 439), (546, 460), (552, 473), (558, 484), (563, 495), (579, 530), (588, 553), (595, 571), (603, 587), (626, 623)]",64.49944385096656,"[2, 7, 1, 6, 3, 9, 8, 5, 4]","(0, 0.25)",CHN008C,CHN,C,Chinese,Fri Oct 19 16:55:49 2018,Mouse
2,1,3,0,64,7,6,0,-592,512,80,136,0,500,200,8000,"[(512, 384), (512, 384), (512, 384), (512, 384), (512, 384), (512, 384), (512, 384), (512, 384), (512, 384), (512, 384), (512, 384), (512, 384), (512, 384), (512, 384), (512, 384), (512, 384), (512, 384), (512, 384), (512, 384), (512, 384), (512, 384), (512, 384), (512, 384), (512, 384), (512, 384), (512, 384), (512, 384), (512, 384), (512, 384), (512, 384), (512, 384), (512, 384), (512, 384), (512, 384), (512, 384), (512, 384), (512, 384), (512, 384), (512, 384), (512, 384), (512, 384), (512, 384), (512, 384), (512, 384), (512, 384), (512, 384), (512, 384), (512, 384), (512, 384), (512, 384), (512, 384), (511, 389), (493, 413), (478, 429), (465, 442), (442, 462), (395, 503), (375, 518), (349, 539), (326, 555)]",137.4059705166453,"[2, 7, 1, 6, 3, 9, 8, 5, 4]","(0, 0.25)",CHN008C,CHN,C,Chinese,Fri Oct 19 16:55:49 2018,Mouse
2,1,3,0,65,6,3,0,-2761,2681,80,137,0,500,200,8000,"[(512, 384), (512, 384), (512, 384), (512, 384), (512, 384), (512, 384), (512, 384), (512, 384), (512, 384), (512, 384), (512, 384), (512, 384), (512, 384), (512, 384), (512, 384), (512, 384), (512, 384), (512, 384), (512, 384), (512, 384), (512, 384), (512, 384), (512, 384), (512, 384), (512, 384), (512, 384), (512, 384), (512, 384), (512, 384), (512, 384), (512, 384), (512, 384), (512, 384), (512, 384), (512, 384), (512, 384), (512, 384), (512, 384), (512, 384), (512, 384), (512, 384), (512, 384), (512, 384), (512, 384), (512, 384), (512, 384), (512, 384), (512, 384), (512, 384), (512, 384), (512, 384), (512, 384), (512, 384), (512, 384), (512, 384), (512, 384), (512, 384), (512, 384), (512, 384), (512, 384), (512, 384), (512, 384), (512, 384), (512, 384), (512, 384), (512, 384), (512, 384), (512, 384), (512, 384), (512, 384), (512, 384), (512, 384), (512, 384), (512, 384), (512, 384), (512, 384), (512, 384), (512, 384), (512, 384), (512, 384), (512, 384), (512, 384), (512, 384), (512, 384), (512, 384), (512, 384), (512, 384), (512, 384), (512, 384), (512, 384), (512, 384), (512, 384), (512, 384), (512, 384), (512, 384), (512, 384), (512, 384), (512, 384), (512, 384), (512, 384), (512, 384), (512, 384), (512, 384), (512, 384), (512, 384), (512, 384), (512, 384), (512, 384), (512, 384), (512, 384), (512, 384), (512, 384), (512, 384), (512, 384), (512, 384), (512, 384), (512, 384), (512, 384), (512, 384), (512, 384), (512, 384), (512, 384), (512, 384), (512, 384), (512, 384), (512, 384), (512, 384), (512, 384), (512, 384), (512, 384), (512, 384), (512, 384), (512, 384), (512, 384), (512, 384), (512, 384), (512, 384), (512, 384), (512, 384), (512, 384), (512, 384), (512, 384), (512, 384), (512, 384), (512, 384), (512, 384), (512, 384), (512, 384), (512, 384), (512, 384), (512, 384), (512, 384), (512, 384), (512, 384), (512, 384), (512, 384), (512, 384), (512, 384), (512, 384), (512, 384), (512, 384), (512, 384), (512, 384), (512, 384), (512, 384), (512, 384), (512, 384), (512, 384), (512, 384), (512, 384), (512, 384), (512, 384), (512, 384), (512, 384), (512, 384), (512, 384), (512, 384), (512, 384), (512, 384), (512, 384), (512, 384), (512, 384), (512, 384), (512, 384), (512, 384), (512, 384), (512, 384), (512, 384), (512, 384), (512, 384), (512, 384), (512, 384), (512, 384), (512, 384), (512, 384), (512, 384), (512, 384), (512, 384), (512, 384), (512, 384), (512, 384), (512, 384), (512, 384), (512, 384), (512, 384), (512, 384), (512, 384), (512, 384), (512, 384), (512, 384), (512, 384), (512, 384), (512, 384), (512, 384), (512, 384), (512, 384), (512, 384), (512, 384), (512, 384), (512, 384), (512, 384), (512, 384), (512, 384), (512, 384), (512, 384), (512, 384), (512, 384), (512, 384), (512, 384), (512, 384), (512, 384), (512, 384), (512, 384), (512, 384), (512, 384), (512, 384), (512, 384), (512, 384), (512, 384), (512, 384), (512, 384), (512, 384), (512, 384), (512, 384), (512, 384), (512, 384), (512, 384), (512, 384), (512, 384), (512, 384), (512, 384), (512, 384), (512, 384), (512, 384), (512, 384), (512, 384), (512, 384), (512, 384), (512, 384), (512, 384), (512, 384), (512, 384), (512, 384), (512, 384), (512, 384), (512, 384), (512, 384), (509, 384), (486, 387), (466, 393), (447, 395), (387, 402), (358, 403), (324, 405), (290, 407), (217, 410)]",174.9632172904775,"[2, 7, 1, 6, 3, 9, 8, 5, 4]","(0, 0.25)",CHN008C,CHN,C,Chinese,Fri Oct 19 16:55:49 2018,Mouse
2,1,3,0,66,8,8,1,1629,1479,150,138,0,500,200,8000,"[(512, 384), (512, 384), (512, 384), (512, 384), (512, 384), (512, 384), (512, 384), (512, 384), (512, 384), (512, 384), (512, 384), (512, 384), (512, 384), (512, 384), (512, 384), (512, 384), (512, 384), (512, 384), (512, 384), (512, 384), (512, 384), (512, 384), (512, 384), (512, 384), (512, 384), (512, 384), (512, 384), (512, 384), (512, 384), (512, 384), (512, 384), (512, 384), (512, 384), (512, 384), (512, 384), (512, 384), (512, 384), (512, 384), (512, 384), (512, 384), (512, 384), (512, 384), (512, 384), (512, 384), (512, 384), (512, 384), (512, 384), (512, 384), (512, 384), (512, 384), (512, 384), (512, 384), (512, 384), (512, 384), (512, 384), (512, 384), (512, 384), (512, 384), (512, 384), (512, 384), (512, 384), (512, 384), (512, 384), (512, 384), (512, 384), (512, 384), (512, 384), (512, 384), (512, 384), (512, 384), (512, 384), (512, 384), (512, 384), (512, 384), (512, 384), (512, 384), (512, 384), (512, 384), (512, 384), (512, 384), (512, 384), (512, 384), (512, 384), (512, 384), (512, 384), (512, 384), (512, 384), (512, 384), (512, 384), (512, 384), (512, 384), (512, 384), (512, 384), (512, 384), (512, 384), (512, 384), (512, 384), (512, 384), (512, 384), (512, 384), (512, 384), (512, 384), (512, 384), (512, 384), (512, 384), (512, 384), (512, 384), (512, 384), (512, 384), (512, 384), (512, 384), (512, 384), (512, 384), (512, 384), (512, 384), (512, 384), (512, 384), (512, 384), (512, 384), (512, 384), (512, 384), (512, 384), (512, 384), (512, 384), (512, 384), (512, 384), (512, 384), (512, 384), (512, 384), (512, 384), (512, 384), (512, 384), (512, 384), (512, 384), (512, 384), (512, 384), (512, 384), (512, 384), (512, 384), (512, 384), (512, 384), (512, 384), (512, 384), (512, 384), (512, 384), (512, 384), (512, 384), (510, 373), (509, 362), (509, 351), (509, 338), (507, 303), (505, 285), (504, 265), (503, 247), (500, 222), (498, 210), (496, 201), (494, 188), (487, 162), (485, 149), (484, 141), (483, 133)]",263.40939123185115,"[2, 7, 1, 6, 3, 9, 8, 5, 4]","(0, 0.25)",CHN008C,CHN,C,Chinese,Fri Oct 19 16:55:49 2018,Mouse
2,1,3,0,67,4,9,0,-677,207,470,138,0,500,200,8000,"[(512, 384), (512, 384), (512, 384), (512, 384), (512, 384), (512, 384), (512, 384), (512, 384), (512, 384), (512, 384), (512, 384), (512, 384), (512, 384), (512, 384), (512, 384), (512, 384), (512, 384), (512, 384), (512, 384), (512, 384), (509, 381), (488, 369), (477, 362), (468, 356), (458, 352), (439, 341), (427, 335), (416, 329), (408, 324), (390, 312), (381, 306), (371, 298), (363, 291), (345, 276), (340, 271), (334, 267), (329, 263), (321, 256), (319, 254), (317, 253), (316, 252), (316, 251), (315, 251), (315, 251), (315, 251), (315, 250), (315, 250), (315, 250), (315, 248), (314, 247), (313, 245), (313, 245), (313, 244), (312, 243), (312, 243), (312, 243), (312, 243), (312, 243), (312, 243), (312, 243), (311, 243), (309, 242), (309, 242), (309, 242), (308, 242), (307, 241), (307, 241), (307, 240)]",215.0857018997602,"[2, 7, 1, 6, 3, 9, 8, 5, 4]","(0, 0.25)",CHN008C,CHN,C,Chinese,Fri Oct 19 16:55:49 2018,Mouse
2,1,3,0,68,1,6,0,-730,540,190,139,0,500,200,8000,"[(512, 384), (512, 384), (512, 384), (512, 384), (512, 384), (512, 384), (512, 384), (512, 384), (512, 384), (512, 384), (512, 384), (512, 384), (512, 384), (512, 384), (512, 384), (512, 384), (512, 384), (512, 384), (512, 384), (512, 384), (512, 384), (512, 384), (512, 384), (512, 384), (512, 384), (512, 384), (512, 384), (512, 384), (512, 384), (512, 384), (512, 384), (512, 384), (512, 384), (512, 384), (512, 384), (512, 384), (512, 384), (512, 384), (512, 384), (512, 384), (512, 384), (512, 384), (512, 384), (512, 384), (512, 384), (512, 384), (512, 384), (512, 384), (512, 384), (512, 384), (512, 384), (512, 384), (512, 384), (512, 385), (511, 389), (507, 397), (502, 407), (491, 425), (485, 433), (480, 441), (476, 448), (466, 463), (461, 475), (454, 483), (449, 494), (432, 517), (424, 530), (417, 543), (408, 557), (394, 581), (388, 592), (383, 598), (382, 600)]",121.0417099254886,"[2, 7, 1, 6, 3, 9, 8, 5, 4]","(0, 0.25)",CHN008C,CHN,C,Chinese,Fri Oct 19 16:55:49 2018,Mouse
2,1,3,0,69,9,9,1,409,239,170,140,0,500,200,8000,"[(512, 384), (512, 384), (512, 384), (512, 384), (512, 384), (512, 384), (512, 384), (512, 384), (512, 384), (512, 384), (512, 384), (512, 384), (512, 384), (512, 384), (512, 384), (512, 384), (512, 384), (512, 384), (512, 384), (512, 384), (512, 384), (512, 384), (512, 384), (510, 380), (500, 359), (496, 349), (491, 340), (487, 330), (476, 314), (472, 305), (465, 297), (458, 286), (443, 268), (435, 258), (425, 246), (417, 236), (394, 207), (385, 197), (378, 187), (371, 180), (362, 172)]",234.71879220282563,"[2, 7, 1, 6, 3, 9, 8, 5, 4]","(0, 0.25)",CHN008C,CHN,C,Chinese,Fri Oct 19 16:55:49 2018,Mouse
2,1,3,0,70,4,4,1,340,200,140,140,0,500,200,8000,"[(512, 384), (512, 384), (512, 384), (512, 384), (512, 384), (512, 384), (512, 384), (512, 384), (512, 384), (512, 384), (512, 384), (512, 384), (512, 384), (512, 384), (512, 384), (512, 384), (512, 384), (512, 384), (512, 384), (513, 385), (515, 386), (517, 387), (524, 388), (530, 388), (537, 388), (544, 385), (569, 374), (586, 365), (605, 357), (626, 346), (653, 333), (711, 305), (743, 289), (773, 275)]",337.33338843776335,"[2, 7, 1, 6, 3, 9, 8, 5, 4]","(0, 0.25)",CHN008C,CHN,C,Chinese,Fri Oct 19 16:55:49 2018,Mouse
2,1,3,0,71,7,9,0,-1260,190,1070,139,0,500,200,8000,"[(512, 384), (512, 384), (512, 384), (512, 384), (512, 384), (512, 384), (512, 384), (512, 384), (512, 384), (512, 384), (512, 384), (512, 384), (512, 384), (512, 384), (512, 384), (512, 384), (512, 384), (512, 384), (515, 385), (518, 388), (520, 389), (520, 389), (521, 389), (521, 389), (522, 390), (522, 390), (522, 390), (522, 390), (522, 390), (522, 390), (522, 390), (523, 391), (526, 393), (528, 395), (529, 395), (529, 396), (529, 396), (529, 396), (529, 396), (530, 396), (530, 396), (530, 396), (530, 396), (530, 396), (530, 396), (530, 396), (530, 396), (530, 396), (530, 396), (530, 396), (530, 396), (530, 396), (530, 396), (530, 396), (530, 396), (530, 396), (530, 396), (530, 396), (530, 396), (530, 396), (530, 396), (530, 396), (530, 396), (530, 396), (530, 396), (530, 396), (530, 396), (530, 396), (530, 396), (530, 396), (530, 396), (530, 396), (530, 396), (530, 396), (530, 396), (530, 396), (530, 396), (530, 396), (530, 396), (530, 396), (530, 396), (530, 396), (530, 396), (530, 396), (530, 396), (530, 396), (530, 396), (530, 396), (530, 396), (530, 396), (530, 396), (530, 396), (530, 396), (530, 396), (530, 396), (530, 396), (530, 396), (530, 396), (530, 396), (530, 396), (530, 396), (530, 396), (530, 396), (530, 396), (530, 396), (530, 396), (530, 396), (530, 396), (530, 396), (530, 396), (530, 396), (530, 396), (530, 396), (530, 396), (530, 396), (530, 396), (530, 396), (530, 396), (530, 396), (527, 392), (500, 365), (472, 342), (436, 317), (397, 292), (311, 238), (275, 211)]",216.12786700708244,"[2, 7, 1, 6, 3, 9, 8, 5, 4]","(0, 0.25)",CHN008C,CHN,C,Chinese,Fri Oct 19 16:55:49 2018,Mouse
2,1,3,0,72,4,4,1,320,270,50,140,0,500,200,8000,"[(512, 384), (512, 384), (512, 384), (512, 384), (512, 384), (512, 384), (512, 384), (512, 384), (512, 384), (512, 384), (512, 384), (512, 384), (512, 384), (512, 384), (512, 384), (512, 384), (512, 384), (512, 384), (512, 384), (512, 384), (512, 384), (512, 384), (512, 384), (512, 384), (512, 384), (512, 384), (552, 371), (580, 365), (610, 356), (644, 346), (729, 325), (781, 315)]",345.61348102116585,"[2, 7, 1, 6, 3, 9, 8, 5, 4]","(0, 0.25)",CHN008C,CHN,C,Chinese,Fri Oct 19 16:55:49 2018,Mouse
2,1,3,0,73,2,9,0,-2528,2428,100,140,0,500,200,8000,"[(512, 384), (512, 384), (512, 384), (512, 384), (512, 384), (512, 384), (512, 384), (512, 384), (512, 384), (512, 384), (512, 384), (512, 384), (512, 384), (512, 384), (512, 384), (512, 384), (512, 384), (512, 384), (512, 384), (512, 384), (512, 384), (512, 384), (512, 384), (512, 384), (512, 384), (512, 384), (512, 384), (512, 384), (512, 384), (512, 384), (512, 384), (512, 384), (512, 384), (512, 384), (512, 384), (512, 384), (512, 384), (512, 384), (512, 384), (512, 384), (512, 384), (512, 384), (512, 384), (512, 384), (512, 384), (512, 384), (512, 384), (512, 384), (512, 384), (512, 384), (512, 384), (512, 384), (512, 384), (512, 384), (512, 384), (512, 384), (512, 384), (512, 384), (512, 384), (512, 384), (512, 384), (512, 384), (512, 384), (512, 384), (512, 384), (512, 384), (512, 384), (512, 384), (512, 384), (512, 384), (512, 384), (512, 384), (512, 384), (512, 384), (512, 384), (512, 384), (512, 384), (512, 384), (512, 384), (512, 384), (512, 384), (512, 384), (512, 384), (512, 384), (512, 384), (512, 384), (512, 384), (512, 384), (512, 384), (512, 384), (512, 384), (512, 384), (512, 384), (512, 384), (512, 384), (512, 384), (512, 384), (512, 384), (512, 384), (512, 384), (512, 384), (512, 384), (512, 384), (512, 384), (512, 384), (512, 384), (512, 384), (512, 384), (512, 384), (512, 384), (512, 384), (512, 384), (512, 384), (512, 384), (512, 384), (512, 384), (512, 384), (512, 384), (512, 384), (512, 384), (512, 384), (512, 384), (512, 384), (512, 384), (512, 384), (512, 384), (512, 384), (512, 384), (512, 384), (512, 384), (512, 384), (512, 384), (512, 384), (512, 384), (512, 384), (512, 384), (512, 384), (512, 384), (512, 384), (512, 384), (512, 384), (512, 384), (512, 384), (512, 384), (512, 384), (512, 384), (512, 384), (512, 384), (512, 384), (512, 384), (512, 384), (512, 384), (512, 384), (512, 384), (512, 384), (512, 384), (512, 384), (512, 384), (512, 384), (512, 384), (512, 384), (512, 384), (512, 384), (512, 384), (512, 384), (512, 384), (512, 384), (512, 384), (512, 384), (512, 384), (512, 384), (512, 384), (512, 384), (512, 384), (512, 384), (512, 384), (512, 384), (512, 384), (512, 384), (512, 384), (512, 384), (512, 384), (512, 384), (512, 384), (512, 384), (512, 384), (512, 384), (512, 384), (512, 384), (512, 384), (512, 384), (512, 384), (512, 384), (512, 384), (512, 384), (512, 384), (512, 384), (512, 384), (512, 384), (512, 384), (512, 384), (512, 384), (512, 384), (512, 384), (512, 384), (512, 384), (512, 384), (512, 384), (512, 384), (512, 384), (512, 384), (512, 384), (512, 384), (512, 384), (512, 384), (512, 384), (512, 384), (512, 384), (512, 384), (512, 384), (512, 384), (512, 384), (512, 384), (512, 384), (512, 384), (512, 384), (512, 384), (512, 384), (512, 384), (512, 384), (512, 384), (512, 384), (512, 384), (512, 384), (512, 384), (512, 384), (512, 384), (512, 384), (512, 384), (512, 384), (512, 384), (512, 384), (505, 384), (475, 376), (464, 372), (453, 366), (438, 357), (401, 332), (381, 318), (364, 303), (348, 289), (319, 254), (307, 235)]",216.01075145939845,"[2, 7, 1, 6, 3, 9, 8, 5, 4]","(0, 0.25)",CHN008C,CHN,C,Chinese,Fri Oct 19 16:55:49 2018,Mouse
2,1,3,0,74,3,3,1,729,679,50,141,0,500,200,8000,"[(512, 384), (512, 384), (512, 384), (512, 384), (512, 384), (512, 384), (512, 384), (512, 384), (512, 384), (512, 384), (512, 384), (512, 384), (512, 384), (512, 384), (512, 384), (512, 384), (512, 384), (512, 384), (512, 384), (512, 384), (512, 384), (512, 384), (512, 384), (512, 384), (512, 384), (512, 384), (512, 384), (512, 384), (512, 384), (512, 384), (512, 384), (512, 384), (512, 384), (512, 384), (512, 384), (512, 384), (512, 384), (512, 384), (512, 384), (512, 384), (512, 384), (512, 384), (512, 384), (512, 384), (512, 384), (512, 384), (512, 384), (512, 384), (512, 384), (512, 384), (512, 384), (512, 384), (512, 384), (512, 384), (512, 384), (512, 384), (512, 384), (512, 384), (512, 384), (512, 384), (512, 384), (512, 384), (512, 384), (512, 384), (512, 384), (512, 384), (512, 384), (510, 384), (497, 382), (465, 378), (371, 378), (307, 378), (233, 378)]",181.23197740263973,"[2, 7, 1, 6, 3, 9, 8, 5, 4]","(0, 0.25)",CHN008C,CHN,C,Chinese,Fri Oct 19 16:55:49 2018,Mouse
2,1,3,0,75,7,7,1,359,259,100,141,0,500,200,8000,"[(512, 384), (512, 384), (512, 384), (512, 384), (512, 384), (512, 384), (512, 384), (512, 384), (512, 384), (512, 384), (512, 384), (512, 384), (512, 384), (512, 384), (512, 384), (512, 384), (512, 384), (512, 384), (512, 384), (512, 384), (512, 384), (512, 384), (512, 384), (512, 384), (512, 384), (516, 387), (521, 392), (525, 400), (540, 422), (548, 435), (561, 452), (574, 476), (600, 527), (613, 559), (624, 588), (638, 617)]",61.59669500660415,"[2, 7, 1, 6, 3, 9, 8, 5, 4]","(0, 0.25)",CHN008C,CHN,C,Chinese,Fri Oct 19 16:55:49 2018,Mouse
2,1,3,0,76,7,7,1,228,128,100,140,0,500,200,8000,"[(512, 384), (512, 384), (512, 384), (512, 384), (512, 384), (512, 384), (512, 384), (512, 384), (512, 384), (512, 384), (512, 384), (512, 384), (514, 387), (520, 394), (524, 400), (528, 409), (542, 430), (553, 447), (567, 469), (583, 489), (619, 545), (640, 570), (662, 601)]",55.34605656440228,"[2, 7, 1, 6, 3, 9, 8, 5, 4]","(0, 0.25)",CHN008C,CHN,C,Chinese,Fri Oct 19 16:55:49 2018,Mouse
2,1,3,0,77,3,3,1,691,601,90,139,0,500,200,8000,"[(512, 384), (512, 384), (512, 384), (512, 384), (512, 384), (512, 384), (512, 384), (512, 384), (512, 384), (512, 384), (512, 384), (512, 384), (512, 384), (512, 384), (512, 384), (512, 384), (512, 384), (512, 384), (512, 384), (512, 384), (512, 384), (512, 384), (512, 384), (512, 384), (512, 384), (512, 384), (512, 384), (512, 384), (512, 384), (512, 384), (512, 384), (512, 384), (512, 384), (512, 384), (512, 384), (512, 384), (512, 384), (512, 384), (512, 384), (512, 384), (512, 384), (512, 384), (512, 384), (512, 384), (512, 384), (512, 384), (512, 384), (512, 384), (512, 384), (512, 384), (512, 384), (512, 384), (512, 384), (512, 384), (512, 384), (512, 384), (512, 384), (512, 384), (512, 384), (512, 384), (505, 383), (492, 383), (458, 382), (436, 382), (413, 381), (387, 379), (330, 378), (299, 376), (274, 375), (248, 375)]",181.9525090493996,"[2, 7, 1, 6, 3, 9, 8, 5, 4]","(0, 0.25)",CHN008C,CHN,C,Chinese,Fri Oct 19 16:55:49 2018,Mouse
2,1,3,0,78,8,6,0,-3678,3578,100,138,0,500,200,8000,"[(512, 384), (512, 384), (512, 384), (512, 384), (512, 384), (512, 384), (512, 384), (512, 384), (512, 384), (512, 384), (512, 384), (512, 384), (512, 384), (512, 384), (512, 384), (512, 384), (512, 384), (512, 384), (512, 384), (512, 384), (512, 384), (512, 384), (512, 384), (512, 384), (512, 384), (512, 384), (512, 384), (512, 384), (512, 384), (512, 384), (512, 384), (512, 384), (512, 384), (512, 384), (512, 384), (512, 384), (512, 384), (512, 384), (512, 384), (512, 384), (512, 384), (512, 384), (512, 384), (512, 384), (512, 384), (512, 384), (512, 384), (512, 384), (512, 384), (512, 384), (512, 384), (512, 384), (512, 384), (512, 384), (512, 384), (512, 384), (512, 384), (512, 384), (512, 384), (512, 384), (512, 384), (512, 384), (512, 384), (512, 384), (512, 384), (512, 384), (512, 384), (512, 384), (512, 384), (512, 384), (512, 384), (512, 384), (512, 384), (512, 384), (512, 384), (512, 384), (512, 384), (512, 384), (512, 384), (512, 384), (512, 384), (512, 384), (512, 384), (512, 384), (512, 384), (512, 384), (512, 384), (512, 384), (512, 384), (512, 384), (512, 384), (512, 384), (512, 384), (512, 384), (512, 384), (512, 384), (512, 384), (512, 384), (512, 384), (512, 384), (512, 384), (512, 384), (512, 384), (512, 384), (512, 384), (512, 384), (512, 384), (512, 384), (512, 384), (512, 384), (512, 384), (512, 384), (512, 384), (512, 384), (512, 384), (512, 384), (512, 384), (512, 384), (512, 384), (512, 384), (512, 384), (512, 384), (512, 384), (512, 384), (512, 384), (512, 384), (512, 384), (512, 384), (512, 384), (512, 384), (512, 384), (512, 384), (512, 384), (512, 384), (512, 384), (512, 384), (512, 384), (512, 384), (512, 384), (512, 384), (512, 384), (512, 384), (512, 384), (512, 384), (512, 384), (512, 384), (512, 384), (512, 384), (512, 384), (512, 384), (512, 384), (512, 384), (512, 384), (512, 384), (512, 384), (512, 384), (512, 384), (512, 384), (512, 384), (512, 384), (512, 384), (512, 384), (512, 384), (512, 384), (512, 384), (512, 384), (512, 384), (512, 384), (512, 384), (512, 384), (512, 384), (512, 384), (512, 384), (512, 384), (512, 384), (512, 384), (512, 384), (512, 384), (512, 384), (512, 384), (512, 384), (512, 384), (512, 384), (512, 384), (512, 384), (512, 384), (512, 384), (512, 384), (512, 384), (512, 384), (512, 384), (512, 384), (512, 384), (512, 384), (512, 384), (512, 384), (512, 384), (512, 384), (512, 384), (512, 384), (512, 384), (512, 384), (512, 384), (512, 384), (512, 384), (512, 384), (512, 384), (512, 384), (512, 384), (512, 384), (512, 384), (512, 384), (512, 384), (512, 384), (512, 384), (512, 384), (512, 384), (512, 384), (512, 384), (512, 384), (512, 384), (512, 384), (512, 384), (512, 384), (512, 384), (512, 384), (512, 384), (512, 384), (512, 384), (512, 384), (512, 384), (512, 384), (512, 384), (512, 384), (512, 384), (512, 384), (512, 384), (512, 384), (512, 384), (512, 384), (512, 384), (512, 384), (512, 384), (512, 384), (512, 384), (512, 384), (512, 384), (512, 384), (512, 384), (512, 384), (512, 384), (512, 384), (512, 384), (512, 384), (512, 384), (512, 384), (512, 384), (512, 384), (512, 384), (512, 384), (512, 384), (512, 384), (512, 384), (512, 384), (512, 384), (512, 384), (512, 384), (512, 384), (512, 384), (512, 384), (512, 384), (512, 384), (512, 384), (512, 384), (512, 384), (512, 384), (512, 384), (512, 384), (512, 384), (512, 384), (512, 384), (512, 384), (512, 384), (512, 384), (512, 384), (512, 384), (512, 384), (512, 384), (512, 384), (512, 384), (512, 384), (512, 384), (512, 384), (512, 384), (512, 384), (512, 384), (512, 384), (512, 384), (512, 384), (512, 384), (512, 384), (512, 384), (512, 384), (512, 384), (512, 384), (512, 384), (512, 384), (512, 384), (512, 384), (512, 384), (512, 384), (512, 384), (512, 384), (512, 384), (512, 384), (512, 384), (512, 384), (512, 384), (512, 384), (512, 384), (512, 384), (512, 384), (512, 384), (512, 384), (512, 384), (512, 384), (512, 384), (512, 384), (512, 384), (512, 384), (512, 384), (512, 384), (512, 384), (512, 384), (512, 384), (512, 384), (512, 384), (512, 384), (512, 384), (512, 384), (512, 384), (512, 384), (512, 384), (512, 384), (512, 384), (512, 384), (512, 384), (512, 384), (512, 384), (512, 384), (512, 384), (512, 384), (512, 384), (512, 384), (512, 384), (512, 384), (512, 384), (509, 387), (500, 398), (482, 413), (466, 427), (437, 452), (419, 465), (396, 485), (379, 498), (338, 529), (319, 542), (299, 554)]",141.40586023235673,"[2, 7, 1, 6, 3, 9, 8, 5, 4]","(0, 0.25)",CHN008C,CHN,C,Chinese,Fri Oct 19 16:55:49 2018,Mouse
2,1,3,0,79,4,4,1,318,258,60,139,0,500,200,8000,"[(512, 384), (512, 384), (512, 384), (512, 384), (512, 384), (512, 384), (512, 384), (512, 384), (512, 384), (512, 384), (512, 384), (512, 384), (512, 384), (512, 384), (512, 384), (512, 384), (512, 384), (512, 384), (512, 384), (512, 384), (512, 384), (512, 384), (512, 384), (512, 384), (512, 384), (528, 380), (544, 369), (569, 353), (595, 330), (665, 281), (701, 252), (743, 224)]",325.29195072747734,"[2, 7, 1, 6, 3, 9, 8, 5, 4]","(0, 0.25)",CHN008C,CHN,C,Chinese,Fri Oct 19 16:55:49 2018,Mouse
2,1,3,0,80,9,9,1,759,689,70,139,0,500,200,8000,"[(512, 384), (512, 384), (512, 384), (512, 384), (512, 384), (512, 384), (512, 384), (512, 384), (512, 384), (512, 384), (512, 384), (512, 384), (512, 384), (512, 384), (512, 384), (512, 384), (512, 384), (512, 384), (512, 384), (512, 384), (512, 384), (512, 384), (512, 384), (512, 384), (512, 384), (512, 384), (512, 384), (512, 384), (512, 384), (512, 384), (512, 384), (512, 384), (512, 384), (512, 384), (512, 384), (512, 384), (512, 384), (512, 384), (512, 384), (512, 384), (512, 384), (512, 384), (512, 384), (512, 384), (512, 384), (512, 384), (512, 384), (512, 384), (512, 384), (512, 384), (512, 384), (512, 384), (512, 384), (512, 384), (512, 384), (512, 384), (512, 384), (512, 384), (512, 384), (512, 384), (512, 384), (512, 384), (512, 384), (512, 384), (512, 384), (512, 384), (512, 384), (512, 384), (497, 376), (480, 363), (461, 353), (436, 339), (385, 299), (355, 280), (325, 262), (295, 244)]",212.8285417914125,"[2, 7, 1, 6, 3, 9, 8, 5, 4]","(0, 0.25)",CHN008C,CHN,C,Chinese,Fri Oct 19 16:55:49 2018,Mouse
2,1,3,0,81,2,2,1,418,328,90,138,0,500,200,8000,"[(512, 384), (512, 384), (512, 384), (512, 384), (512, 384), (512, 384), (512, 384), (512, 384), (512, 384), (512, 384), (512, 384), (512, 384), (512, 384), (512, 384), (512, 384), (512, 384), (512, 384), (512, 384), (512, 384), (512, 384), (512, 384), (512, 384), (512, 384), (512, 384), (512, 384), (512, 384), (512, 384), (512, 384), (512, 384), (512, 384), (512, 384), (512, 384), (515, 385), (523, 391), (532, 395), (541, 401), (564, 415), (585, 423), (615, 439), (652, 456), (733, 499), (776, 518)]",26.911245027538953,"[2, 7, 1, 6, 3, 9, 8, 5, 4]","(0, 0.25)",CHN008C,CHN,C,Chinese,Fri Oct 19 16:55:49 2018,Mouse
2,1,3,0,82,8,8,1,279,209,70,137,0,500,200,8000,"[(512, 384), (512, 384), (512, 384), (512, 384), (512, 384), (512, 384), (512, 384), (512, 384), (512, 384), (512, 384), (512, 384), (512, 384), (512, 384), (512, 384), (512, 384), (512, 384), (512, 384), (512, 384), (512, 384), (512, 384), (511, 383), (505, 370), (486, 311), (476, 280), (471, 247), (464, 220), (451, 160), (448, 128)]",255.96375653207352,"[2, 7, 1, 6, 3, 9, 8, 5, 4]","(0, 0.25)",CHN008C,CHN,C,Chinese,Fri Oct 19 16:55:49 2018,Mouse
2,1,3,0,83,4,4,1,299,239,60,136,0,500,200,8000,"[(512, 384), (512, 384), (512, 384), (512, 384), (512, 384), (512, 384), (512, 384), (512, 384), (512, 384), (512, 384), (512, 384), (512, 384), (512, 384), (512, 384), (512, 384), (512, 384), (512, 384), (512, 384), (512, 384), (512, 384), (512, 384), (512, 384), (512, 384), (515, 383), (533, 378), (562, 368), (628, 341), (667, 330), (708, 317), (754, 309)]",342.78088394303666,"[2, 7, 1, 6, 3, 9, 8, 5, 4]","(0, 0.25)",CHN008C,CHN,C,Chinese,Fri Oct 19 16:55:49 2018,Mouse
2,1,3,0,84,6,6,1,1028,908,120,135,0,500,200,8000,"[(512, 384), (512, 384), (512, 384), (512, 384), (512, 384), (512, 384), (512, 384), (512, 384), (512, 384), (512, 384), (512, 384), (512, 384), (512, 384), (512, 384), (512, 384), (512, 384), (512, 384), (512, 384), (512, 384), (512, 384), (512, 384), (512, 384), (512, 384), (512, 384), (512, 384), (512, 384), (512, 384), (512, 384), (512, 384), (512, 384), (512, 384), (512, 384), (512, 384), (512, 384), (512, 384), (512, 384), (512, 384), (512, 384), (512, 384), (512, 384), (512, 384), (512, 384), (512, 384), (512, 384), (512, 384), (512, 384), (512, 384), (512, 384), (512, 384), (512, 384), (512, 384), (512, 384), (512, 384), (512, 384), (512, 384), (512, 384), (512, 384), (512, 384), (512, 384), (512, 384), (512, 384), (512, 384), (512, 384), (512, 384), (512, 384), (512, 384), (512, 384), (512, 384), (512, 384), (512, 384), (512, 384), (512, 384), (512, 384), (512, 384), (512, 384), (512, 384), (512, 384), (512, 384), (512, 384), (512, 384), (512, 384), (512, 384), (512, 384), (512, 384), (512, 384), (512, 384), (512, 384), (512, 384), (512, 384), (512, 384), (512, 385), (509, 390), (505, 396), (485, 414), (475, 425), (465, 435), (452, 449), (417, 484), (396, 503), (378, 518), (361, 533), (333, 556), (321, 566)]",136.38220369669696,"[2, 7, 1, 6, 3, 9, 8, 5, 4]","(0, 0.25)",CHN008C,CHN,C,Chinese,Fri Oct 19 16:55:49 2018,Mouse
2,1,3,0,85,6,9,0,-289,209,80,134,0,500,200,8000,"[(512, 384), (512, 384), (512, 384), (512, 384), (512, 384), (512, 384), (512, 384), (512, 384), (512, 384), (512, 384), (512, 384), (512, 384), (512, 384), (512, 384), (512, 384), (512, 384), (512, 384), (512, 384), (512, 384), (512, 384), (508, 381), (492, 370), (438, 326), (417, 307), (397, 286), (368, 257), (351, 238), (339, 229), (321, 212)]",222.0037815466888,"[2, 7, 1, 6, 3, 9, 8, 5, 4]","(0, 0.25)",CHN008C,CHN,C,Chinese,Fri Oct 19 16:55:49 2018,Mouse
2,1,3,0,86,9,9,1,208,128,80,135,0,500,200,8000,"[(512, 384), (512, 384), (512, 384), (512, 384), (512, 384), (512, 384), (512, 384), (512, 384), (512, 384), (512, 384), (512, 384), (512, 384), (511, 384), (505, 377), (491, 361), (467, 341), (419, 292), (394, 263), (367, 237), (342, 210), (282, 163)]",223.85677698094258,"[2, 7, 1, 6, 3, 9, 8, 5, 4]","(0, 0.25)",CHN008C,CHN,C,Chinese,Fri Oct 19 16:55:49 2018,Mouse
2,1,3,0,87,6,6,1,469,389,80,135,0,500,200,8000,"[(512, 384), (512, 384), (512, 384), (512, 384), (512, 384), (512, 384), (512, 384), (512, 384), (512, 384), (512, 384), (512, 384), (512, 384), (512, 384), (512, 384), (512, 384), (512, 384), (512, 384), (512, 384), (512, 384), (512, 384), (512, 384), (512, 384), (512, 384), (512, 384), (512, 384), (512, 384), (512, 384), (512, 384), (512, 384), (512, 384), (512, 384), (512, 384), (512, 384), (512, 384), (512, 384), (512, 384), (512, 384), (512, 384), (509, 389), (493, 415), (482, 432), (470, 454), (453, 479), (420, 529), (405, 551), (387, 577), (373, 596)]",123.25126816569967,"[2, 7, 1, 6, 3, 9, 8, 5, 4]","(0, 0.25)",CHN008C,CHN,C,Chinese,Fri Oct 19 16:55:49 2018,Mouse
2,1,3,0,88,5,9,0,-780,690,90,134,0,500,200,8000,"[(512, 384), (512, 384), (512, 384), (512, 384), (512, 384), (512, 384), (512, 384), (512, 384), (512, 384), (512, 384), (512, 384), (512, 384), (512, 384), (512, 384), (512, 384), (512, 384), (512, 384), (512, 384), (512, 384), (512, 384), (512, 384), (512, 384), (512, 384), (512, 384), (512, 384), (512, 384), (512, 384), (512, 384), (512, 384), (512, 384), (512, 384), (512, 384), (512, 384), (512, 384), (512, 384), (512, 384), (512, 384), (512, 384), (512, 384), (512, 384), (512, 384), (512, 384), (512, 384), (512, 384), (512, 384), (512, 384), (512, 384), (512, 384), (512, 384), (512, 384), (512, 384), (512, 384), (512, 384), (512, 384), (512, 384), (512, 384), (512, 384), (512, 384), (512, 384), (512, 384), (512, 384), (512, 384), (512, 384), (512, 384), (512, 384), (512, 384), (512, 384), (512, 384), (509, 381), (505, 375), (501, 369), (494, 360), (477, 336), (457, 315), (431, 290), (404, 266), (350, 222), (327, 204)]",224.21517539700812,"[2, 7, 1, 6, 3, 9, 8, 5, 4]","(0, 0.25)",CHN008C,CHN,C,Chinese,Fri Oct 19 16:55:49 2018,Mouse
2,1,3,0,89,8,6,0,-1468,438,1030,135,0,500,200,8000,"[(512, 384), (512, 384), (512, 384), (512, 384), (512, 384), (512, 384), (512, 384), (512, 384), (512, 384), (512, 384), (512, 384), (512, 384), (512, 384), (512, 384), (512, 384), (512, 384), (512, 384), (512, 384), (512, 384), (512, 384), (512, 384), (512, 384), (512, 384), (512, 384), (512, 384), (512, 384), (512, 384), (512, 384), (512, 384), (512, 384), (512, 384), (512, 384), (512, 384), (512, 384), (512, 384), (512, 384), (512, 384), (512, 384), (512, 384), (512, 384), (512, 384), (512, 384), (512, 384), (513, 385), (514, 386), (515, 386), (515, 387), (516, 387), (516, 387), (516, 387), (512, 386), (511, 386), (511, 385), (511, 385), (511, 385), (511, 385), (511, 385), (511, 385), (511, 385), (511, 385), (511, 385), (511, 385), (511, 385), (511, 385), (511, 385), (511, 385), (511, 385), (511, 385), (511, 385), (511, 385), (511, 385), (511, 385), (511, 385), (511, 385), (511, 385), (511, 385), (511, 385), (511, 385), (511, 385), (511, 385), (511, 385), (511, 385), (511, 385), (511, 385), (511, 385), (511, 385), (511, 385), (511, 385), (511, 385), (511, 385), (511, 385), (511, 385), (511, 385), (511, 385), (511, 385), (511, 385), (511, 385), (511, 385), (511, 385), (511, 385), (511, 385), (511, 385), (511, 385), (511, 385), (511, 385), (511, 385), (511, 385), (511, 385), (511, 385), (511, 385), (511, 385), (511, 385), (511, 385), (511, 385), (511, 385), (511, 385), (509, 385), (507, 387), (503, 389), (502, 389), (502, 389), (501, 389), (499, 389), (499, 389), (498, 389), (498, 389), (497, 389), (497, 389), (497, 389), (497, 389), (497, 389), (497, 389), (497, 389), (497, 389), (492, 393), (489, 398), (485, 408), (478, 417), (463, 440), (454, 451), (441, 463), (430, 476), (397, 512), (383, 527), (367, 543), (353, 559), (327, 587)]",132.34385279604288,"[2, 7, 1, 6, 3, 9, 8, 5, 4]","(0, 0.25)",CHN008C,CHN,C,Chinese,Fri Oct 19 16:55:49 2018,Mouse
