NativeLangNumber,LanuageNumber,SessionNumber,Block,TrialNum,ConditionNumber,Response,Accuracy,RT,MovementOnsetTime,TimeInMotion,SignalContrast,SignalContrastNumber,StimDisplayTime,MaskTime,MaxResponseTime,MousePositionXY,MouseAngle,WheelOrder,NoiseMuSigma,ParticipantID,LanuageTested,SessionTested,NativeLanuage,Date,ResponseDevice
1,1,1,0,1,5,5,1,857,697,160,153,0,500,200,8000,"[(960, 540), (960, 540), (960, 540), (960, 540), (960, 540), (960, 540), (960, 540), (960, 540), (960, 540), (960, 540), (960, 540), (960, 540), (960, 540), (960, 540), (960, 540), (960, 540), (960, 540), (960, 540), (960, 540), (960, 540), (960, 540), (960, 540), (960, 540), (960, 540), (960, 540), (960, 540), (960, 540), (960, 540), (960, 540), (960, 540), (960, 540), (960, 540), (960, 540), (960, 540), (960, 540), (960, 540), (960, 540), (960, 540), (960, 540), (960, 540), (960, 540), (960, 540), (960, 540), (960, 540), (960, 540), (960, 540), (960, 540), (960, 540), (960, 540), (960, 540), (960, 540), (960, 540), (960, 540), (960, 540), (960, 540), (960, 540), (960, 540), (960, 540), (960, 540), (960, 540), (960, 540), (960, 540), (960, 540), (960, 540), (960, 540), (960, 540), (960, 540), (960, 540), (960, 540), (958, 540), (945, 570), (938, 585), (934, 599), (929, 612), (924, 640), (922, 661), (915, 685), (912, 712), (891, 784), (880, 818), (873, 845), (871, 864), (866, 894), (865, 908), (864, 922), (860, 935)]",104.20676611776037,"[8, 4, 5, 1, 6, 2, 7, 9, 3]","(0, 0.25)",CHN001A,CHN,A,English,Thu Aug 02 14:59:19 2018,Mouse
1,1,1,0,2,2,2,1,629,319,310,153,0,500,200,8000,"[(960, 540), (960, 540), (960, 540), (960, 540), (960, 540), (960, 540), (960, 540), (960, 540), (960, 540), (960, 540), (960, 540), (960, 540), (960, 540), (960, 540), (960, 540), (960, 540), (960, 540), (960, 540), (960, 540), (960, 540), (960, 540), (960, 540), (960, 540), (960, 540), (960, 540), (960, 540), (960, 540), (960, 540), (960, 540), (960, 540), (960, 540), (960, 539), (960, 539), (959, 539), (958, 539), (957, 539), (957, 539), (957, 539), (957, 539), (957, 539), (957, 539), (957, 539), (957, 539), (957, 539), (957, 539), (957, 539), (957, 539), (957, 539), (957, 539), (957, 539), (957, 539), (948, 529), (938, 517), (923, 497), (902, 478), (850, 434), (830, 419), (804, 398), (776, 377), (720, 339), (689, 315), (661, 296), (633, 276)]",218.91530613473122,"[8, 4, 5, 1, 6, 2, 7, 9, 3]","(0, 0.25)",CHN001A,CHN,A,English,Thu Aug 02 14:59:19 2018,Mouse
1,1,1,0,3,2,2,1,461,81,380,152,0,500,200,8000,"[(960, 540), (960, 540), (960, 540), (960, 540), (960, 540), (960, 540), (960, 540), (960, 540), (956, 540), (951, 540), (947, 540), (942, 539), (933, 539), (929, 538), (926, 538), (925, 537), (923, 537), (923, 537), (923, 537), (923, 537), (923, 537), (923, 537), (923, 537), (923, 537), (923, 537), (923, 537), (923, 537), (923, 537), (923, 537), (923, 537), (923, 537), (923, 537), (923, 537), (920, 535), (918, 528), (913, 515), (897, 478), (875, 450), (856, 422), (832, 391), (787, 347), (763, 325), (740, 307), (722, 290), (695, 267), (687, 260), (679, 254)]",225.50524069149427,"[8, 4, 5, 1, 6, 2, 7, 9, 3]","(0, 0.25)",CHN001A,CHN,A,English,Thu Aug 02 14:59:19 2018,Mouse
1,1,1,0,4,3,3,1,959,539,420,151,0,500,200,8000,"[(960, 540), (960, 540), (960, 540), (960, 540), (960, 540), (960, 540), (960, 540), (960, 540), (960, 540), (960, 540), (960, 540), (960, 540), (960, 540), (960, 540), (960, 540), (960, 540), (960, 540), (960, 540), (960, 540), (960, 540), (960, 540), (960, 540), (960, 540), (960, 540), (960, 540), (960, 540), (960, 540), (960, 540), (960, 540), (960, 540), (960, 540), (960, 540), (960, 540), (960, 540), (960, 540), (960, 540), (960, 540), (960, 540), (960, 540), (960, 540), (960, 540), (960, 540), (960, 540), (960, 540), (960, 540), (960, 540), (960, 540), (960, 540), (960, 540), (960, 540), (960, 540), (960, 540), (960, 540), (969, 538), (984, 530), (1002, 521), (1034, 508), (1045, 506), (1056, 503), (1069, 498), (1092, 491), (1111, 483), (1135, 472), (1162, 457), (1206, 430), (1223, 424), (1237, 420), (1248, 416), (1267, 409), (1275, 406), (1281, 405), (1287, 404), (1296, 399), (1296, 399), (1298, 399), (1298, 398), (1298, 398), (1298, 398), (1298, 398), (1298, 398), (1298, 398), (1298, 398), (1298, 398), (1298, 398), (1298, 397), (1297, 397), (1297, 397), (1297, 397), (1297, 397), (1297, 397), (1296, 396), (1296, 395), (1306, 388), (1315, 384), (1323, 381), (1332, 376)]",336.2092261342228,"[8, 4, 5, 1, 6, 2, 7, 9, 3]","(0, 0.25)",CHN001A,CHN,A,English,Thu Aug 02 14:59:19 2018,Mouse
1,1,1,0,5,4,4,1,910,760,150,150,0,500,200,8000,"[(960, 540), (960, 540), (960, 540), (960, 540), (960, 540), (960, 540), (960, 540), (960, 540), (960, 540), (960, 540), (960, 540), (960, 540), (960, 540), (960, 540), (960, 540), (960, 540), (960, 540), (960, 540), (960, 540), (960, 540), (960, 540), (960, 540), (960, 540), (960, 540), (960, 540), (960, 540), (960, 540), (960, 540), (960, 540), (960, 540), (960, 540), (960, 540), (960, 540), (960, 540), (960, 540), (960, 540), (960, 540), (960, 540), (960, 540), (960, 540), (960, 540), (960, 540), (960, 540), (960, 540), (960, 540), (960, 540), (960, 540), (960, 540), (960, 540), (960, 540), (960, 540), (960, 540), (960, 540), (960, 540), (960, 540), (960, 540), (960, 540), (960, 540), (960, 540), (960, 540), (960, 540), (960, 540), (960, 540), (960, 540), (960, 540), (960, 540), (960, 540), (960, 540), (960, 540), (960, 540), (960, 540), (960, 540), (960, 540), (960, 540), (960, 540), (960, 542), (960, 547), (960, 555), (961, 566), (967, 595), (971, 612), (974, 624), (981, 637), (1002, 673), (1020, 700), (1032, 729), (1046, 763), (1078, 838), (1092, 870), (1103, 893), (1116, 918)]",67.5741380786482,"[8, 4, 5, 1, 6, 2, 7, 9, 3]","(0, 0.25)",CHN001A,CHN,A,English,Thu Aug 02 14:59:19 2018,Mouse
1,1,1,0,6,3,3,1,950,360,590,149,0,500,200,8000,"[(960, 540), (960, 540), (960, 540), (960, 540), (960, 540), (960, 540), (960, 540), (960, 540), (960, 540), (960, 540), (960, 540), (960, 540), (960, 540), (960, 540), (960, 540), (960, 540), (960, 540), (960, 540), (960, 540), (960, 540), (960, 540), (960, 540), (960, 540), (960, 540), (960, 540), (960, 540), (960, 540), (960, 540), (960, 540), (960, 540), (960, 540), (960, 540), (960, 540), (960, 540), (960, 540), (955, 526), (952, 513), (942, 498), (935, 487), (924, 472), (919, 466), (915, 463), (913, 460), (907, 457), (907, 457), (905, 455), (900, 453), (888, 443), (877, 433), (862, 413), (845, 395), (794, 357), (776, 349), (752, 336), (740, 329), (718, 317), (708, 311), (702, 307), (699, 304), (697, 303), (697, 303), (697, 303), (697, 303), (697, 303), (697, 303), (697, 303), (697, 303), (698, 303), (702, 304), (706, 306), (711, 308), (726, 317), (739, 322), (758, 332), (781, 341), (841, 367), (881, 384), (923, 396), (951, 404), (1018, 423), (1044, 428), (1071, 431), (1100, 436), (1151, 436), (1176, 436), (1205, 432), (1231, 424), (1262, 407), (1271, 399), (1280, 391), (1287, 388), (1305, 381), (1314, 378), (1325, 377), (1334, 375)]",336.1940564815423,"[8, 4, 5, 1, 6, 2, 7, 9, 3]","(0, 0.25)",CHN001A,CHN,A,English,Thu Aug 02 14:59:19 2018,Mouse
1,1,1,0,7,2,2,1,479,39,440,148,0,500,200,8000,"[(960, 540), (960, 540), (960, 540), (959, 540), (959, 540), (959, 540), (959, 540), (959, 540), (959, 540), (959, 540), (959, 540), (959, 540), (959, 540), (959, 540), (959, 540), (959, 540), (959, 540), (959, 540), (959, 540), (959, 540), (959, 540), (959, 540), (959, 540), (958, 540), (958, 540), (958, 540), (958, 540), (958, 540), (958, 541), (956, 542), (955, 543), (950, 546), (950, 547), (948, 548), (948, 548), (946, 548), (943, 548), (939, 548), (929, 546), (891, 521), (872, 503), (854, 470), (839, 425), (807, 330), (781, 286), (756, 248), (728, 216), (653, 149)]",231.86219351566527,"[8, 4, 5, 1, 6, 2, 7, 9, 3]","(0, 0.25)",CHN001A,CHN,A,English,Thu Aug 02 14:59:19 2018,Mouse
1,1,1,0,8,9,9,1,1140,540,600,147,0,500,200,8000,"[(960, 540), (960, 540), (960, 540), (960, 540), (960, 540), (960, 540), (960, 540), (960, 540), (960, 540), (960, 540), (960, 540), (960, 540), (960, 540), (960, 540), (960, 540), (960, 540), (960, 540), (960, 540), (960, 540), (960, 540), (960, 540), (960, 540), (960, 540), (960, 540), (960, 540), (960, 540), (960, 540), (960, 540), (960, 540), (960, 540), (960, 540), (960, 540), (960, 540), (960, 540), (960, 540), (960, 540), (960, 540), (960, 540), (960, 540), (960, 540), (960, 540), (960, 540), (960, 540), (960, 540), (960, 540), (960, 540), (960, 540), (960, 540), (960, 540), (960, 540), (960, 540), (960, 540), (960, 540), (960, 542), (948, 568), (944, 582), (940, 593), (938, 602), (937, 607), (937, 608), (937, 608), (937, 608), (937, 608), (937, 608), (937, 608), (937, 608), (937, 608), (937, 608), (937, 608), (937, 608), (939, 604), (940, 603), (940, 601), (940, 601), (942, 598), (942, 598), (942, 598), (942, 597), (943, 595), (943, 594), (943, 594), (944, 592), (945, 591), (945, 590), (945, 590), (945, 588), (945, 588), (945, 588), (945, 588), (945, 588), (945, 588), (945, 588), (945, 588), (945, 588), (945, 588), (945, 588), (945, 588), (945, 588), (945, 588), (945, 588), (945, 588), (945, 588), (945, 588), (945, 587), (945, 585), (949, 579), (965, 535), (975, 493), (988, 449), (1002, 399), (1037, 291), (1058, 237), (1084, 193), (1096, 159)]",289.64429699137804,"[8, 4, 5, 1, 6, 2, 7, 9, 3]","(0, 0.25)",CHN001A,CHN,A,English,Thu Aug 02 14:59:19 2018,Mouse
1,1,1,0,9,9,9,1,751,381,370,146,0,500,200,8000,"[(960, 540), (960, 540), (960, 540), (960, 540), (960, 540), (960, 540), (960, 540), (960, 540), (960, 540), (960, 540), (960, 540), (960, 540), (960, 540), (960, 540), (960, 540), (960, 540), (960, 540), (960, 540), (960, 540), (960, 540), (960, 540), (960, 540), (960, 540), (960, 540), (960, 540), (960, 540), (960, 540), (960, 540), (960, 540), (960, 540), (960, 540), (960, 540), (960, 540), (960, 540), (960, 540), (960, 540), (960, 540), (960, 540), (960, 541), (959, 541), (957, 542), (955, 543), (955, 543), (953, 544), (951, 544), (951, 544), (951, 544), (951, 544), (951, 544), (951, 544), (951, 544), (951, 544), (951, 544), (951, 544), (951, 544), (951, 544), (951, 544), (951, 544), (951, 544), (951, 544), (951, 544), (951, 544), (951, 544), (951, 544), (951, 544), (955, 535), (968, 514), (983, 487), (1004, 435), (1018, 405), (1028, 374), (1038, 346), (1070, 287), (1091, 248), (1119, 199), (1144, 166)]",296.1961993230378,"[8, 4, 5, 1, 6, 2, 7, 9, 3]","(0, 0.25)",CHN001A,CHN,A,English,Thu Aug 02 14:59:19 2018,Mouse
1,1,1,0,10,1,1,1,710,230,480,145,0,500,200,8000,"[(960, 540), (960, 540), (960, 540), (960, 540), (960, 540), (960, 540), (960, 540), (960, 540), (960, 540), (960, 540), (960, 540), (960, 540), (960, 540), (960, 540), (960, 540), (960, 540), (960, 540), (960, 540), (960, 540), (960, 540), (960, 540), (960, 540), (959, 540), (958, 542), (958, 542), (958, 542), (958, 542), (958, 542), (958, 542), (958, 542), (958, 542), (958, 542), (958, 542), (958, 542), (958, 542), (958, 542), (958, 542), (958, 542), (958, 542), (958, 542), (958, 542), (958, 542), (958, 542), (958, 542), (958, 542), (958, 542), (958, 542), (958, 542), (958, 542), (958, 542), (958, 542), (958, 542), (958, 542), (958, 542), (958, 542), (958, 542), (958, 542), (958, 542), (958, 542), (958, 542), (958, 542), (957, 544), (953, 548), (934, 570), (912, 594), (885, 621), (852, 658), (773, 737), (732, 780), (693, 826), (656, 868)]",132.82525588538996,"[8, 4, 5, 1, 6, 2, 7, 9, 3]","(0, 0.25)",CHN001A,CHN,A,English,Thu Aug 02 14:59:19 2018,Mouse
1,1,1,0,11,3,3,1,580,430,150,144,0,500,200,8000,"[(960, 540), (960, 540), (960, 540), (960, 540), (960, 540), (960, 540), (960, 540), (960, 540), (960, 540), (960, 540), (960, 540), (960, 540), (960, 540), (960, 540), (960, 540), (960, 540), (960, 540), (960, 540), (960, 540), (960, 540), (960, 540), (960, 540), (960, 540), (960, 540), (960, 540), (960, 540), (960, 540), (960, 540), (960, 540), (960, 540), (960, 540), (960, 540), (960, 540), (960, 540), (960, 540), (960, 540), (960, 540), (960, 540), (960, 540), (960, 540), (960, 540), (960, 540), (961, 539), (966, 531), (966, 530), (968, 530), (970, 527), (978, 523), (985, 521), (992, 518), (1002, 511), (1048, 480), (1090, 447), (1124, 421), (1174, 390), (1260, 349), (1300, 332), (1342, 316)]",329.61317604705323,"[8, 4, 5, 1, 6, 2, 7, 9, 3]","(0, 0.25)",CHN001A,CHN,A,English,Thu Aug 02 14:59:19 2018,Mouse
1,1,1,0,12,4,4,1,810,630,180,143,0,500,200,8000,"[(960, 540), (960, 540), (960, 540), (960, 540), (960, 540), (960, 540), (960, 540), (960, 540), (960, 540), (960, 540), (960, 540), (960, 540), (960, 540), (960, 540), (960, 540), (960, 540), (960, 540), (960, 540), (960, 540), (960, 540), (960, 540), (960, 540), (960, 540), (960, 540), (960, 540), (960, 540), (960, 540), (960, 540), (960, 540), (960, 540), (960, 540), (960, 540), (960, 540), (960, 540), (960, 540), (960, 540), (960, 540), (960, 540), (960, 540), (960, 540), (960, 540), (960, 540), (960, 540), (960, 540), (960, 540), (960, 540), (960, 540), (960, 540), (960, 540), (960, 540), (960, 540), (960, 540), (960, 540), (960, 540), (960, 540), (960, 540), (960, 540), (960, 540), (960, 540), (960, 540), (960, 540), (960, 540), (959, 542), (960, 549), (971, 567), (978, 580), (985, 592), (995, 606), (1019, 637), (1035, 662), (1051, 689), (1065, 721), (1093, 785), (1105, 811), (1116, 835), (1124, 853), (1137, 876), (1142, 885), (1147, 891), (1148, 892), (1149, 894)]",61.90231703256405,"[8, 4, 5, 1, 6, 2, 7, 9, 3]","(0, 0.25)",CHN001A,CHN,A,English,Thu Aug 02 14:59:19 2018,Mouse
1,1,1,0,13,4,4,1,501,291,210,142,0,500,200,8000,"[(960, 540), (960, 540), (960, 540), (960, 540), (960, 540), (960, 540), (960, 540), (960, 540), (960, 540), (960, 540), (960, 540), (960, 540), (960, 540), (960, 540), (960, 540), (960, 540), (960, 540), (960, 540), (960, 540), (960, 540), (960, 540), (960, 540), (960, 540), (960, 540), (960, 540), (960, 540), (960, 540), (960, 540), (960, 540), (960, 544), (960, 553), (966, 575), (969, 588), (974, 602), (983, 622), (1000, 664), (1007, 691), (1011, 715), (1019, 751), (1038, 823), (1046, 848), (1052, 868), (1058, 880), (1064, 894), (1067, 899), (1069, 902), (1075, 908), (1078, 913), (1081, 916), (1083, 919), (1085, 921)]",71.8361648295618,"[8, 4, 5, 1, 6, 2, 7, 9, 3]","(0, 0.25)",CHN001A,CHN,A,English,Thu Aug 02 14:59:19 2018,Mouse
1,1,1,0,14,4,4,1,340,160,180,141,0,500,200,8000,"[(960, 540), (960, 540), (960, 540), (960, 540), (960, 540), (960, 540), (960, 540), (960, 540), (960, 540), (960, 540), (960, 540), (960, 540), (960, 540), (960, 540), (960, 540), (961, 541), (964, 545), (967, 551), (970, 559), (979, 575), (985, 581), (990, 587), (995, 594), (1006, 612), (1010, 624), (1016, 638), (1027, 659), (1047, 709), (1061, 738), (1073, 767), (1084, 793), (1114, 850), (1123, 876), (1137, 902)]",63.943666016329004,"[8, 4, 5, 1, 6, 2, 7, 9, 3]","(0, 0.25)",CHN001A,CHN,A,English,Thu Aug 02 14:59:19 2018,Mouse
1,1,1,0,15,2,2,1,689,299,390,140,0,500,200,8000,"[(960, 540), (960, 540), (960, 540), (960, 540), (960, 540), (960, 540), (960, 540), (960, 540), (960, 540), (960, 540), (960, 540), (960, 540), (960, 540), (960, 540), (960, 540), (960, 540), (960, 540), (960, 540), (960, 540), (960, 540), (960, 540), (960, 540), (960, 540), (960, 540), (960, 540), (960, 540), (960, 540), (960, 540), (960, 540), (959, 540), (956, 539), (953, 538), (942, 538), (936, 538), (934, 538), (933, 537), (933, 537), (930, 536), (930, 535), (930, 535), (930, 535), (930, 535), (930, 535), (930, 535), (930, 535), (930, 535), (930, 535), (930, 535), (930, 535), (930, 535), (930, 535), (930, 535), (930, 535), (930, 535), (930, 535), (930, 535), (926, 533), (919, 526), (906, 515), (888, 492), (845, 438), (819, 409), (791, 377), (764, 350), (720, 311), (697, 294), (683, 284), (673, 277), (662, 271)]",222.0720793539708,"[8, 4, 5, 1, 6, 2, 7, 9, 3]","(0, 0.25)",CHN001A,CHN,A,English,Thu Aug 02 14:59:19 2018,Mouse
1,1,1,0,16,9,9,1,1769,309,1460,139,0,500,200,8000,"[(960, 540), (960, 540), (960, 540), (960, 540), (960, 540), (960, 540), (960, 540), (960, 540), (960, 540), (960, 540), (960, 540), (960, 540), (960, 540), (960, 540), (960, 540), (960, 540), (960, 540), (960, 540), (960, 540), (960, 540), (960, 540), (960, 540), (960, 540), (960, 540), (960, 540), (960, 540), (960, 540), (960, 540), (960, 540), (960, 540), (957, 540), (957, 540), (955, 540), (955, 540), (955, 540), (955, 540), (955, 540), (955, 540), (955, 540), (955, 540), (955, 540), (955, 540), (955, 540), (955, 540), (955, 540), (955, 540), (955, 540), (955, 540), (955, 540), (955, 540), (955, 540), (955, 540), (955, 540), (955, 540), (955, 540), (955, 540), (955, 540), (955, 540), (955, 540), (955, 540), (955, 540), (955, 540), (955, 540), (955, 540), (955, 540), (955, 540), (955, 540), (955, 540), (955, 540), (955, 540), (955, 540), (955, 540), (955, 540), (955, 540), (955, 540), (955, 540), (955, 540), (955, 540), (955, 540), (955, 540), (955, 540), (955, 540), (955, 540), (955, 540), (955, 540), (955, 540), (955, 540), (955, 540), (955, 540), (955, 540), (955, 540), (955, 540), (955, 540), (955, 540), (955, 540), (955, 540), (955, 540), (955, 540), (955, 540), (955, 540), (955, 540), (955, 540), (955, 540), (955, 540), (955, 540), (955, 540), (955, 540), (955, 540), (955, 540), (955, 540), (955, 540), (955, 540), (955, 540), (955, 540), (955, 540), (955, 540), (955, 540), (955, 540), (955, 540), (955, 540), (955, 540), (955, 540), (955, 540), (955, 540), (955, 540), (955, 540), (955, 540), (955, 540), (955, 540), (955, 540), (955, 540), (955, 540), (955, 540), (955, 540), (955, 540), (955, 540), (955, 540), (955, 540), (955, 540), (955, 540), (955, 540), (958, 536), (963, 527), (965, 522), (968, 515), (970, 510), (973, 504), (974, 500), (976, 498), (976, 498), (977, 495), (977, 495), (977, 495), (977, 495), (977, 495), (977, 495), (977, 495), (977, 495), (977, 495), (977, 495), (977, 495), (977, 495), (977, 495), (977, 495), (977, 493), (977, 492), (979, 489), (980, 486), (982, 483), (985, 476), (996, 450), (1006, 429), (1024, 397), (1049, 358), (1113, 259), (1147, 209), (1183, 166)]",300.8057929872065,"[8, 4, 5, 1, 6, 2, 7, 9, 3]","(0, 0.25)",CHN001A,CHN,A,English,Thu Aug 02 14:59:19 2018,Mouse
1,1,1,0,17,2,2,1,889,229,660,138,0,500,200,8000,"[(960, 540), (960, 540), (960, 540), (960, 540), (960, 540), (960, 540), (960, 540), (960, 540), (960, 540), (960, 540), (960, 540), (960, 540), (960, 540), (960, 540), (960, 540), (960, 540), (960, 540), (960, 540), (960, 540), (960, 540), (960, 540), (960, 540), (958, 540), (957, 540), (956, 540), (956, 540), (956, 540), (956, 540), (955, 541), (955, 541), (955, 541), (955, 541), (955, 541), (955, 541), (955, 541), (955, 541), (955, 541), (955, 541), (955, 541), (955, 541), (954, 541), (954, 541), (954, 541), (952, 541), (947, 541), (943, 540), (943, 534), (940, 527), (930, 509), (923, 495), (911, 482), (899, 467), (868, 437), (848, 424), (825, 404), (799, 383), (749, 340), (727, 324), (707, 310), (696, 302), (679, 291), (676, 290), (671, 288), (671, 287), (670, 287), (670, 287), (670, 287), (670, 287), (670, 287), (670, 287), (668, 285), (667, 284), (667, 280), (666, 279), (666, 278), (666, 276), (666, 276), (666, 276), (666, 276), (666, 276), (666, 276), (666, 275), (666, 275), (666, 275), (666, 275), (666, 275), (666, 275), (666, 274), (664, 269)]",222.47536624386439,"[8, 4, 5, 1, 6, 2, 7, 9, 3]","(0, 0.25)",CHN001A,CHN,A,English,Thu Aug 02 14:59:19 2018,Mouse
1,1,1,0,18,1,1,1,741,151,590,137,0,500,200,8000,"[(960, 540), (960, 540), (960, 540), (960, 540), (960, 540), (960, 540), (960, 540), (960, 540), (960, 540), (960, 540), (960, 540), (960, 540), (960, 540), (960, 540), (960, 540), (960, 542), (960, 542), (960, 542), (959, 542), (956, 544), (955, 544), (953, 544), (953, 545), (953, 545), (952, 546), (952, 546), (952, 546), (952, 546), (952, 546), (952, 546), (952, 546), (952, 546), (952, 546), (952, 546), (952, 546), (952, 546), (952, 546), (952, 546), (952, 546), (952, 546), (952, 546), (952, 546), (952, 546), (952, 546), (952, 546), (952, 546), (952, 546), (952, 546), (952, 546), (952, 546), (952, 546), (952, 546), (952, 546), (952, 546), (952, 546), (952, 546), (952, 546), (952, 546), (952, 546), (952, 546), (952, 546), (952, 546), (952, 546), (948, 549), (943, 555), (933, 567), (913, 590), (866, 653), (839, 689), (812, 726), (791, 751), (745, 798), (725, 814), (703, 826), (681, 838)]",133.11399203204934,"[8, 4, 5, 1, 6, 2, 7, 9, 3]","(0, 0.25)",CHN001A,CHN,A,English,Thu Aug 02 14:59:19 2018,Mouse
1,1,1,0,19,2,2,1,660,500,160,136,0,500,200,8000,"[(960, 540), (960, 540), (960, 540), (960, 540), (960, 540), (960, 540), (960, 540), (960, 540), (960, 540), (960, 540), (960, 540), (960, 540), (960, 540), (960, 540), (960, 540), (960, 540), (960, 540), (960, 540), (960, 540), (960, 540), (960, 540), (960, 540), (960, 540), (960, 540), (960, 540), (960, 540), (960, 540), (960, 540), (960, 540), (960, 540), (960, 540), (960, 540), (960, 540), (960, 540), (960, 540), (960, 540), (960, 540), (960, 540), (960, 540), (960, 540), (960, 540), (960, 540), (960, 540), (960, 540), (960, 540), (960, 540), (960, 540), (960, 540), (960, 540), (959, 540), (955, 536), (939, 494), (924, 467), (906, 439), (890, 417), (859, 374), (832, 351), (806, 329), (778, 309), (732, 282), (716, 273), (704, 265), (694, 259), (686, 253), (685, 250), (683, 248)]",226.51008380515256,"[8, 4, 5, 1, 6, 2, 7, 9, 3]","(0, 0.25)",CHN001A,CHN,A,English,Thu Aug 02 14:59:19 2018,Mouse
1,1,1,0,20,6,9,0,-2052,1972,80,135,0,500,200,8000,"[(960, 540), (960, 540), (960, 540), (960, 540), (960, 540), (960, 540), (960, 540), (960, 540), (960, 540), (960, 540), (960, 540), (960, 540), (960, 540), (960, 540), (960, 540), (960, 540), (960, 540), (960, 540), (960, 540), (960, 540), (960, 540), (960, 540), (960, 540), (960, 540), (960, 540), (960, 540), (960, 540), (960, 540), (960, 540), (960, 540), (960, 540), (960, 540), (960, 540), (960, 540), (960, 540), (960, 540), (960, 540), (960, 540), (960, 540), (960, 540), (960, 540), (960, 540), (960, 540), (960, 540), (960, 540), (960, 540), (960, 540), (960, 540), (960, 540), (960, 540), (960, 540), (960, 540), (960, 540), (960, 540), (960, 540), (960, 540), (960, 540), (960, 540), (960, 540), (960, 540), (960, 540), (960, 540), (960, 540), (960, 540), (960, 540), (960, 540), (960, 540), (960, 540), (960, 540), (960, 540), (960, 540), (960, 540), (960, 540), (960, 540), (960, 540), (960, 540), (960, 540), (960, 540), (960, 540), (960, 540), (960, 540), (960, 540), (960, 540), (960, 540), (960, 540), (960, 540), (960, 540), (960, 540), (960, 540), (960, 540), (960, 540), (960, 540), (960, 540), (960, 540), (960, 540), (960, 540), (960, 540), (960, 540), (960, 540), (960, 540), (960, 540), (960, 540), (960, 540), (960, 540), (960, 540), (960, 540), (960, 540), (960, 540), (960, 540), (960, 540), (960, 540), (960, 540), (960, 540), (960, 540), (960, 540), (960, 540), (960, 540), (960, 540), (960, 540), (960, 540), (960, 540), (960, 540), (960, 540), (960, 540), (960, 540), (960, 540), (960, 540), (960, 540), (960, 540), (960, 540), (960, 540), (960, 540), (960, 540), (960, 540), (960, 540), (960, 540), (960, 540), (960, 540), (960, 540), (960, 540), (960, 540), (960, 540), (960, 540), (960, 540), (960, 540), (960, 540), (960, 540), (960, 540), (960, 540), (960, 540), (960, 540), (960, 540), (960, 540), (960, 540), (960, 540), (960, 540), (960, 540), (960, 540), (960, 540), (960, 540), (960, 540), (960, 540), (960, 540), (960, 540), (960, 540), (960, 540), (960, 540), (960, 540), (960, 540), (960, 540), (960, 540), (960, 540), (960, 540), (960, 540), (960, 540), (960, 540), (960, 540), (960, 540), (960, 540), (960, 540), (960, 540), (960, 540), (960, 540), (960, 540), (960, 540), (960, 540), (960, 540), (960, 540), (960, 540), (960, 540), (960, 540), (960, 540), (960, 540), (960, 540), (960, 540), (960, 540), (960, 540), (959, 537), (961, 532), (965, 521), (975, 498), (1008, 413), (1032, 349), (1063, 273), (1094, 192), (1142, 53)]",290.49155202359646,"[8, 4, 5, 1, 6, 2, 7, 9, 3]","(0, 0.25)",CHN001A,CHN,A,English,Thu Aug 02 14:59:19 2018,Mouse
1,1,1,0,21,7,2,0,-560,390,170,136,0,500,200,8000,"[(960, 540), (960, 540), (960, 540), (960, 540), (960, 540), (960, 540), (960, 540), (960, 540), (960, 540), (960, 540), (960, 540), (960, 540), (960, 540), (960, 540), (960, 540), (960, 540), (960, 540), (960, 540), (960, 540), (960, 540), (960, 540), (960, 540), (960, 540), (960, 540), (960, 540), (960, 540), (960, 540), (960, 540), (960, 540), (960, 540), (960, 540), (960, 540), (960, 540), (960, 540), (960, 540), (960, 540), (960, 540), (960, 540), (954, 540), (952, 540), (948, 539), (945, 535), (935, 525), (930, 520), (927, 516), (919, 511), (907, 503), (897, 498), (886, 493), (868, 480), (812, 440), (784, 419), (747, 390), (708, 360), (642, 308), (610, 280)]",216.6070748126075,"[8, 4, 5, 1, 6, 2, 7, 9, 3]","(0, 0.25)",CHN001A,CHN,A,English,Thu Aug 02 14:59:19 2018,Mouse
1,1,1,0,22,8,8,1,1540,1420,120,137,0,500,200,8000,"[(960, 540), (960, 540), (960, 540), (960, 540), (960, 540), (960, 540), (960, 540), (960, 540), (960, 540), (960, 540), (960, 540), (960, 540), (960, 540), (960, 540), (960, 540), (960, 540), (960, 540), (960, 540), (960, 540), (960, 540), (960, 540), (960, 540), (960, 540), (960, 540), (960, 540), (960, 540), (960, 540), (960, 540), (960, 540), (960, 540), (960, 540), (960, 540), (960, 540), (960, 540), (960, 540), (960, 540), (960, 540), (960, 540), (960, 540), (960, 540), (960, 540), (960, 540), (960, 540), (960, 540), (960, 540), (960, 540), (960, 540), (960, 540), (960, 540), (960, 540), (960, 540), (960, 540), (960, 540), (960, 540), (960, 540), (960, 540), (960, 540), (960, 540), (960, 540), (960, 540), (960, 540), (960, 540), (960, 540), (960, 540), (960, 540), (960, 540), (960, 540), (960, 540), (960, 540), (960, 540), (960, 540), (960, 540), (960, 540), (960, 540), (960, 540), (960, 540), (960, 540), (960, 540), (960, 540), (960, 540), (960, 540), (960, 540), (960, 540), (960, 540), (960, 540), (960, 540), (960, 540), (960, 540), (960, 540), (960, 540), (960, 540), (960, 540), (960, 540), (960, 540), (960, 540), (960, 540), (960, 540), (960, 540), (960, 540), (960, 540), (960, 540), (960, 540), (960, 540), (960, 540), (960, 540), (960, 540), (960, 540), (960, 540), (960, 540), (960, 540), (960, 540), (960, 540), (960, 540), (960, 540), (960, 540), (960, 540), (960, 540), (960, 540), (960, 540), (960, 540), (960, 540), (960, 540), (960, 540), (960, 540), (960, 540), (960, 540), (960, 540), (960, 540), (960, 540), (960, 540), (960, 540), (960, 540), (960, 540), (960, 540), (960, 540), (960, 540), (960, 540), (960, 540), (960, 540), (960, 540), (960, 540), (962, 541), (967, 541), (978, 541), (989, 541), (1018, 541), (1044, 549), (1072, 558), (1108, 569), (1192, 595), (1231, 606), (1273, 624), (1321, 642), (1410, 681)]",17.397512885605053,"[8, 4, 5, 1, 6, 2, 7, 9, 3]","(0, 0.25)",CHN001A,CHN,A,English,Thu Aug 02 14:59:19 2018,Mouse
1,1,1,0,23,3,3,1,500,380,120,137,0,500,200,8000,"[(960, 540), (960, 540), (960, 540), (960, 540), (960, 540), (960, 540), (960, 540), (960, 540), (960, 540), (960, 540), (960, 540), (960, 540), (960, 540), (960, 540), (960, 540), (960, 540), (960, 540), (960, 540), (960, 540), (960, 540), (960, 540), (960, 540), (960, 540), (960, 540), (960, 540), (960, 540), (960, 540), (960, 540), (960, 540), (960, 540), (960, 540), (960, 540), (960, 540), (960, 540), (960, 540), (960, 540), (960, 540), (960, 537), (986, 515), (1008, 501), (1036, 482), (1058, 466), (1117, 427), (1143, 414), (1173, 400), (1204, 388), (1261, 366), (1286, 360), (1311, 352), (1330, 348)]",332.5743473330881,"[8, 4, 5, 1, 6, 2, 7, 9, 3]","(0, 0.25)",CHN001A,CHN,A,English,Thu Aug 02 14:59:19 2018,Mouse
1,1,1,0,24,3,3,1,431,281,150,136,0,500,200,8000,"[(960, 540), (960, 540), (960, 540), (960, 540), (960, 540), (960, 540), (960, 540), (960, 540), (960, 540), (960, 540), (960, 540), (960, 540), (960, 540), (960, 540), (960, 540), (960, 540), (960, 540), (960, 540), (960, 540), (960, 540), (960, 540), (960, 540), (960, 540), (960, 540), (960, 540), (960, 540), (960, 540), (960, 540), (972, 534), (989, 521), (1006, 508), (1024, 493), (1064, 462), (1087, 446), (1114, 431), (1137, 423), (1184, 409), (1214, 403), (1233, 400), (1250, 399), (1288, 392), (1309, 389), (1323, 387), (1331, 386)]",337.4569389999421,"[8, 4, 5, 1, 6, 2, 7, 9, 3]","(0, 0.25)",CHN001A,CHN,A,English,Thu Aug 02 14:59:19 2018,Mouse
1,1,1,0,25,2,2,1,601,441,160,135,0,500,200,8000,"[(960, 540), (960, 540), (960, 540), (960, 540), (960, 540), (960, 540), (960, 540), (960, 540), (960, 540), (960, 540), (960, 540), (960, 540), (960, 540), (960, 540), (960, 540), (960, 540), (960, 540), (960, 540), (960, 540), (960, 540), (960, 540), (960, 540), (960, 540), (960, 540), (960, 540), (960, 540), (960, 540), (960, 540), (960, 540), (960, 540), (960, 540), (960, 540), (960, 540), (960, 540), (960, 540), (960, 540), (960, 540), (960, 540), (960, 540), (960, 540), (960, 540), (960, 540), (960, 540), (960, 540), (958, 540), (957, 540), (951, 540), (944, 540), (928, 530), (920, 519), (906, 501), (886, 471), (835, 413), (811, 386), (789, 362), (766, 344), (728, 314), (710, 299), (697, 286), (684, 273), (665, 255)]",224.01223960036018,"[8, 4, 5, 1, 6, 2, 7, 9, 3]","(0, 0.25)",CHN001A,CHN,A,English,Thu Aug 02 14:59:19 2018,Mouse
1,1,1,0,26,7,1,0,-700,70,630,134,0,500,200,8000,"[(960, 540), (960, 540), (960, 540), (960, 540), (960, 540), (960, 540), (960, 541), (960, 542), (960, 542), (960, 542), (960, 542), (959, 542), (959, 542), (959, 542), (959, 542), (959, 542), (959, 542), (959, 542), (959, 542), (959, 542), (959, 542), (959, 542), (959, 542), (959, 542), (959, 542), (959, 542), (959, 542), (959, 542), (959, 542), (959, 542), (959, 542), (959, 542), (959, 542), (959, 542), (959, 542), (959, 542), (959, 542), (959, 542), (959, 542), (959, 542), (959, 542), (959, 542), (959, 542), (959, 542), (959, 542), (959, 542), (959, 542), (959, 542), (959, 542), (959, 542), (959, 542), (959, 542), (959, 542), (959, 542), (959, 542), (959, 542), (959, 542), (959, 542), (959, 542), (959, 542), (959, 542), (958, 542), (946, 556), (938, 566), (921, 584), (901, 607), (834, 685), (789, 736), (737, 792), (682, 849)]",131.9769664695466,"[8, 4, 5, 1, 6, 2, 7, 9, 3]","(0, 0.25)",CHN001A,CHN,A,English,Thu Aug 02 14:59:19 2018,Mouse
1,1,1,0,27,8,8,1,559,49,510,135,0,500,200,8000,"[(960, 540), (960, 540), (960, 540), (960, 540), (959, 540), (959, 540), (959, 540), (959, 540), (959, 540), (959, 540), (959, 540), (959, 540), (959, 540), (959, 540), (959, 540), (959, 540), (959, 540), (959, 540), (959, 540), (959, 540), (959, 540), (959, 540), (959, 540), (959, 540), (959, 540), (959, 540), (959, 540), (959, 540), (959, 540), (959, 540), (959, 540), (959, 540), (959, 540), (959, 540), (959, 540), (959, 540), (959, 540), (959, 540), (959, 540), (959, 540), (959, 540), (959, 540), (959, 540), (959, 540), (959, 540), (959, 540), (959, 540), (979, 540), (1002, 540), (1031, 543), (1060, 548), (1141, 561), (1187, 565), (1235, 573), (1284, 580), (1375, 592)]",7.14200797933875,"[8, 4, 5, 1, 6, 2, 7, 9, 3]","(0, 0.25)",CHN001A,CHN,A,English,Thu Aug 02 14:59:19 2018,Mouse
1,1,1,0,28,7,9,0,-959,869,90,135,0,500,200,8000,"[(960, 540), (960, 540), (960, 540), (960, 540), (960, 540), (960, 540), (960, 540), (960, 540), (960, 540), (960, 540), (960, 540), (960, 540), (960, 540), (960, 540), (960, 540), (960, 540), (960, 540), (960, 540), (960, 540), (960, 540), (960, 540), (960, 540), (960, 540), (960, 540), (960, 540), (960, 540), (960, 540), (960, 540), (960, 540), (960, 540), (960, 540), (960, 540), (960, 540), (960, 540), (960, 540), (960, 540), (960, 540), (960, 540), (960, 540), (960, 540), (960, 540), (960, 540), (960, 540), (960, 540), (960, 540), (960, 540), (960, 540), (960, 540), (960, 540), (960, 540), (960, 540), (960, 540), (960, 540), (960, 540), (960, 540), (960, 540), (960, 540), (960, 540), (960, 540), (960, 540), (960, 540), (960, 540), (960, 540), (960, 540), (960, 540), (960, 540), (960, 540), (960, 540), (960, 540), (960, 540), (960, 540), (960, 540), (960, 540), (960, 540), (960, 540), (960, 540), (960, 540), (960, 540), (960, 540), (960, 540), (960, 540), (960, 540), (960, 540), (960, 540), (960, 540), (960, 540), (963, 531), (970, 524), (980, 510), (991, 491), (1033, 420), (1054, 379), (1080, 335), (1099, 292), (1134, 213), (1150, 175)]",297.49913873104714,"[8, 4, 5, 1, 6, 2, 7, 9, 3]","(0, 0.25)",CHN001A,CHN,A,English,Thu Aug 02 14:59:19 2018,Mouse
1,1,1,0,29,6,6,1,720,600,120,136,0,500,200,8000,"[(960, 540), (960, 540), (960, 540), (960, 540), (960, 540), (960, 540), (960, 540), (960, 540), (960, 540), (960, 540), (960, 540), (960, 540), (960, 540), (960, 540), (960, 540), (960, 540), (960, 540), (960, 540), (960, 540), (960, 540), (960, 540), (960, 540), (960, 540), (960, 540), (960, 540), (960, 540), (960, 540), (960, 540), (960, 540), (960, 540), (960, 540), (960, 540), (960, 540), (960, 540), (960, 540), (960, 540), (960, 540), (960, 540), (960, 540), (960, 540), (960, 540), (960, 540), (960, 540), (960, 540), (960, 540), (960, 540), (960, 540), (960, 540), (960, 540), (960, 540), (960, 540), (960, 540), (960, 540), (960, 540), (960, 540), (960, 540), (960, 540), (960, 540), (960, 540), (957, 540), (955, 541), (942, 545), (931, 547), (923, 549), (911, 553), (867, 558), (829, 565), (789, 569), (737, 569), (637, 569), (587, 569), (545, 569)]",176.00269656259235,"[8, 4, 5, 1, 6, 2, 7, 9, 3]","(0, 0.25)",CHN001A,CHN,A,English,Thu Aug 02 14:59:19 2018,Mouse
1,1,1,0,30,4,2,0,-1051,921,130,136,0,500,200,8000,"[(960, 540), (960, 540), (960, 540), (960, 540), (960, 540), (960, 540), (960, 540), (960, 540), (960, 540), (960, 540), (960, 540), (960, 540), (960, 540), (960, 540), (960, 540), (960, 540), (960, 540), (960, 540), (960, 540), (960, 540), (960, 540), (960, 540), (960, 540), (960, 540), (960, 540), (960, 540), (960, 540), (960, 540), (960, 540), (960, 540), (960, 540), (960, 540), (960, 540), (960, 540), (960, 540), (960, 540), (960, 540), (960, 540), (960, 540), (960, 540), (960, 540), (960, 540), (960, 540), (960, 540), (960, 540), (960, 540), (960, 540), (960, 540), (960, 540), (960, 540), (960, 540), (960, 540), (960, 540), (960, 540), (960, 540), (960, 540), (960, 540), (960, 540), (960, 540), (960, 540), (960, 540), (960, 540), (960, 540), (960, 540), (960, 540), (960, 540), (960, 540), (960, 540), (960, 540), (960, 540), (960, 540), (960, 540), (960, 540), (960, 540), (960, 540), (960, 540), (960, 540), (960, 540), (960, 540), (960, 540), (960, 540), (960, 540), (960, 540), (960, 540), (960, 540), (960, 540), (960, 540), (960, 540), (960, 540), (960, 540), (960, 540), (960, 540), (958, 539), (949, 523), (941, 509), (930, 488), (914, 465), (873, 423), (845, 404), (815, 386), (779, 365), (715, 335), (691, 322), (669, 310), (652, 297), (635, 281)]",218.55215002018656,"[8, 4, 5, 1, 6, 2, 7, 9, 3]","(0, 0.25)",CHN001A,CHN,A,English,Thu Aug 02 14:59:19 2018,Mouse
1,1,1,0,31,3,3,1,451,311,140,137,0,500,200,8000,"[(960, 540), (960, 540), (960, 540), (960, 540), (960, 540), (960, 540), (960, 540), (960, 540), (960, 540), (960, 540), (960, 540), (960, 540), (960, 540), (960, 540), (960, 540), (960, 540), (960, 540), (960, 540), (960, 540), (960, 540), (960, 540), (960, 540), (960, 540), (960, 540), (960, 540), (960, 540), (960, 540), (960, 540), (960, 540), (960, 540), (960, 540), (960, 541), (966, 538), (976, 530), (988, 522), (1011, 506), (1025, 497), (1039, 486), (1063, 475), (1122, 448), (1156, 433), (1193, 416), (1227, 404), (1291, 387), (1322, 378), (1349, 373)]",336.76586620337207,"[8, 4, 5, 1, 6, 2, 7, 9, 3]","(0, 0.25)",CHN001A,CHN,A,English,Thu Aug 02 14:59:19 2018,Mouse
1,1,1,0,32,2,2,1,411,311,100,137,0,500,200,8000,"[(960, 540), (960, 540), (960, 540), (960, 540), (960, 540), (960, 540), (960, 540), (960, 540), (960, 540), (960, 540), (960, 540), (960, 540), (960, 540), (960, 540), (960, 540), (960, 540), (960, 540), (960, 540), (960, 540), (960, 540), (960, 540), (960, 540), (960, 540), (960, 540), (960, 540), (960, 540), (960, 540), (960, 540), (960, 540), (960, 540), (960, 540), (957, 538), (952, 529), (937, 506), (925, 490), (909, 468), (886, 437), (808, 356), (763, 316), (723, 285), (692, 257), (641, 221)]",225.0,"[8, 4, 5, 1, 6, 2, 7, 9, 3]","(0, 0.25)",CHN001A,CHN,A,English,Thu Aug 02 14:59:19 2018,Mouse
1,1,1,0,33,7,9,0,-551,21,530,136,0,500,200,8000,"[(960, 540), (960, 540), (960, 541), (959, 541), (959, 541), (956, 541), (954, 542), (948, 546), (946, 546), (945, 546), (945, 546), (945, 546), (945, 546), (945, 546), (945, 546), (945, 546), (945, 546), (945, 546), (945, 546), (945, 546), (945, 546), (945, 546), (945, 546), (945, 546), (945, 546), (945, 546), (945, 546), (945, 546), (945, 546), (945, 546), (945, 546), (945, 546), (945, 546), (945, 546), (945, 546), (945, 546), (945, 546), (945, 546), (945, 546), (945, 546), (945, 546), (945, 546), (945, 546), (945, 546), (945, 546), (946, 541), (950, 529), (964, 499), (977, 477), (990, 448), (1009, 410), (1054, 311), (1074, 265), (1093, 222), (1106, 188), (1123, 149)]",292.63026912070853,"[8, 4, 5, 1, 6, 2, 7, 9, 3]","(0, 0.25)",CHN001A,CHN,A,English,Thu Aug 02 14:59:19 2018,Mouse
1,1,1,0,34,1,1,1,430,310,120,137,0,500,200,8000,"[(960, 540), (960, 540), (960, 540), (960, 540), (960, 540), (960, 540), (960, 540), (960, 540), (960, 540), (960, 540), (960, 540), (960, 540), (960, 540), (960, 540), (960, 540), (960, 540), (960, 540), (960, 540), (960, 540), (960, 540), (960, 540), (960, 540), (960, 540), (960, 540), (960, 540), (960, 540), (960, 540), (960, 540), (960, 540), (960, 540), (954, 546), (938, 562), (917, 588), (887, 620), (826, 684), (800, 709), (771, 734), (745, 753), (700, 778), (687, 784), (672, 790), (662, 796), (646, 805)]",139.83733923699373,"[8, 4, 5, 1, 6, 2, 7, 9, 3]","(0, 0.25)",CHN001A,CHN,A,English,Thu Aug 02 14:59:19 2018,Mouse
1,1,1,0,35,5,3,0,-449,59,390,137,0,500,200,8000,"[(960, 540), (960, 540), (960, 540), (960, 540), (960, 540), (959, 540), (959, 540), (959, 540), (959, 540), (959, 540), (959, 540), (959, 540), (959, 540), (959, 540), (959, 540), (959, 540), (959, 540), (959, 540), (959, 540), (959, 540), (959, 540), (959, 540), (959, 540), (959, 540), (959, 540), (959, 540), (959, 540), (959, 540), (959, 540), (959, 540), (959, 540), (959, 540), (959, 540), (959, 540), (979, 520), (1002, 503), (1026, 489), (1051, 474), (1114, 448), (1146, 433), (1180, 419), (1213, 410), (1277, 393), (1308, 384), (1333, 377)]",336.39480110298166,"[8, 4, 5, 1, 6, 2, 7, 9, 3]","(0, 0.25)",CHN001A,CHN,A,English,Thu Aug 02 14:59:19 2018,Mouse
1,1,1,0,36,7,7,1,401,331,70,138,0,500,200,8000,"[(960, 540), (960, 540), (960, 540), (960, 540), (960, 540), (960, 540), (960, 540), (960, 540), (960, 540), (960, 540), (960, 540), (960, 540), (960, 540), (960, 540), (960, 540), (960, 540), (960, 540), (960, 540), (960, 540), (960, 540), (960, 540), (960, 540), (960, 540), (960, 540), (960, 540), (960, 540), (960, 540), (960, 540), (960, 540), (960, 540), (960, 540), (960, 540), (960, 540), (961, 523), (961, 481), (960, 420), (945, 362), (908, 242), (894, 195), (885, 159), (870, 122)]",257.8490889590858,"[8, 4, 5, 1, 6, 2, 7, 9, 3]","(0, 0.25)",CHN001A,CHN,A,English,Thu Aug 02 14:59:19 2018,Mouse
1,1,1,0,37,9,9,1,411,321,90,138,0,500,200,8000,"[(960, 540), (960, 540), (960, 540), (960, 540), (960, 540), (960, 540), (960, 540), (960, 540), (960, 540), (960, 540), (960, 540), (960, 540), (960, 540), (960, 540), (960, 540), (960, 540), (960, 540), (960, 540), (960, 540), (960, 540), (960, 540), (960, 540), (960, 540), (960, 540), (960, 540), (960, 540), (960, 540), (960, 540), (960, 540), (960, 540), (960, 540), (960, 540), (973, 519), (980, 508), (987, 495), (1001, 473), (1022, 440), (1037, 413), (1059, 379), (1088, 333), (1165, 219), (1204, 161)]",302.77341326959447,"[8, 4, 5, 1, 6, 2, 7, 9, 3]","(0, 0.25)",CHN001A,CHN,A,English,Thu Aug 02 14:59:19 2018,Mouse
1,1,1,0,38,3,3,1,461,51,410,137,0,500,200,8000,"[(960, 540), (960, 540), (960, 540), (960, 540), (960, 540), (958, 540), (957, 540), (956, 540), (954, 540), (954, 539), (954, 539), (954, 539), (954, 539), (954, 539), (954, 539), (954, 539), (954, 539), (954, 539), (954, 539), (954, 539), (954, 539), (954, 539), (954, 539), (954, 539), (954, 539), (954, 539), (954, 539), (954, 539), (954, 539), (954, 539), (954, 539), (954, 539), (954, 539), (954, 539), (954, 539), (954, 539), (954, 539), (954, 539), (956, 538), (964, 536), (972, 531), (989, 525), (1051, 491), (1103, 458), (1156, 417), (1211, 383), (1314, 334)]",329.8039801562705,"[8, 4, 5, 1, 6, 2, 7, 9, 3]","(0, 0.25)",CHN001A,CHN,A,English,Thu Aug 02 14:59:19 2018,Mouse
1,1,1,0,39,7,2,0,-930,80,850,136,0,500,200,8000,"[(960, 540), (960, 540), (960, 540), (960, 540), (960, 540), (960, 540), (960, 540), (959, 540), (959, 540), (958, 540), (958, 540), (958, 540), (958, 540), (958, 540), (958, 540), (958, 540), (958, 540), (958, 540), (958, 540), (958, 540), (958, 540), (958, 540), (958, 540), (958, 540), (958, 540), (958, 540), (958, 540), (958, 540), (958, 540), (958, 540), (958, 540), (958, 540), (958, 540), (958, 540), (958, 540), (958, 540), (958, 540), (958, 540), (958, 540), (957, 538), (955, 534), (954, 532), (953, 528), (953, 528), (951, 526), (951, 524), (950, 523), (950, 523), (950, 523), (948, 522), (941, 515), (935, 507), (923, 493), (906, 473), (868, 422), (844, 398), (813, 372), (795, 357), (746, 329), (726, 320), (714, 315), (704, 309), (696, 301), (693, 299), (692, 297), (691, 295), (691, 294), (691, 294), (691, 292), (691, 290), (689, 286), (687, 283), (687, 283), (686, 282), (686, 281), (686, 281), (686, 281), (686, 281), (686, 281), (686, 281), (686, 281), (686, 281), (686, 281), (686, 281), (686, 281), (686, 281), (684, 279), (682, 277), (680, 276), (674, 273), (669, 270), (667, 269), (663, 267)]",222.58897025338877,"[8, 4, 5, 1, 6, 2, 7, 9, 3]","(0, 0.25)",CHN001A,CHN,A,English,Thu Aug 02 14:59:19 2018,Mouse
1,1,1,0,40,2,3,0,-439,289,150,137,0,500,200,8000,"[(960, 540), (960, 540), (960, 540), (960, 540), (960, 540), (960, 540), (960, 540), (960, 540), (960, 540), (960, 540), (960, 540), (960, 540), (960, 540), (960, 540), (960, 540), (960, 540), (960, 540), (960, 540), (960, 540), (960, 540), (960, 540), (960, 540), (960, 540), (960, 540), (960, 540), (960, 540), (960, 540), (960, 540), (959, 540), (959, 540), (959, 540), (959, 540), (958, 539), (958, 535), (972, 524), (997, 507), (1047, 474), (1078, 462), (1113, 447), (1142, 435), (1225, 409), (1267, 397), (1306, 384), (1342, 373)]",336.38636070584147,"[8, 4, 5, 1, 6, 2, 7, 9, 3]","(0, 0.25)",CHN001A,CHN,A,English,Thu Aug 02 14:59:19 2018,Mouse
1,1,1,0,41,9,9,1,679,369,310,138,0,500,200,8000,"[(960, 540), (960, 540), (960, 540), (960, 540), (960, 540), (960, 540), (960, 540), (960, 540), (960, 540), (960, 540), (960, 540), (960, 540), (960, 540), (960, 540), (960, 540), (960, 540), (960, 540), (960, 540), (960, 540), (960, 540), (960, 540), (960, 540), (960, 540), (960, 540), (960, 540), (960, 540), (960, 540), (960, 540), (960, 540), (960, 540), (960, 540), (960, 540), (960, 540), (960, 540), (960, 540), (960, 540), (961, 540), (961, 540), (961, 540), (961, 540), (961, 540), (961, 540), (961, 540), (961, 540), (961, 540), (961, 540), (961, 540), (961, 540), (961, 540), (961, 540), (961, 540), (961, 540), (961, 540), (961, 540), (961, 540), (961, 540), (961, 540), (961, 540), (961, 540), (961, 539), (963, 536), (967, 531), (974, 522), (1015, 466), (1061, 405), (1116, 325), (1177, 236), (1269, 59)]",302.71716139214504,"[8, 4, 5, 1, 6, 2, 7, 9, 3]","(0, 0.25)",CHN001A,CHN,A,English,Thu Aug 02 14:59:19 2018,Mouse
1,1,1,0,42,1,1,1,581,71,510,138,0,500,200,8000,"[(960, 540), (960, 540), (960, 540), (960, 540), (960, 540), (960, 540), (960, 540), (959, 542), (958, 543), (958, 543), (956, 545), (954, 546), (954, 546), (954, 546), (954, 546), (954, 546), (954, 546), (954, 546), (954, 546), (954, 546), (954, 546), (954, 546), (954, 546), (954, 546), (954, 546), (954, 546), (954, 546), (954, 546), (954, 546), (954, 546), (954, 546), (954, 546), (954, 546), (954, 546), (954, 546), (954, 546), (954, 546), (952, 546), (952, 546), (951, 543), (950, 543), (950, 543), (950, 543), (950, 543), (950, 543), (950, 543), (950, 543), (949, 543), (945, 543), (938, 547), (922, 563), (865, 629), (831, 672), (797, 709), (759, 749), (711, 798), (691, 812), (679, 820), (669, 827)]",135.39650425513312,"[8, 4, 5, 1, 6, 2, 7, 9, 3]","(0, 0.25)",CHN001A,CHN,A,English,Thu Aug 02 14:59:19 2018,Mouse
1,1,1,0,43,3,3,1,350,230,120,137,0,500,200,8000,"[(960, 540), (960, 540), (960, 540), (960, 540), (960, 540), (960, 540), (960, 540), (960, 540), (960, 540), (960, 540), (960, 540), (960, 540), (960, 540), (960, 540), (960, 540), (960, 540), (960, 540), (960, 540), (960, 540), (960, 540), (960, 540), (960, 540), (961, 540), (979, 535), (994, 526), (1018, 513), (1040, 499), (1098, 466), (1133, 445), (1169, 420), (1205, 398), (1269, 369), (1298, 357), (1314, 354), (1331, 348)]",332.6375215851499,"[8, 4, 5, 1, 6, 2, 7, 9, 3]","(0, 0.25)",CHN001A,CHN,A,English,Thu Aug 02 14:59:19 2018,Mouse
1,1,1,0,44,3,3,1,411,101,310,136,0,500,200,8000,"[(960, 540), (960, 540), (960, 540), (960, 540), (960, 540), (960, 540), (960, 540), (960, 540), (960, 540), (960, 540), (959, 541), (959, 541), (959, 542), (959, 542), (959, 542), (959, 542), (959, 542), (959, 542), (959, 542), (959, 542), (959, 542), (959, 542), (959, 542), (959, 542), (959, 542), (959, 542), (959, 542), (959, 542), (959, 542), (959, 542), (959, 542), (959, 542), (968, 542), (978, 538), (993, 531), (1022, 519), (1094, 489), (1142, 469), (1179, 451), (1226, 426), (1308, 404), (1353, 392)]",339.3641112151645,"[8, 4, 5, 1, 6, 2, 7, 9, 3]","(0, 0.25)",CHN001A,CHN,A,English,Thu Aug 02 14:59:19 2018,Mouse
1,1,1,0,45,7,9,0,-780,80,700,135,0,500,200,8000,"[(960, 540), (960, 540), (960, 540), (960, 540), (960, 540), (960, 540), (960, 540), (959, 540), (959, 540), (959, 540), (958, 541), (958, 541), (958, 541), (958, 541), (958, 541), (958, 541), (958, 541), (958, 541), (958, 541), (958, 541), (958, 541), (958, 541), (958, 541), (958, 541), (958, 541), (958, 541), (958, 541), (958, 541), (958, 541), (958, 541), (958, 541), (958, 541), (958, 541), (958, 541), (958, 541), (958, 541), (958, 541), (958, 541), (958, 542), (958, 542), (958, 542), (958, 542), (958, 542), (958, 542), (958, 542), (958, 542), (958, 542), (958, 542), (958, 542), (958, 542), (958, 542), (958, 542), (958, 542), (958, 542), (958, 542), (958, 542), (958, 542), (958, 542), (958, 542), (958, 542), (958, 542), (958, 542), (958, 542), (958, 542), (958, 542), (958, 542), (958, 542), (958, 542), (958, 542), (961, 540), (963, 538), (971, 526), (981, 509), (1027, 427), (1057, 370), (1082, 308), (1110, 246), (1147, 145)]",295.3337040702427,"[8, 4, 5, 1, 6, 2, 7, 9, 3]","(0, 0.25)",CHN001A,CHN,A,English,Thu Aug 02 14:59:19 2018,Mouse
1,1,1,0,46,9,9,1,521,441,80,136,0,500,200,8000,"[(960, 540), (960, 540), (960, 540), (960, 540), (960, 540), (960, 540), (960, 540), (960, 540), (960, 540), (960, 540), (960, 540), (960, 540), (960, 540), (960, 540), (960, 540), (960, 540), (960, 540), (960, 540), (960, 540), (960, 540), (960, 540), (960, 540), (960, 540), (960, 540), (960, 540), (960, 540), (960, 540), (960, 540), (960, 540), (960, 540), (960, 540), (960, 540), (960, 540), (960, 540), (960, 540), (960, 540), (960, 540), (960, 540), (960, 540), (960, 540), (960, 540), (960, 540), (960, 540), (960, 540), (963, 531), (973, 511), (984, 477), (1011, 388), (1028, 340), (1040, 293), (1051, 254), (1071, 188), (1083, 154)]",287.6746279197141,"[8, 4, 5, 1, 6, 2, 7, 9, 3]","(0, 0.25)",CHN001A,CHN,A,English,Thu Aug 02 14:59:19 2018,Mouse
1,1,1,0,47,5,5,1,810,720,90,136,0,500,200,8000,"[(960, 540), (960, 540), (960, 540), (960, 540), (960, 540), (960, 540), (960, 540), (960, 540), (960, 540), (960, 540), (960, 540), (960, 540), (960, 540), (960, 540), (960, 540), (960, 540), (960, 540), (960, 540), (960, 540), (960, 540), (960, 540), (960, 540), (960, 540), (960, 540), (960, 540), (960, 540), (960, 540), (960, 540), (960, 540), (960, 540), (960, 540), (960, 540), (960, 540), (960, 540), (960, 540), (960, 540), (960, 540), (960, 540), (960, 540), (960, 540), (960, 540), (960, 540), (960, 540), (960, 540), (960, 540), (960, 540), (960, 540), (960, 540), (960, 540), (960, 540), (960, 540), (960, 540), (960, 540), (960, 540), (960, 540), (960, 540), (960, 540), (960, 540), (960, 540), (960, 540), (960, 540), (960, 540), (960, 540), (960, 540), (960, 540), (960, 540), (960, 540), (960, 540), (960, 540), (960, 540), (960, 540), (958, 543), (956, 552), (945, 588), (937, 618), (925, 665), (913, 717), (897, 823), (895, 873), (895, 920), (895, 965)]",98.69550287742477,"[8, 4, 5, 1, 6, 2, 7, 9, 3]","(0, 0.25)",CHN001A,CHN,A,English,Thu Aug 02 14:59:19 2018,Mouse
1,1,1,0,48,5,5,1,469,389,80,135,0,500,200,8000,"[(960, 540), (960, 540), (960, 540), (960, 540), (960, 540), (960, 540), (960, 540), (960, 540), (960, 540), (960, 540), (960, 540), (960, 540), (960, 540), (960, 540), (960, 540), (960, 540), (960, 540), (960, 540), (960, 540), (960, 540), (960, 540), (960, 540), (960, 540), (960, 540), (960, 540), (960, 540), (960, 540), (960, 540), (960, 540), (960, 540), (960, 540), (960, 540), (960, 540), (960, 540), (960, 540), (960, 540), (960, 540), (960, 540), (956, 546), (930, 610), (914, 654), (894, 711), (878, 755), (861, 837), (855, 867), (848, 903), (842, 935)]",106.63268318178845,"[8, 4, 5, 1, 6, 2, 7, 9, 3]","(0, 0.25)",CHN001A,CHN,A,English,Thu Aug 02 14:59:19 2018,Mouse
1,1,1,0,49,3,3,1,289,129,160,134,0,500,200,8000,"[(960, 540), (960, 540), (960, 540), (960, 540), (960, 540), (960, 540), (960, 540), (960, 540), (960, 540), (960, 540), (960, 540), (960, 540), (960, 539), (960, 539), (962, 538), (973, 533), (980, 529), (988, 528), (997, 524), (1018, 518), (1031, 514), (1051, 506), (1078, 493), (1130, 463), (1163, 442), (1196, 418), (1236, 389), (1298, 341), (1318, 326)]",329.130479862414,"[8, 4, 5, 1, 6, 2, 7, 9, 3]","(0, 0.25)",CHN001A,CHN,A,English,Thu Aug 02 14:59:19 2018,Mouse
1,1,1,0,50,4,9,0,-831,170,661,133,0,500,200,8000,"[(960, 540), (960, 540), (960, 540), (960, 540), (960, 540), (960, 540), (960, 540), (960, 540), (960, 540), (960, 540), (960, 540), (960, 540), (960, 540), (960, 540), (960, 540), (960, 540), (959, 540), (958, 540), (958, 540), (958, 540), (958, 540), (958, 540), (958, 540), (958, 540), (958, 540), (958, 540), (958, 540), (958, 540), (958, 540), (958, 540), (958, 540), (958, 540), (958, 540), (958, 540), (958, 540), (958, 540), (958, 540), (958, 540), (958, 540), (958, 540), (958, 540), (958, 540), (958, 540), (958, 540), (958, 540), (958, 540), (958, 540), (958, 540), (958, 540), (958, 540), (958, 540), (958, 540), (958, 540), (958, 540), (958, 540), (958, 540), (958, 540), (958, 540), (958, 540), (958, 540), (958, 540), (958, 540), (958, 540), (958, 540), (958, 540), (958, 540), (958, 540), (958, 540), (958, 540), (957, 540), (957, 540), (957, 540), (957, 538), (962, 529), (969, 519), (980, 502), (998, 466), (1039, 380), (1057, 340), (1073, 306), (1086, 271), (1115, 203), (1124, 159)]",293.28927701517955,"[8, 4, 5, 1, 6, 2, 7, 9, 3]","(0, 0.25)",CHN001A,CHN,A,English,Thu Aug 02 14:59:19 2018,Mouse
1,1,1,0,51,8,2,0,-461,341,120,134,0,500,200,8000,"[(960, 540), (960, 540), (960, 540), (960, 540), (960, 540), (960, 540), (960, 540), (960, 540), (960, 540), (960, 540), (960, 540), (960, 540), (960, 540), (960, 540), (960, 540), (960, 540), (960, 540), (960, 540), (960, 540), (960, 540), (960, 540), (960, 540), (960, 540), (960, 540), (960, 540), (960, 540), (960, 540), (960, 540), (960, 540), (960, 540), (960, 540), (960, 540), (960, 540), (960, 540), (959, 540), (955, 540), (946, 535), (934, 528), (897, 506), (867, 489), (834, 471), (801, 452), (735, 410), (707, 391), (682, 372), (661, 353), (622, 321)]",212.9403721518865,"[8, 4, 5, 1, 6, 2, 7, 9, 3]","(0, 0.25)",CHN001A,CHN,A,English,Thu Aug 02 14:59:19 2018,Mouse
1,1,1,0,52,8,9,0,-471,331,140,135,0,500,200,8000,"[(960, 540), (960, 540), (960, 540), (960, 540), (960, 540), (960, 540), (960, 540), (960, 540), (960, 540), (960, 540), (960, 540), (960, 540), (960, 540), (960, 540), (960, 540), (960, 540), (960, 540), (960, 540), (960, 540), (960, 540), (960, 540), (960, 540), (960, 540), (960, 540), (960, 540), (960, 540), (960, 540), (960, 540), (960, 540), (960, 540), (960, 540), (960, 540), (960, 540), (962, 539), (964, 535), (967, 529), (968, 526), (970, 524), (971, 522), (977, 511), (984, 499), (995, 478), (1008, 454), (1054, 367), (1076, 321), (1098, 270), (1125, 219), (1165, 138)]",297.0193193947706,"[8, 4, 5, 1, 6, 2, 7, 9, 3]","(0, 0.25)",CHN001A,CHN,A,English,Thu Aug 02 14:59:19 2018,Mouse
1,1,1,0,53,2,1,0,-759,109,650,136,0,500,200,8000,"[(960, 540), (960, 540), (960, 540), (960, 540), (960, 540), (960, 540), (960, 540), (960, 540), (960, 540), (960, 540), (959, 541), (959, 542), (957, 543), (957, 543), (955, 544), (954, 544), (954, 544), (953, 545), (953, 545), (953, 545), (953, 545), (953, 545), (953, 545), (953, 545), (953, 545), (953, 545), (953, 545), (953, 545), (953, 545), (953, 545), (953, 545), (953, 545), (953, 545), (953, 545), (953, 545), (953, 545), (953, 545), (953, 545), (953, 545), (953, 545), (953, 545), (953, 545), (953, 545), (953, 545), (953, 545), (953, 545), (953, 545), (953, 545), (953, 545), (953, 545), (953, 545), (953, 545), (953, 545), (953, 545), (953, 545), (953, 545), (953, 545), (953, 545), (953, 545), (952, 547), (949, 548), (944, 550), (930, 560), (920, 565), (905, 574), (883, 588), (823, 638), (791, 668), (764, 695), (736, 726), (691, 776), (676, 794), (671, 800), (666, 805), (663, 807), (662, 808)]",138.03403964694502,"[8, 4, 5, 1, 6, 2, 7, 9, 3]","(0, 0.25)",CHN001A,CHN,A,English,Thu Aug 02 14:59:19 2018,Mouse
1,1,1,0,54,6,7,0,-2291,841,1450,137,0,500,200,8000,"[(960, 540), (960, 540), (960, 540), (960, 540), (960, 540), (960, 540), (960, 540), (960, 540), (960, 540), (960, 540), (960, 540), (960, 540), (960, 540), (960, 540), (960, 540), (960, 540), (960, 540), (960, 540), (960, 540), (960, 540), (960, 540), (960, 540), (960, 540), (960, 540), (960, 540), (960, 540), (960, 540), (960, 540), (960, 540), (960, 540), (960, 540), (960, 540), (960, 540), (960, 540), (960, 540), (960, 540), (960, 540), (960, 540), (960, 540), (960, 540), (960, 540), (960, 540), (960, 540), (960, 540), (960, 540), (960, 540), (960, 540), (960, 540), (960, 540), (960, 540), (960, 540), (960, 540), (960, 540), (960, 540), (960, 540), (960, 540), (960, 540), (960, 540), (960, 540), (960, 540), (960, 540), (960, 540), (960, 540), (960, 540), (960, 540), (960, 540), (960, 540), (960, 540), (960, 540), (960, 540), (960, 540), (960, 540), (960, 540), (960, 540), (960, 540), (960, 540), (960, 540), (960, 540), (960, 540), (960, 540), (960, 540), (960, 540), (960, 540), (960, 540), (960, 537), (960, 532), (960, 528), (960, 527), (960, 526), (960, 526), (960, 526), (960, 526), (960, 526), (960, 526), (960, 526), (960, 526), (960, 526), (960, 526), (960, 526), (960, 526), (960, 526), (960, 526), (960, 526), (960, 526), (960, 526), (960, 526), (960, 526), (960, 526), (960, 526), (960, 526), (960, 526), (960, 526), (960, 526), (960, 526), (960, 526), (960, 526), (960, 526), (960, 526), (960, 526), (960, 526), (960, 526), (960, 526), (960, 526), (960, 526), (960, 526), (960, 526), (960, 526), (960, 526), (960, 526), (960, 526), (960, 526), (960, 526), (960, 526), (960, 526), (960, 526), (960, 526), (960, 526), (960, 526), (960, 526), (960, 526), (960, 526), (960, 526), (960, 526), (960, 526), (960, 526), (960, 526), (960, 526), (960, 526), (960, 526), (960, 526), (960, 526), (960, 526), (960, 526), (960, 526), (960, 526), (960, 526), (960, 526), (960, 526), (960, 526), (960, 526), (960, 526), (960, 526), (960, 526), (960, 526), (960, 526), (960, 526), (960, 526), (960, 526), (960, 526), (960, 526), (960, 526), (960, 526), (960, 526), (960, 526), (960, 526), (960, 526), (960, 526), (960, 526), (960, 526), (960, 526), (960, 526), (960, 526), (960, 526), (960, 526), (960, 526), (960, 526), (960, 526), (960, 526), (960, 526), (960, 526), (960, 526), (960, 526), (960, 526), (960, 526), (960, 526), (960, 526), (960, 526), (960, 526), (960, 526), (960, 526), (960, 526), (960, 526), (960, 526), (960, 526), (960, 526), (960, 526), (960, 526), (960, 526), (960, 526), (960, 526), (960, 526), (960, 526), (960, 526), (960, 526), (960, 526), (960, 526), (960, 526), (960, 526), (960, 526), (960, 526), (960, 526), (960, 522), (959, 497), (955, 476), (953, 436), (943, 382), (923, 281), (901, 235), (881, 192), (857, 146)]",255.3495310865659,"[8, 4, 5, 1, 6, 2, 7, 9, 3]","(0, 0.25)",CHN001A,CHN,A,English,Thu Aug 02 14:59:19 2018,Mouse
1,1,1,0,55,2,2,1,561,401,160,138,0,500,200,8000,"[(960, 540), (960, 540), (960, 540), (960, 540), (960, 540), (960, 540), (960, 540), (960, 540), (960, 540), (960, 540), (960, 540), (960, 540), (960, 540), (960, 540), (960, 540), (960, 540), (960, 540), (960, 540), (960, 540), (960, 540), (960, 540), (960, 540), (960, 540), (960, 540), (960, 540), (960, 540), (960, 540), (960, 540), (960, 540), (960, 540), (960, 540), (960, 540), (960, 540), (960, 540), (960, 540), (960, 540), (960, 540), (960, 540), (960, 540), (960, 540), (956, 540), (953, 540), (950, 540), (944, 539), (931, 529), (922, 522), (906, 512), (889, 499), (846, 465), (827, 455), (805, 443), (781, 428), (740, 404), (715, 387), (696, 371), (664, 340), (608, 288)]",215.59921995897616,"[8, 4, 5, 1, 6, 2, 7, 9, 3]","(0, 0.25)",CHN001A,CHN,A,English,Thu Aug 02 14:59:19 2018,Mouse
1,1,1,0,56,4,4,1,672,32,640,138,0,500,200,8000,"[(960, 540), (960, 540), (960, 540), (959, 540), (959, 540), (959, 540), (959, 540), (959, 540), (959, 540), (959, 540), (959, 540), (959, 540), (959, 540), (959, 540), (959, 540), (959, 540), (959, 540), (959, 540), (959, 540), (959, 540), (959, 540), (959, 540), (959, 540), (959, 540), (959, 540), (959, 540), (959, 540), (959, 540), (959, 540), (959, 540), (959, 540), (959, 540), (959, 540), (959, 540), (959, 540), (959, 540), (959, 540), (959, 540), (959, 540), (959, 540), (959, 540), (959, 540), (959, 540), (959, 540), (959, 540), (959, 540), (959, 540), (959, 540), (959, 540), (959, 540), (959, 542), (959, 547), (959, 550), (960, 552), (960, 554), (963, 560), (964, 566), (966, 574), (969, 588), (973, 631), (979, 659), (988, 687), (996, 717), (1018, 777), (1033, 811), (1047, 843), (1063, 873), (1093, 934)]",71.34719755198083,"[8, 4, 5, 1, 6, 2, 7, 9, 3]","(0, 0.25)",CHN001A,CHN,A,English,Thu Aug 02 14:59:19 2018,Mouse
1,1,1,0,57,6,6,1,810,630,180,137,0,500,200,8000,"[(960, 540), (960, 540), (960, 540), (960, 540), (960, 540), (960, 540), (960, 540), (960, 540), (960, 540), (960, 540), (960, 540), (960, 540), (960, 540), (960, 540), (960, 540), (960, 540), (960, 540), (960, 540), (960, 540), (960, 540), (960, 540), (960, 540), (960, 540), (960, 540), (960, 540), (960, 540), (960, 540), (960, 540), (960, 540), (960, 540), (960, 540), (960, 540), (960, 540), (960, 540), (960, 540), (960, 540), (960, 540), (960, 540), (960, 540), (960, 540), (960, 540), (960, 540), (960, 540), (960, 540), (960, 540), (960, 540), (960, 540), (960, 540), (960, 540), (960, 540), (960, 540), (960, 540), (960, 540), (960, 540), (960, 540), (960, 540), (960, 540), (960, 540), (960, 540), (960, 540), (960, 540), (960, 540), (958, 540), (953, 541), (947, 543), (940, 547), (917, 554), (903, 559), (895, 560), (885, 563), (878, 563), (875, 563), (873, 563), (870, 563), (848, 563), (830, 563), (796, 563), (755, 563), (655, 563), (604, 560), (559, 554)]",178.00046074305135,"[8, 4, 5, 1, 6, 2, 7, 9, 3]","(0, 0.25)",CHN001A,CHN,A,English,Thu Aug 02 14:59:19 2018,Mouse
1,1,1,0,58,7,7,1,579,429,150,136,0,500,200,8000,"[(960, 540), (960, 540), (960, 540), (960, 540), (960, 540), (960, 540), (960, 540), (960, 540), (960, 540), (960, 540), (960, 540), (960, 540), (960, 540), (960, 540), (960, 540), (960, 540), (960, 540), (960, 540), (960, 540), (960, 540), (960, 540), (960, 540), (960, 540), (960, 540), (960, 540), (960, 540), (960, 540), (960, 540), (960, 540), (960, 540), (960, 540), (960, 540), (960, 540), (960, 540), (960, 540), (960, 540), (960, 540), (960, 540), (960, 540), (960, 540), (960, 540), (960, 540), (960, 539), (960, 538), (960, 529), (960, 523), (960, 514), (960, 500), (960, 484), (955, 423), (951, 389), (947, 359), (936, 279), (932, 242), (923, 206), (917, 186), (911, 155), (910, 143)]",262.821701788423,"[8, 4, 5, 1, 6, 2, 7, 9, 3]","(0, 0.25)",CHN001A,CHN,A,English,Thu Aug 02 14:59:19 2018,Mouse
1,1,1,0,59,6,6,1,771,621,150,135,0,500,200,8000,"[(960, 540), (960, 540), (960, 540), (960, 540), (960, 540), (960, 540), (960, 540), (960, 540), (960, 540), (960, 540), (960, 540), (960, 540), (960, 540), (960, 540), (960, 540), (960, 540), (960, 540), (960, 540), (960, 540), (960, 540), (960, 540), (960, 540), (960, 540), (960, 540), (960, 540), (960, 540), (960, 540), (960, 540), (960, 540), (960, 540), (960, 540), (960, 540), (960, 540), (960, 540), (960, 540), (960, 540), (960, 540), (960, 540), (960, 540), (960, 540), (960, 540), (960, 540), (960, 540), (960, 540), (960, 540), (960, 540), (960, 540), (960, 540), (960, 540), (960, 540), (960, 540), (960, 540), (960, 540), (960, 540), (960, 540), (960, 540), (960, 540), (960, 540), (960, 540), (960, 540), (960, 540), (960, 540), (959, 540), (957, 540), (952, 540), (942, 540), (908, 548), (875, 557), (834, 566), (789, 578), (712, 600), (677, 605), (645, 610), (619, 610), (583, 610), (574, 610), (568, 610), (564, 610)]",169.97551320405339,"[8, 4, 5, 1, 6, 2, 7, 9, 3]","(0, 0.25)",CHN001A,CHN,A,English,Thu Aug 02 14:59:19 2018,Mouse
1,1,1,0,60,4,9,0,-1270,930,340,134,0,500,200,8000,"[(960, 540), (960, 540), (960, 540), (960, 540), (960, 540), (960, 540), (960, 540), (960, 540), (960, 540), (960, 540), (960, 540), (960, 540), (960, 540), (960, 540), (960, 540), (960, 540), (960, 540), (960, 540), (960, 540), (960, 540), (960, 540), (960, 540), (960, 540), (960, 540), (960, 540), (960, 540), (960, 540), (960, 540), (960, 540), (960, 540), (960, 540), (960, 540), (960, 540), (960, 540), (960, 540), (960, 540), (960, 540), (960, 540), (960, 540), (960, 540), (960, 540), (960, 540), (960, 540), (960, 540), (960, 540), (960, 540), (960, 540), (960, 540), (960, 540), (960, 540), (960, 540), (960, 540), (960, 540), (960, 540), (960, 540), (960, 540), (960, 540), (960, 540), (960, 540), (960, 540), (960, 540), (960, 540), (960, 540), (960, 540), (960, 540), (960, 540), (960, 540), (960, 540), (960, 540), (960, 540), (960, 540), (960, 540), (960, 540), (960, 540), (960, 540), (960, 540), (960, 540), (960, 540), (960, 540), (960, 540), (960, 540), (960, 540), (960, 540), (960, 540), (960, 540), (960, 540), (960, 540), (960, 540), (960, 540), (960, 540), (960, 540), (960, 540), (960, 536), (966, 526), (972, 513), (984, 484), (989, 472), (997, 455), (1008, 438), (1027, 406), (1037, 389), (1045, 374), (1056, 357), (1086, 314), (1102, 289), (1114, 273), (1130, 250), (1147, 231), (1154, 223), (1160, 215), (1161, 212), (1165, 205), (1165, 204), (1165, 202), (1165, 201), (1165, 201), (1165, 201), (1165, 201), (1165, 201), (1165, 201), (1165, 201), (1165, 201), (1165, 200), (1165, 198), (1165, 198), (1165, 197), (1166, 196)]",300.9147439011604,"[8, 4, 5, 1, 6, 2, 7, 9, 3]","(0, 0.25)",CHN001A,CHN,A,English,Thu Aug 02 14:59:19 2018,Mouse
1,1,1,0,61,3,3,1,370,250,120,135,0,500,200,8000,"[(960, 540), (960, 540), (960, 540), (960, 540), (960, 540), (960, 540), (960, 540), (960, 540), (960, 540), (960, 540), (960, 540), (960, 540), (960, 540), (960, 540), (960, 540), (960, 540), (960, 540), (960, 540), (960, 540), (960, 540), (960, 540), (960, 540), (960, 540), (960, 540), (961, 539), (970, 534), (987, 524), (1038, 498), (1061, 487), (1091, 469), (1128, 457), (1208, 424), (1241, 416), (1271, 407), (1296, 403), (1328, 397), (1339, 396)]",339.1958510503466,"[8, 4, 5, 1, 6, 2, 7, 9, 3]","(0, 0.25)",CHN001A,CHN,A,English,Thu Aug 02 14:59:19 2018,Mouse
1,1,1,0,62,4,9,0,-1330,910,420,135,0,500,200,8000,"[(960, 540), (960, 540), (960, 540), (960, 540), (960, 540), (960, 540), (960, 540), (960, 540), (960, 540), (960, 540), (960, 540), (960, 540), (960, 540), (960, 540), (960, 540), (960, 540), (960, 540), (960, 540), (960, 540), (960, 540), (960, 540), (960, 540), (960, 540), (960, 540), (960, 540), (960, 540), (960, 540), (960, 540), (960, 540), (960, 540), (960, 540), (960, 540), (960, 540), (960, 540), (960, 540), (960, 540), (960, 540), (960, 540), (960, 540), (960, 540), (960, 540), (960, 540), (960, 540), (960, 540), (960, 540), (960, 540), (960, 540), (960, 540), (960, 540), (960, 540), (960, 540), (960, 540), (960, 540), (960, 540), (960, 540), (960, 540), (960, 540), (960, 540), (960, 540), (960, 540), (960, 540), (960, 540), (960, 540), (960, 540), (960, 540), (960, 540), (960, 540), (960, 540), (960, 540), (960, 540), (960, 540), (960, 540), (960, 540), (960, 540), (960, 540), (960, 540), (960, 540), (960, 540), (960, 540), (960, 540), (960, 540), (960, 540), (960, 540), (960, 540), (960, 540), (960, 540), (960, 540), (960, 540), (960, 540), (960, 540), (960, 539), (961, 536), (963, 533), (968, 525), (971, 522), (975, 513), (982, 502), (1003, 461), (1016, 424), (1030, 390), (1043, 356), (1062, 307), (1065, 294), (1071, 280), (1075, 266), (1082, 238), (1085, 225), (1088, 214), (1093, 204), (1097, 194), (1098, 191), (1098, 188), (1098, 186), (1098, 184), (1098, 182), (1098, 181), (1098, 180), (1098, 179), (1098, 179), (1098, 179), (1098, 177), (1098, 177), (1098, 177), (1098, 177), (1098, 177), (1098, 177), (1098, 177), (1098, 176), (1098, 174), (1102, 170), (1103, 169), (1104, 168), (1106, 166)]",291.3243973664936,"[8, 4, 5, 1, 6, 2, 7, 9, 3]","(0, 0.25)",CHN001A,CHN,A,English,Thu Aug 02 14:59:19 2018,Mouse
1,1,1,0,63,9,9,1,390,100,290,136,0,500,200,8000,"[(960, 540), (960, 540), (960, 540), (960, 540), (960, 540), (960, 540), (960, 540), (960, 540), (960, 540), (959, 540), (957, 540), (955, 540), (955, 540), (955, 540), (955, 540), (955, 540), (955, 540), (955, 540), (955, 540), (955, 540), (955, 540), (955, 540), (955, 540), (955, 540), (955, 540), (955, 540), (955, 540), (955, 540), (955, 540), (955, 540), (955, 531), (979, 484), (996, 456), (1015, 421), (1033, 386), (1082, 294), (1101, 251), (1117, 204), (1130, 167)]",294.5017942313052,"[8, 4, 5, 1, 6, 2, 7, 9, 3]","(0, 0.25)",CHN001A,CHN,A,English,Thu Aug 02 14:59:19 2018,Mouse
1,1,1,0,64,9,9,1,260,120,140,136,0,500,200,8000,"[(960, 540), (960, 540), (960, 540), (960, 540), (960, 540), (960, 540), (960, 540), (960, 540), (960, 540), (960, 540), (960, 540), (965, 528), (974, 507), (983, 487), (994, 460), (1017, 424), (1023, 413), (1028, 403), (1034, 395), (1046, 375), (1056, 356), (1072, 331), (1097, 297), (1137, 229), (1162, 195), (1184, 162)]",300.65066795705286,"[8, 4, 5, 1, 6, 2, 7, 9, 3]","(0, 0.25)",CHN001A,CHN,A,English,Thu Aug 02 14:59:19 2018,Mouse
1,1,1,0,65,8,5,0,-841,11,830,135,0,500,200,8000,"[(960, 540), (960, 541), (960, 541), (960, 542), (960, 542), (960, 542), (960, 543), (960, 543), (960, 543), (960, 543), (960, 543), (960, 543), (960, 543), (960, 543), (960, 543), (960, 543), (960, 543), (960, 543), (960, 543), (960, 543), (960, 543), (960, 543), (960, 543), (960, 543), (960, 543), (960, 543), (960, 543), (960, 543), (960, 543), (960, 543), (960, 543), (960, 543), (960, 543), (960, 543), (960, 543), (960, 543), (960, 543), (960, 543), (960, 543), (960, 543), (960, 543), (960, 543), (960, 543), (960, 543), (960, 543), (960, 543), (960, 543), (960, 543), (960, 543), (960, 543), (960, 543), (960, 543), (960, 543), (960, 543), (960, 543), (960, 543), (960, 543), (960, 543), (960, 543), (960, 543), (960, 543), (960, 543), (960, 543), (960, 543), (960, 543), (960, 543), (960, 543), (960, 543), (960, 543), (960, 543), (960, 543), (960, 543), (960, 543), (960, 543), (960, 543), (960, 543), (958, 547), (945, 580), (930, 617), (917, 662), (903, 714), (881, 821), (873, 872), (873, 908), (871, 940)]",102.54397334657212,"[8, 4, 5, 1, 6, 2, 7, 9, 3]","(0, 0.25)",CHN001A,CHN,A,English,Thu Aug 02 14:59:19 2018,Mouse
1,1,1,0,66,8,8,1,760,320,440,136,0,500,200,8000,"[(960, 540), (960, 540), (960, 540), (960, 540), (960, 540), (960, 540), (960, 540), (960, 540), (960, 540), (960, 540), (960, 540), (960, 540), (960, 540), (960, 540), (960, 540), (960, 540), (960, 540), (960, 540), (960, 540), (960, 540), (960, 540), (960, 540), (960, 540), (960, 540), (960, 540), (960, 540), (960, 540), (960, 540), (960, 540), (960, 540), (960, 540), (970, 539), (983, 542), (994, 545), (1008, 550), (1038, 558), (1058, 564), (1079, 568), (1102, 576), (1150, 589), (1166, 593), (1186, 599), (1208, 606), (1240, 616), (1248, 619), (1260, 622), (1269, 624), (1281, 629), (1286, 632), (1288, 633), (1291, 633), (1291, 634), (1292, 635), (1292, 635), (1293, 636), (1293, 636), (1294, 636), (1294, 636), (1294, 637), (1294, 637), (1294, 637), (1294, 638), (1295, 639), (1298, 642), (1300, 644), (1302, 645), (1304, 647), (1307, 650), (1310, 650), (1313, 651), (1319, 653), (1327, 654), (1332, 654), (1336, 654), (1340, 654), (1344, 654)]",16.534837857345156,"[8, 4, 5, 1, 6, 2, 7, 9, 3]","(0, 0.25)",CHN001A,CHN,A,English,Thu Aug 02 14:59:19 2018,Mouse
1,1,1,0,67,2,3,0,-701,301,400,136,0,500,200,8000,"[(960, 540), (960, 540), (960, 540), (960, 540), (960, 540), (960, 540), (960, 540), (960, 540), (960, 540), (960, 540), (960, 540), (960, 540), (960, 540), (960, 540), (960, 540), (960, 540), (960, 540), (960, 540), (960, 540), (960, 540), (960, 540), (960, 540), (960, 540), (960, 540), (960, 540), (960, 540), (960, 540), (960, 540), (960, 540), (960, 540), (964, 540), (982, 530), (999, 521), (1026, 505), (1053, 490), (1116, 467), (1139, 456), (1170, 448), (1198, 440), (1257, 421), (1283, 411), (1303, 403), (1317, 395), (1323, 388), (1324, 385), (1324, 382), (1324, 381), (1323, 377), (1323, 377), (1323, 376), (1323, 376), (1323, 376), (1323, 376), (1323, 376), (1323, 376), (1323, 376), (1323, 376), (1323, 376), (1323, 376), (1321, 376), (1320, 376), (1318, 376), (1316, 376), (1314, 378), (1314, 378), (1314, 378), (1314, 378), (1314, 378), (1314, 378), (1317, 377), (1324, 373)]",335.3547589528775,"[8, 4, 5, 1, 6, 2, 7, 9, 3]","(0, 0.25)",CHN001A,CHN,A,English,Thu Aug 02 14:59:19 2018,Mouse
1,1,1,0,68,3,3,1,251,11,240,137,0,500,200,8000,"[(960, 543), (959, 543), (959, 543), (959, 543), (959, 543), (959, 543), (959, 543), (959, 543), (959, 543), (959, 543), (959, 543), (959, 543), (959, 543), (959, 543), (960, 543), (965, 538), (992, 523), (1013, 510), (1038, 495), (1075, 481), (1146, 455), (1185, 442), (1221, 433), (1257, 422), (1321, 405), (1348, 399)]",340.0287510481942,"[8, 4, 5, 1, 6, 2, 7, 9, 3]","(0, 0.25)",CHN001A,CHN,A,English,Thu Aug 02 14:59:19 2018,Mouse
1,1,1,0,69,7,7,1,380,270,110,137,0,500,200,8000,"[(959, 540), (959, 540), (959, 540), (959, 540), (959, 540), (959, 540), (959, 540), (959, 540), (959, 540), (959, 540), (959, 540), (959, 540), (959, 540), (959, 540), (959, 540), (959, 540), (959, 540), (959, 540), (959, 540), (959, 540), (959, 540), (959, 540), (959, 540), (959, 540), (959, 540), (959, 540), (958, 540), (958, 529), (956, 510), (948, 451), (946, 420), (942, 375), (939, 335), (927, 246), (915, 209), (904, 176), (897, 146), (890, 105)]",260.8583597764751,"[8, 4, 5, 1, 6, 2, 7, 9, 3]","(0, 0.25)",CHN001A,CHN,A,English,Thu Aug 02 14:59:19 2018,Mouse
1,1,1,0,70,9,9,1,510,101,409,136,0,500,200,8000,"[(960, 540), (960, 540), (960, 540), (960, 540), (960, 540), (960, 540), (960, 540), (960, 540), (960, 540), (960, 540), (959, 540), (957, 540), (957, 540), (957, 540), (957, 540), (957, 540), (957, 540), (957, 540), (957, 540), (957, 540), (957, 540), (957, 540), (957, 540), (957, 540), (957, 540), (957, 540), (957, 540), (957, 540), (957, 540), (957, 540), (957, 540), (957, 540), (957, 540), (957, 540), (957, 540), (957, 540), (957, 540), (957, 540), (957, 540), (957, 540), (957, 540), (957, 540), (957, 540), (964, 524), (971, 511), (986, 487), (1062, 350), (1095, 303), (1123, 256), (1144, 216), (1180, 155)]",299.7448812969422,"[8, 4, 5, 1, 6, 2, 7, 9, 3]","(0, 0.25)",CHN001A,CHN,A,English,Thu Aug 02 14:59:19 2018,Mouse
1,1,1,0,71,1,1,1,850,190,660,135,0,500,200,8000,"[(960, 540), (960, 540), (960, 540), (960, 540), (960, 540), (960, 540), (960, 540), (960, 540), (960, 540), (960, 540), (960, 540), (960, 540), (960, 540), (960, 540), (960, 540), (960, 540), (960, 540), (960, 540), (959, 540), (957, 540), (957, 540), (957, 540), (955, 540), (955, 540), (954, 540), (954, 540), (954, 540), (954, 540), (954, 540), (954, 540), (950, 540), (945, 540), (941, 540), (932, 540), (921, 540), (917, 539), (914, 539), (911, 538), (906, 536), (903, 535), (902, 534), (898, 531), (885, 523), (876, 516), (858, 504), (839, 494), (790, 464), (769, 456), (744, 446), (723, 437), (695, 428), (686, 426), (678, 425), (676, 425), (676, 425), (676, 425), (676, 425), (676, 425), (676, 426), (676, 427), (678, 430), (682, 438), (688, 450), (693, 459), (698, 469), (704, 480), (717, 510), (725, 532), (735, 563), (742, 596), (753, 682), (761, 723), (768, 761), (771, 792), (771, 829), (771, 841), (771, 851), (770, 858), (767, 867), (763, 869), (761, 870), (757, 871), (749, 875), (743, 876), (734, 878)]",123.76823361597555,"[8, 4, 5, 1, 6, 2, 7, 9, 3]","(0, 0.25)",CHN001A,CHN,A,English,Thu Aug 02 14:59:19 2018,Mouse
1,1,1,0,72,8,9,0,-930,740,190,134,0,500,200,8000,"[(960, 540), (960, 540), (960, 540), (960, 540), (960, 540), (960, 540), (960, 540), (960, 540), (960, 540), (960, 540), (960, 540), (960, 540), (960, 540), (960, 540), (960, 540), (960, 540), (960, 540), (960, 540), (960, 540), (960, 540), (960, 540), (960, 540), (960, 540), (960, 540), (960, 540), (960, 540), (960, 540), (960, 540), (960, 540), (960, 540), (960, 540), (960, 540), (960, 540), (960, 540), (960, 540), (960, 540), (960, 540), (960, 540), (960, 540), (960, 540), (960, 540), (960, 540), (960, 540), (960, 540), (960, 540), (960, 540), (960, 540), (960, 540), (960, 540), (960, 540), (960, 540), (960, 540), (960, 540), (960, 540), (960, 540), (960, 540), (960, 540), (960, 540), (960, 540), (960, 540), (960, 540), (960, 540), (960, 540), (960, 540), (960, 540), (960, 540), (960, 540), (960, 540), (960, 540), (960, 540), (960, 540), (960, 540), (960, 540), (960, 539), (959, 539), (959, 539), (956, 538), (955, 537), (954, 534), (954, 528), (965, 497), (982, 472), (1000, 437), (1016, 407), (1045, 348), (1062, 320), (1078, 293), (1099, 265), (1128, 221), (1135, 207), (1139, 196), (1144, 185), (1149, 170)]",297.05843643687115,"[8, 4, 5, 1, 6, 2, 7, 9, 3]","(0, 0.25)",CHN001A,CHN,A,English,Thu Aug 02 14:59:19 2018,Mouse
1,1,1,0,73,2,2,1,920,790,130,135,0,500,200,8000,"[(960, 540), (960, 540), (960, 540), (960, 540), (960, 540), (960, 540), (960, 540), (960, 540), (960, 540), (960, 540), (960, 540), (960, 540), (960, 540), (960, 540), (960, 540), (960, 540), (960, 540), (960, 540), (960, 540), (960, 540), (960, 540), (960, 540), (960, 540), (960, 540), (960, 540), (960, 540), (960, 540), (960, 540), (960, 540), (960, 540), (960, 540), (960, 540), (960, 540), (960, 540), (960, 540), (960, 540), (960, 540), (960, 540), (960, 540), (960, 540), (960, 540), (960, 540), (960, 540), (960, 540), (960, 540), (960, 540), (960, 540), (960, 540), (960, 540), (960, 540), (960, 540), (960, 540), (960, 540), (960, 540), (960, 540), (960, 540), (960, 540), (960, 540), (960, 540), (960, 540), (960, 540), (960, 540), (960, 540), (960, 540), (960, 540), (960, 540), (960, 540), (960, 540), (960, 540), (960, 540), (960, 540), (960, 540), (960, 540), (960, 540), (960, 540), (960, 540), (960, 540), (960, 540), (959, 540), (958, 540), (953, 540), (944, 540), (923, 540), (907, 537), (888, 532), (860, 524), (796, 497), (758, 474), (720, 451), (689, 429), (624, 379), (600, 359)]",206.6922336086175,"[8, 4, 5, 1, 6, 2, 7, 9, 3]","(0, 0.25)",CHN001A,CHN,A,English,Thu Aug 02 14:59:19 2018,Mouse
1,1,1,0,74,5,5,1,1390,1020,370,135,0,500,200,8000,"[(960, 540), (960, 540), (960, 540), (960, 540), (960, 540), (960, 540), (960, 540), (960, 540), (960, 540), (960, 540), (960, 540), (960, 540), (960, 540), (960, 540), (960, 540), (960, 540), (960, 540), (960, 540), (960, 540), (960, 540), (960, 540), (960, 540), (960, 540), (960, 540), (960, 540), (960, 540), (960, 540), (960, 540), (960, 540), (960, 540), (960, 540), (960, 540), (960, 540), (960, 540), (960, 540), (960, 540), (960, 540), (960, 540), (960, 540), (960, 540), (960, 540), (960, 540), (960, 540), (960, 540), (960, 540), (960, 540), (960, 540), (960, 540), (960, 540), (960, 540), (960, 540), (960, 540), (960, 540), (960, 540), (960, 540), (960, 540), (960, 540), (960, 540), (960, 540), (960, 540), (960, 540), (960, 540), (960, 540), (960, 540), (960, 540), (960, 540), (960, 540), (960, 540), (960, 540), (960, 540), (960, 540), (960, 540), (960, 540), (960, 540), (960, 540), (960, 540), (960, 540), (960, 540), (960, 540), (960, 540), (960, 540), (960, 540), (960, 540), (960, 540), (960, 540), (960, 540), (960, 540), (960, 540), (960, 540), (960, 540), (960, 540), (960, 540), (960, 540), (960, 540), (960, 540), (960, 540), (960, 540), (960, 540), (960, 540), (960, 540), (960, 540), (960, 537), (960, 537), (961, 536), (962, 535), (962, 535), (963, 534), (963, 534), (963, 534), (963, 534), (963, 534), (963, 534), (963, 534), (963, 534), (963, 534), (963, 534), (963, 534), (963, 534), (963, 534), (963, 534), (963, 534), (963, 534), (963, 534), (963, 534), (963, 534), (961, 536), (957, 547), (951, 563), (941, 587), (922, 636), (915, 658), (909, 678), (904, 692), (891, 737), (887, 756), (874, 788), (863, 832), (840, 920), (830, 969)]",106.85839876773828,"[8, 4, 5, 1, 6, 2, 7, 9, 3]","(0, 0.25)",CHN001A,CHN,A,English,Thu Aug 02 14:59:19 2018,Mouse
1,1,1,0,75,6,9,0,-530,460,70,134,0,500,200,8000,"[(960, 540), (960, 540), (960, 540), (960, 540), (960, 540), (960, 540), (960, 540), (960, 540), (960, 540), (960, 540), (960, 540), (960, 540), (960, 540), (960, 540), (960, 540), (960, 540), (960, 540), (960, 540), (960, 540), (960, 540), (960, 540), (960, 540), (960, 540), (960, 540), (960, 540), (960, 540), (960, 540), (960, 540), (960, 540), (960, 540), (960, 540), (960, 540), (960, 540), (960, 540), (960, 540), (960, 540), (960, 540), (960, 540), (960, 540), (960, 540), (960, 540), (960, 540), (960, 540), (960, 540), (960, 540), (975, 519), (985, 503), (1008, 467), (1028, 431), (1079, 339), (1107, 289), (1139, 235), (1170, 183)]",300.4655449194599,"[8, 4, 5, 1, 6, 2, 7, 9, 3]","(0, 0.25)",CHN001A,CHN,A,English,Thu Aug 02 14:59:19 2018,Mouse
1,1,1,0,76,1,1,1,999,59,940,135,0,500,200,8000,"[(960, 540), (960, 540), (960, 540), (960, 540), (960, 540), (958, 542), (957, 542), (955, 543), (954, 543), (954, 543), (954, 543), (954, 543), (954, 543), (954, 543), (954, 543), (954, 543), (954, 543), (954, 543), (954, 543), (954, 543), (954, 543), (954, 543), (954, 543), (954, 543), (954, 543), (954, 543), (954, 543), (954, 543), (954, 543), (954, 543), (954, 543), (954, 543), (954, 543), (954, 543), (954, 543), (954, 543), (954, 543), (954, 543), (954, 543), (954, 543), (954, 543), (954, 543), (954, 543), (954, 543), (954, 543), (954, 543), (954, 543), (954, 543), (954, 543), (954, 543), (954, 543), (954, 543), (954, 543), (954, 543), (954, 543), (954, 543), (954, 543), (954, 543), (954, 543), (954, 543), (954, 543), (954, 543), (954, 543), (954, 543), (954, 543), (954, 543), (954, 543), (954, 543), (954, 543), (954, 543), (954, 543), (954, 543), (954, 543), (954, 543), (954, 543), (954, 543), (954, 543), (954, 543), (954, 543), (954, 543), (954, 543), (954, 543), (954, 543), (954, 543), (954, 543), (953, 544), (951, 546), (942, 556), (931, 568), (913, 591), (892, 619), (835, 698), (806, 735), (784, 768), (761, 804), (742, 836), (734, 846), (729, 853), (725, 860), (719, 866)]",126.47417581129993,"[8, 4, 5, 1, 6, 2, 7, 9, 3]","(0, 0.25)",CHN001A,CHN,A,English,Thu Aug 02 14:59:19 2018,Mouse
1,1,1,0,77,5,9,0,-710,110,600,135,0,500,200,8000,"[(960, 540), (960, 540), (960, 540), (960, 540), (960, 540), (960, 540), (960, 540), (960, 540), (960, 540), (960, 540), (955, 540), (952, 540), (951, 540), (951, 540), (951, 540), (951, 540), (951, 540), (951, 540), (951, 540), (951, 540), (951, 540), (951, 540), (951, 540), (951, 540), (951, 540), (951, 540), (951, 540), (951, 540), (951, 540), (951, 540), (951, 540), (951, 540), (951, 540), (951, 540), (951, 540), (951, 540), (951, 540), (951, 540), (951, 540), (951, 540), (951, 540), (951, 540), (951, 540), (951, 540), (951, 540), (951, 540), (951, 540), (951, 540), (951, 540), (951, 540), (951, 540), (951, 540), (951, 540), (951, 540), (951, 540), (951, 540), (951, 540), (951, 540), (951, 540), (951, 540), (951, 540), (951, 540), (957, 530), (968, 518), (979, 502), (992, 477), (1023, 390), (1044, 332), (1060, 268), (1077, 215), (1111, 115)]",289.5598265921009,"[8, 4, 5, 1, 6, 2, 7, 9, 3]","(0, 0.25)",CHN001A,CHN,A,English,Thu Aug 02 14:59:19 2018,Mouse
1,1,1,0,78,9,9,1,531,331,200,136,0,500,200,8000,"[(960, 540), (960, 540), (960, 540), (960, 540), (960, 540), (960, 540), (960, 540), (960, 540), (960, 540), (960, 540), (960, 540), (960, 540), (960, 540), (960, 540), (960, 540), (960, 540), (960, 540), (960, 540), (960, 540), (960, 540), (960, 540), (960, 540), (960, 540), (960, 540), (960, 540), (960, 540), (960, 540), (960, 540), (960, 540), (960, 540), (960, 540), (960, 540), (960, 540), (965, 530), (981, 495), (1012, 428), (1026, 396), (1038, 367), (1047, 344), (1074, 300), (1086, 279), (1098, 259), (1104, 248), (1111, 229), (1113, 225), (1115, 221), (1116, 218), (1119, 204), (1119, 197), (1120, 191), (1120, 186), (1122, 177), (1122, 175), (1123, 172)]",293.89021885711213,"[8, 4, 5, 1, 6, 2, 7, 9, 3]","(0, 0.25)",CHN001A,CHN,A,English,Thu Aug 02 14:59:19 2018,Mouse
1,1,1,0,79,8,8,1,1211,661,550,136,0,500,200,8000,"[(960, 540), (960, 540), (960, 540), (960, 540), (960, 540), (960, 540), (960, 540), (960, 540), (960, 540), (960, 540), (960, 540), (960, 540), (960, 540), (960, 540), (960, 540), (960, 540), (960, 540), (960, 540), (960, 540), (960, 540), (960, 540), (960, 540), (960, 540), (960, 540), (960, 540), (960, 540), (960, 540), (960, 540), (960, 540), (960, 540), (960, 540), (960, 540), (960, 540), (960, 540), (960, 540), (960, 540), (960, 540), (960, 540), (960, 540), (960, 540), (960, 540), (960, 540), (960, 540), (960, 540), (960, 540), (960, 540), (960, 540), (960, 540), (960, 540), (960, 540), (960, 540), (960, 540), (960, 540), (960, 540), (960, 540), (960, 540), (960, 540), (960, 540), (960, 540), (960, 540), (960, 540), (960, 540), (960, 540), (960, 540), (960, 540), (959, 540), (959, 542), (959, 542), (964, 542), (967, 542), (968, 542), (969, 542), (971, 541), (972, 541), (974, 540), (974, 540), (974, 540), (974, 540), (974, 540), (974, 540), (974, 540), (974, 540), (975, 540), (975, 540), (975, 540), (976, 540), (978, 540), (980, 540), (986, 537), (990, 537), (991, 536), (992, 536), (992, 535), (992, 535), (992, 535), (992, 535), (992, 535), (992, 534), (992, 534), (992, 532), (992, 530), (992, 530), (992, 529), (992, 529), (992, 529), (992, 529), (992, 529), (992, 529), (992, 529), (992, 529), (992, 529), (993, 529), (997, 532), (1003, 539), (1015, 546), (1034, 559), (1098, 589), (1147, 611), (1195, 631), (1241, 653), (1353, 699)]",22.02727866917134,"[8, 4, 5, 1, 6, 2, 7, 9, 3]","(0, 0.25)",CHN001A,CHN,A,English,Thu Aug 02 14:59:19 2018,Mouse
1,1,1,0,80,6,9,0,-1150,1070,80,135,0,500,200,8000,"[(960, 540), (960, 540), (960, 540), (960, 540), (960, 540), (960, 540), (960, 540), (960, 540), (960, 540), (960, 540), (960, 540), (960, 540), (960, 540), (960, 540), (960, 540), (960, 540), (960, 540), (960, 540), (960, 540), (960, 540), (960, 540), (960, 540), (960, 540), (960, 540), (960, 540), (960, 540), (960, 540), (960, 540), (960, 540), (960, 540), (960, 540), (960, 540), (960, 540), (960, 540), (960, 540), (960, 540), (960, 540), (960, 540), (960, 540), (960, 540), (960, 540), (960, 540), (960, 540), (960, 540), (960, 540), (960, 540), (960, 540), (960, 540), (960, 540), (960, 540), (960, 540), (960, 540), (960, 540), (960, 540), (960, 540), (960, 540), (960, 540), (960, 540), (960, 540), (960, 540), (960, 540), (960, 540), (960, 540), (960, 540), (960, 540), (960, 540), (960, 540), (960, 540), (960, 540), (960, 540), (960, 540), (960, 540), (960, 540), (960, 540), (960, 540), (960, 540), (960, 540), (960, 540), (960, 540), (960, 540), (960, 540), (960, 540), (960, 540), (960, 540), (960, 540), (960, 540), (960, 540), (960, 540), (960, 540), (960, 540), (960, 540), (960, 540), (960, 540), (960, 540), (960, 540), (960, 540), (960, 540), (960, 540), (960, 540), (960, 540), (960, 540), (960, 540), (960, 540), (960, 540), (960, 540), (960, 540), (967, 534), (975, 524), (988, 510), (1014, 478), (1074, 389), (1114, 336), (1151, 273), (1183, 219), (1228, 132)]",303.2994205371842,"[8, 4, 5, 1, 6, 2, 7, 9, 3]","(0, 0.25)",CHN001A,CHN,A,English,Thu Aug 02 14:59:19 2018,Mouse
1,1,1,0,81,5,3,0,-450,190,260,136,0,500,200,8000,"[(960, 539), (960, 539), (960, 539), (960, 539), (960, 539), (960, 539), (960, 539), (960, 539), (960, 539), (960, 539), (960, 539), (960, 539), (960, 539), (960, 539), (960, 539), (960, 539), (960, 539), (960, 539), (960, 538), (960, 538), (960, 538), (960, 537), (960, 536), (960, 536), (960, 536), (960, 536), (960, 536), (961, 536), (965, 534), (975, 532), (1010, 517), (1039, 506), (1067, 497), (1090, 490), (1136, 471), (1151, 466), (1171, 457), (1199, 442), (1244, 419), (1265, 410), (1282, 403), (1295, 397), (1317, 390), (1327, 387), (1336, 385)]",337.596876138449,"[8, 4, 5, 1, 6, 2, 7, 9, 3]","(0, 0.25)",CHN001A,CHN,A,English,Thu Aug 02 14:59:19 2018,Mouse
1,1,1,0,82,8,8,1,349,29,320,137,0,500,200,8000,"[(960, 540), (960, 540), (960, 539), (959, 539), (959, 539), (959, 539), (959, 539), (959, 539), (959, 539), (959, 539), (959, 539), (959, 539), (959, 539), (959, 539), (959, 539), (959, 539), (959, 539), (959, 539), (959, 539), (959, 540), (963, 542), (966, 542), (970, 544), (973, 547), (985, 553), (995, 557), (1004, 561), (1018, 565), (1068, 588), (1103, 602), (1145, 618), (1192, 631), (1278, 654), (1317, 665), (1350, 676)]",19.224580320446275,"[8, 4, 5, 1, 6, 2, 7, 9, 3]","(0, 0.25)",CHN001A,CHN,A,English,Thu Aug 02 14:59:19 2018,Mouse
1,1,1,0,83,4,9,0,-1631,321,1310,137,0,500,200,8000,"[(960, 540), (960, 540), (960, 540), (960, 540), (960, 540), (960, 540), (960, 540), (960, 540), (960, 540), (960, 540), (960, 540), (960, 540), (960, 540), (960, 540), (960, 540), (960, 540), (960, 540), (960, 540), (960, 540), (960, 540), (960, 540), (960, 540), (960, 540), (960, 540), (960, 540), (960, 540), (960, 540), (960, 540), (960, 540), (960, 540), (960, 540), (960, 540), (959, 540), (957, 540), (957, 540), (957, 540), (957, 540), (957, 540), (957, 540), (957, 540), (957, 540), (957, 540), (957, 540), (957, 540), (957, 540), (957, 540), (957, 540), (957, 540), (957, 540), (957, 540), (957, 540), (957, 540), (957, 540), (957, 540), (957, 540), (957, 540), (957, 540), (957, 540), (957, 540), (957, 540), (957, 540), (957, 540), (957, 540), (957, 540), (957, 540), (957, 540), (957, 540), (957, 540), (957, 540), (957, 540), (957, 540), (957, 540), (957, 540), (957, 540), (957, 540), (957, 540), (957, 540), (957, 540), (957, 540), (957, 540), (957, 540), (957, 540), (957, 540), (957, 540), (957, 540), (957, 540), (957, 540), (957, 540), (957, 540), (957, 540), (957, 540), (957, 540), (957, 540), (957, 540), (957, 540), (957, 540), (957, 540), (957, 540), (957, 540), (957, 540), (957, 540), (957, 540), (957, 540), (957, 540), (957, 540), (957, 540), (957, 540), (957, 540), (957, 540), (957, 540), (957, 540), (957, 540), (957, 540), (957, 540), (957, 540), (957, 540), (957, 540), (957, 540), (957, 540), (957, 540), (957, 540), (957, 540), (957, 540), (957, 540), (957, 540), (957, 540), (957, 540), (957, 540), (957, 540), (957, 540), (957, 540), (957, 540), (959, 540), (976, 521), (987, 503), (996, 483), (1004, 464), (1018, 429), (1028, 408), (1035, 393), (1038, 376), (1050, 337), (1053, 321), (1057, 307), (1057, 297), (1061, 277), (1061, 270), (1063, 260), (1065, 253), (1069, 238), (1072, 232), (1072, 228), (1076, 221), (1077, 213), (1077, 210), (1078, 206), (1081, 201), (1085, 191), (1088, 185), (1090, 181), (1092, 174), (1095, 167), (1096, 164), (1097, 161)]",289.8737867445257,"[8, 4, 5, 1, 6, 2, 7, 9, 3]","(0, 0.25)",CHN001A,CHN,A,English,Thu Aug 02 14:59:19 2018,Mouse
1,1,1,0,84,6,6,1,2280,1809,471,138,0,500,200,8000,"[(960, 540), (960, 540), (960, 540), (960, 540), (960, 540), (960, 540), (960, 540), (960, 540), (960, 540), (960, 540), (960, 540), (960, 540), (960, 540), (960, 540), (960, 540), (960, 540), (960, 540), (960, 540), (960, 540), (960, 540), (960, 540), (960, 540), (960, 540), (960, 540), (960, 540), (960, 540), (960, 540), (960, 540), (960, 540), (960, 540), (960, 540), (960, 540), (960, 540), (960, 540), (960, 540), (960, 540), (960, 540), (960, 540), (960, 540), (960, 540), (960, 540), (960, 540), (960, 540), (960, 540), (960, 540), (960, 540), (960, 540), (960, 540), (960, 540), (960, 540), (960, 540), (960, 540), (960, 540), (960, 540), (960, 540), (960, 540), (960, 540), (960, 540), (960, 540), (960, 540), (960, 540), (960, 540), (960, 540), (960, 540), (960, 540), (960, 540), (960, 540), (960, 540), (960, 540), (960, 540), (960, 540), (960, 540), (960, 540), (960, 540), (960, 540), (960, 540), (960, 540), (960, 540), (960, 540), (960, 540), (960, 540), (960, 540), (960, 540), (960, 540), (960, 540), (960, 540), (960, 540), (960, 540), (960, 540), (960, 540), (960, 540), (960, 540), (960, 540), (960, 540), (960, 540), (960, 540), (960, 540), (960, 540), (960, 540), (960, 540), (960, 540), (960, 540), (960, 540), (960, 540), (960, 540), (960, 540), (960, 540), (960, 540), (960, 540), (960, 540), (960, 540), (960, 540), (960, 540), (960, 540), (960, 540), (960, 540), (960, 540), (960, 540), (960, 540), (960, 540), (960, 540), (960, 540), (960, 540), (960, 540), (960, 540), (960, 540), (960, 540), (960, 540), (960, 540), (960, 540), (960, 540), (960, 540), (960, 540), (960, 540), (960, 540), (960, 540), (960, 540), (960, 540), (960, 540), (960, 540), (960, 540), (960, 540), (960, 540), (960, 540), (960, 540), (960, 540), (960, 540), (960, 540), (960, 540), (960, 540), (960, 540), (960, 540), (960, 540), (960, 540), (960, 540), (960, 540), (960, 540), (960, 540), (960, 540), (960, 540), (960, 540), (960, 540), (960, 540), (960, 540), (960, 540), (960, 540), (960, 540), (960, 540), (960, 540), (960, 540), (960, 540), (960, 540), (960, 540), (960, 540), (960, 540), (960, 540), (960, 540), (960, 540), (960, 540), (960, 540), (960, 541), (960, 541), (960, 541), (960, 541), (958, 542), (958, 542), (958, 542), (958, 542), (958, 542), (958, 542), (958, 542), (958, 542), (958, 542), (958, 542), (958, 542), (958, 542), (958, 542), (958, 542), (957, 542), (957, 542), (956, 542), (956, 542), (956, 542), (956, 542), (956, 542), (956, 542), (956, 542), (956, 542), (956, 542), (956, 542), (956, 542), (956, 542), (956, 542), (956, 542), (956, 542), (956, 542), (952, 542), (947, 542), (936, 546), (923, 550), (870, 564), (834, 575), (784, 587), (737, 603), (651, 626), (613, 633), (581, 638), (552, 641)]",166.09600275888437,"[8, 4, 5, 1, 6, 2, 7, 9, 3]","(0, 0.25)",CHN001A,CHN,A,English,Thu Aug 02 14:59:19 2018,Mouse
1,1,1,0,85,7,9,0,-500,360,140,138,0,500,200,8000,"[(960, 540), (960, 540), (960, 540), (960, 540), (960, 540), (960, 540), (960, 540), (960, 540), (960, 540), (960, 540), (960, 540), (960, 540), (960, 540), (960, 540), (960, 540), (960, 540), (960, 540), (960, 540), (960, 540), (960, 540), (960, 540), (960, 540), (960, 540), (960, 540), (960, 540), (960, 540), (960, 540), (960, 540), (960, 540), (960, 540), (960, 540), (960, 540), (960, 540), (960, 540), (960, 540), (962, 539), (964, 537), (967, 534), (972, 526), (985, 510), (995, 494), (1011, 474), (1022, 455), (1051, 408), (1068, 373), (1077, 337), (1080, 303), (1080, 214), (1080, 161), (1080, 114)]",285.7320047851073,"[8, 4, 5, 1, 6, 2, 7, 9, 3]","(0, 0.25)",CHN001A,CHN,A,English,Thu Aug 02 14:59:19 2018,Mouse
1,1,1,0,86,9,9,1,460,310,150,139,0,500,200,8000,"[(960, 540), (960, 540), (960, 540), (960, 540), (960, 540), (960, 540), (960, 540), (960, 540), (960, 540), (960, 540), (960, 540), (960, 540), (960, 540), (960, 540), (960, 540), (960, 540), (960, 540), (960, 540), (960, 540), (960, 540), (960, 540), (960, 540), (960, 540), (960, 540), (960, 540), (960, 540), (960, 540), (960, 540), (960, 540), (960, 540), (960, 539), (967, 527), (985, 489), (998, 467), (1010, 446), (1026, 419), (1058, 364), (1073, 337), (1090, 312), (1100, 293), (1129, 253), (1137, 242), (1148, 226), (1154, 216), (1166, 200), (1172, 191)]",301.27658212317954,"[8, 4, 5, 1, 6, 2, 7, 9, 3]","(0, 0.25)",CHN001A,CHN,A,English,Thu Aug 02 14:59:19 2018,Mouse
1,1,1,0,87,8,8,1,730,580,150,139,0,500,200,8000,"[(960, 540), (960, 540), (960, 540), (960, 540), (960, 540), (960, 540), (960, 540), (960, 540), (960, 540), (960, 540), (960, 540), (960, 540), (960, 540), (960, 540), (960, 540), (960, 540), (960, 540), (960, 540), (960, 540), (960, 540), (960, 540), (960, 540), (960, 540), (960, 540), (960, 540), (960, 540), (960, 540), (960, 540), (960, 540), (960, 540), (960, 540), (960, 540), (960, 540), (960, 540), (960, 540), (960, 540), (960, 540), (960, 540), (960, 540), (960, 540), (960, 540), (960, 540), (960, 540), (960, 540), (960, 540), (960, 540), (960, 540), (960, 540), (960, 540), (960, 540), (960, 540), (960, 540), (960, 540), (960, 540), (960, 540), (960, 540), (960, 540), (964, 540), (966, 541), (969, 542), (970, 543), (977, 544), (983, 548), (992, 551), (1002, 557), (1033, 574), (1053, 586), (1079, 597), (1111, 611), (1193, 644), (1243, 660), (1290, 674), (1337, 688)]",21.433628699473573,"[8, 4, 5, 1, 6, 2, 7, 9, 3]","(0, 0.25)",CHN001A,CHN,A,English,Thu Aug 02 14:59:19 2018,Mouse
1,1,1,0,88,9,8,0,-819,699,120,138,0,500,200,8000,"[(960, 540), (960, 540), (960, 540), (960, 540), (960, 540), (960, 540), (960, 540), (960, 540), (960, 540), (960, 540), (960, 540), (960, 540), (960, 540), (960, 540), (960, 540), (960, 540), (960, 540), (960, 540), (960, 540), (960, 540), (960, 540), (960, 540), (960, 540), (960, 540), (960, 540), (960, 540), (960, 540), (960, 540), (960, 540), (960, 540), (960, 540), (960, 540), (960, 540), (960, 540), (960, 540), (960, 540), (960, 540), (960, 540), (960, 540), (960, 540), (960, 540), (960, 540), (960, 540), (960, 540), (960, 540), (960, 540), (960, 540), (960, 540), (960, 540), (960, 540), (960, 540), (960, 540), (960, 540), (960, 540), (960, 540), (960, 540), (960, 540), (960, 540), (960, 540), (960, 540), (960, 540), (960, 540), (960, 540), (960, 540), (960, 540), (960, 540), (960, 540), (960, 540), (960, 540), (962, 540), (968, 540), (989, 542), (1007, 549), (1028, 552), (1047, 556), (1098, 564), (1130, 570), (1168, 578), (1207, 589), (1290, 609), (1334, 621), (1368, 632)]",12.707113501316591,"[8, 4, 5, 1, 6, 2, 7, 9, 3]","(0, 0.25)",CHN001A,CHN,A,English,Thu Aug 02 14:59:19 2018,Mouse
1,1,1,0,89,8,8,1,381,231,150,139,0,500,200,8000,"[(960, 540), (960, 540), (960, 540), (960, 540), (960, 540), (960, 540), (960, 540), (960, 540), (960, 540), (960, 540), (960, 540), (960, 540), (960, 540), (960, 540), (960, 540), (960, 540), (960, 540), (960, 540), (960, 540), (960, 540), (960, 540), (960, 540), (960, 540), (961, 540), (961, 540), (965, 540), (972, 540), (983, 540), (995, 540), (1029, 540), (1048, 540), (1079, 541), (1109, 546), (1186, 555), (1227, 563), (1264, 566), (1292, 573), (1348, 589), (1368, 596)]",7.815293546766876,"[8, 4, 5, 1, 6, 2, 7, 9, 3]","(0, 0.25)",CHN001A,CHN,A,English,Thu Aug 02 14:59:19 2018,Mouse
1,1,1,0,90,5,5,1,861,781,80,139,0,500,200,8000,"[(960, 540), (960, 540), (960, 540), (960, 540), (960, 540), (960, 540), (960, 540), (960, 540), (960, 540), (960, 540), (960, 540), (960, 540), (960, 540), (960, 540), (960, 540), (960, 540), (960, 540), (960, 540), (960, 540), (960, 540), (960, 540), (960, 540), (960, 540), (960, 540), (960, 540), (960, 540), (960, 540), (960, 540), (960, 540), (960, 540), (960, 540), (960, 540), (960, 540), (960, 540), (960, 540), (960, 540), (960, 540), (960, 540), (960, 540), (960, 540), (960, 540), (960, 540), (960, 540), (960, 540), (960, 540), (960, 540), (960, 540), (960, 540), (960, 540), (960, 540), (960, 540), (960, 540), (960, 540), (960, 540), (960, 540), (960, 540), (960, 540), (960, 540), (960, 540), (960, 540), (960, 540), (960, 540), (960, 540), (960, 540), (960, 540), (960, 540), (960, 540), (960, 540), (960, 540), (960, 540), (960, 540), (960, 540), (960, 540), (960, 540), (960, 540), (960, 540), (960, 540), (957, 545), (950, 560), (943, 581), (934, 601), (905, 667), (887, 718), (868, 771), (856, 820), (826, 926)]",109.14445781119666,"[8, 4, 5, 1, 6, 2, 7, 9, 3]","(0, 0.25)",CHN001A,CHN,A,English,Thu Aug 02 14:59:19 2018,Mouse
1,1,1,0,91,6,6,1,1470,1110,360,138,0,500,200,8000,"[(960, 540), (960, 540), (960, 540), (960, 540), (960, 540), (960, 540), (960, 540), (960, 540), (960, 540), (960, 540), (960, 540), (960, 540), (960, 540), (960, 540), (960, 540), (960, 540), (960, 540), (960, 540), (960, 540), (960, 540), (960, 540), (960, 540), (960, 540), (960, 540), (960, 540), (960, 540), (960, 540), (960, 540), (960, 540), (960, 540), (960, 540), (960, 540), (960, 540), (960, 540), (960, 540), (960, 540), (960, 540), (960, 540), (960, 540), (960, 540), (960, 540), (960, 540), (960, 540), (960, 540), (960, 540), (960, 540), (960, 540), (960, 540), (960, 540), (960, 540), (960, 540), (960, 540), (960, 540), (960, 540), (960, 540), (960, 540), (960, 540), (960, 540), (960, 540), (960, 540), (960, 540), (960, 540), (960, 540), (960, 540), (960, 540), (960, 540), (960, 540), (960, 540), (960, 540), (960, 540), (960, 540), (960, 540), (960, 540), (960, 540), (960, 540), (960, 540), (960, 540), (960, 540), (960, 540), (960, 540), (960, 540), (960, 540), (960, 540), (960, 540), (960, 540), (960, 540), (960, 540), (960, 540), (960, 540), (960, 540), (960, 540), (960, 540), (960, 540), (960, 540), (960, 540), (960, 540), (960, 540), (960, 540), (960, 540), (960, 540), (960, 540), (960, 540), (960, 540), (960, 540), (960, 540), (960, 540), (960, 540), (960, 540), (960, 540), (960, 540), (946, 542), (935, 545), (924, 551), (902, 563), (856, 590), (829, 606), (807, 620), (782, 633), (760, 640), (755, 640), (749, 640), (745, 640), (737, 637), (731, 634), (723, 629), (717, 625), (702, 613), (693, 605), (683, 597), (673, 590), (656, 578), (650, 573), (648, 571), (646, 570), (643, 569), (640, 568), (637, 565), (632, 563), (623, 559), (615, 556), (611, 555), (606, 554), (595, 550), (589, 549), (581, 549), (573, 546), (557, 545)]",179.28917072092884,"[8, 4, 5, 1, 6, 2, 7, 9, 3]","(0, 0.25)",CHN001A,CHN,A,English,Thu Aug 02 14:59:19 2018,Mouse
