NativeLangNumber,LanuageNumber,SessionNumber,Block,TrialNum,ConditionNumber,Response,Accuracy,RT,MovementOnsetTime,TimeInMotion,SignalContrast,SignalContrastNumber,StimDisplayTime,MaskTime,MaxResponseTime,MousePositionXY,MouseAngle,WheelOrder,NoiseMuSigma,ParticipantID,LanuageTested,SessionTested,NativeLanuage,Date,ResponseDevice
1,1,4,0,1,4,4,1,1184,334,850,153,0,500,200,8000,"[(960, 540), (960, 540), (960, 540), (960, 540), (960, 540), (960, 540), (960, 540), (960, 540), (960, 540), (960, 540), (960, 540), (960, 540), (960, 540), (960, 540), (960, 540), (960, 540), (960, 540), (960, 540), (960, 540), (960, 540), (960, 540), (960, 540), (960, 540), (960, 540), (960, 540), (960, 540), (960, 540), (960, 540), (960, 540), (960, 540), (960, 540), (960, 540), (960, 540), (959, 542), (959, 542), (959, 543), (959, 543), (959, 543), (959, 544), (957, 545), (957, 546), (957, 546), (957, 546), (957, 546), (957, 546), (956, 548), (956, 548), (956, 548), (956, 548), (956, 548), (956, 548), (955, 549), (955, 549), (955, 549), (955, 549), (955, 549), (955, 549), (955, 549), (955, 549), (955, 549), (955, 549), (955, 549), (954, 550), (953, 551), (953, 551), (952, 552), (952, 552), (950, 554), (950, 554), (948, 555), (948, 556), (946, 557), (946, 557), (946, 558), (944, 559), (943, 560), (942, 561), (941, 562), (941, 563), (938, 564), (937, 565), (936, 566), (936, 566), (934, 568), (933, 569), (932, 570), (931, 571), (929, 573), (928, 574), (927, 575), (926, 576), (923, 578), (922, 580), (919, 582), (918, 584), (913, 587), (913, 588), (910, 590), (907, 593), (900, 598), (898, 600), (894, 603), (890, 607), (878, 618), (872, 624), (865, 628), (859, 634), (843, 646), (834, 652), (822, 658), (812, 666), (789, 685), (773, 699), (753, 716), (736, 729), (695, 762), (678, 775), (657, 790), (640, 805)]",140.37099469553573,"[9, 5, 3, 4, 1, 8, 6, 2, 7]","(0, 0.25)",CHN010D,CHN,D,English,Wed Sep 05 15:02:45 2018,Mouse
1,1,4,0,2,4,4,1,440,120,320,153,0,500,200,8000,"[(960, 540), (960, 540), (960, 540), (960, 540), (960, 540), (960, 540), (960, 540), (960, 540), (960, 540), (960, 540), (960, 540), (959, 541), (956, 542), (954, 544), (952, 547), (949, 554), (946, 558), (946, 562), (941, 568), (931, 583), (926, 588), (922, 593), (916, 597), (906, 604), (898, 608), (890, 613), (881, 618), (862, 631), (850, 639), (837, 649), (828, 655), (791, 675), (770, 683), (751, 695), (734, 705), (714, 717), (708, 722), (700, 729), (694, 737), (684, 754), (678, 764), (673, 774), (666, 781), (653, 800)]",139.73855231289042,"[9, 5, 3, 4, 1, 8, 6, 2, 7]","(0, 0.25)",CHN010D,CHN,D,English,Wed Sep 05 15:02:45 2018,Mouse
1,1,4,0,3,4,4,1,359,69,290,152,0,500,200,8000,"[(960, 540), (960, 540), (960, 540), (960, 540), (960, 540), (960, 540), (959, 540), (958, 540), (957, 540), (957, 540), (953, 540), (953, 541), (952, 541), (952, 541), (950, 542), (950, 543), (950, 543), (949, 543), (947, 545), (946, 546), (944, 548), (942, 549), (937, 553), (932, 556), (926, 560), (921, 565), (906, 578), (897, 587), (879, 601), (859, 619), (811, 651), (781, 669), (748, 687), (713, 708), (629, 753), (588, 774)]",147.82878287145542,"[9, 5, 3, 4, 1, 8, 6, 2, 7]","(0, 0.25)",CHN010D,CHN,D,English,Wed Sep 05 15:02:45 2018,Mouse
1,1,4,0,4,6,6,1,1419,1249,170,151,0,500,200,8000,"[(960, 540), (960, 540), (960, 540), (960, 540), (960, 540), (960, 540), (960, 540), (960, 540), (960, 540), (960, 540), (960, 540), (960, 540), (960, 540), (960, 540), (960, 540), (960, 540), (960, 540), (960, 540), (960, 540), (960, 540), (960, 540), (960, 540), (960, 540), (960, 540), (960, 540), (960, 540), (960, 540), (960, 540), (960, 540), (960, 540), (960, 540), (960, 540), (960, 540), (960, 540), (960, 540), (960, 540), (960, 540), (960, 540), (960, 540), (960, 540), (960, 540), (960, 540), (960, 540), (960, 540), (960, 540), (960, 540), (960, 540), (960, 540), (960, 540), (960, 540), (960, 540), (960, 540), (960, 540), (960, 540), (960, 540), (960, 540), (960, 540), (960, 540), (960, 540), (960, 540), (960, 540), (960, 540), (960, 540), (960, 540), (960, 540), (960, 540), (960, 540), (960, 540), (960, 540), (960, 540), (960, 540), (960, 540), (960, 540), (960, 540), (960, 540), (960, 540), (960, 540), (960, 540), (960, 540), (960, 540), (960, 540), (960, 540), (960, 540), (960, 540), (960, 540), (960, 540), (960, 540), (960, 540), (960, 540), (960, 540), (960, 540), (960, 540), (960, 540), (960, 540), (960, 540), (960, 540), (960, 540), (960, 540), (960, 540), (960, 540), (960, 540), (960, 540), (960, 540), (960, 540), (960, 540), (960, 540), (960, 540), (960, 540), (960, 540), (960, 540), (960, 540), (960, 540), (960, 540), (960, 540), (960, 540), (960, 540), (960, 540), (960, 540), (960, 540), (960, 540), (960, 540), (960, 540), (960, 540), (960, 540), (960, 533), (960, 526), (957, 516), (957, 505), (957, 475), (953, 456), (952, 444), (951, 434), (948, 412), (947, 402), (947, 395), (947, 382), (947, 350), (942, 324), (942, 296), (942, 265), (942, 176), (942, 132)]",267.47388308838043,"[9, 5, 3, 4, 1, 8, 6, 2, 7]","(0, 0.25)",CHN010D,CHN,D,English,Wed Sep 05 15:02:45 2018,Mouse
1,1,4,0,5,1,1,1,359,279,80,150,0,500,200,8000,"[(960, 540), (960, 540), (960, 540), (960, 540), (960, 540), (960, 540), (960, 540), (960, 540), (960, 540), (960, 540), (960, 540), (960, 540), (960, 540), (960, 540), (960, 540), (960, 540), (960, 540), (960, 540), (960, 540), (960, 540), (960, 540), (960, 540), (960, 540), (960, 540), (960, 540), (960, 540), (960, 540), (956, 538), (919, 540), (883, 540), (839, 540), (792, 540), (689, 540), (636, 540), (589, 540), (539, 540)]",180.0,"[9, 5, 3, 4, 1, 8, 6, 2, 7]","(0, 0.25)",CHN010D,CHN,D,English,Wed Sep 05 15:02:45 2018,Mouse
1,1,4,0,6,3,3,1,429,179,250,149,0,500,200,8000,"[(960, 540), (960, 540), (960, 540), (960, 540), (960, 540), (960, 540), (960, 540), (960, 540), (960, 540), (960, 540), (960, 540), (960, 540), (960, 540), (960, 540), (960, 540), (960, 540), (960, 540), (960, 541), (960, 544), (960, 548), (960, 551), (960, 553), (960, 555), (960, 559), (960, 561), (960, 566), (960, 571), (960, 584), (960, 592), (960, 603), (960, 614), (960, 643), (960, 664), (958, 684), (958, 715), (958, 774), (958, 801), (958, 829), (958, 855), (956, 898), (952, 914), (946, 934), (944, 945)]",92.2623604741195,"[9, 5, 3, 4, 1, 8, 6, 2, 7]","(0, 0.25)",CHN010D,CHN,D,English,Wed Sep 05 15:02:45 2018,Mouse
1,1,4,0,7,2,2,1,410,230,180,148,0,500,200,8000,"[(960, 540), (960, 540), (960, 540), (960, 540), (960, 540), (960, 540), (960, 540), (960, 540), (960, 540), (960, 540), (960, 540), (960, 540), (960, 540), (960, 540), (960, 540), (960, 540), (960, 540), (960, 540), (960, 540), (960, 540), (960, 540), (960, 540), (960, 538), (962, 536), (963, 535), (963, 532), (964, 532), (968, 525), (970, 523), (976, 515), (981, 508), (991, 493), (996, 484), (1003, 471), (1010, 453), (1028, 394), (1047, 357), (1066, 322), (1083, 282), (1120, 199), (1140, 163)]",295.5223095151863,"[9, 5, 3, 4, 1, 8, 6, 2, 7]","(0, 0.25)",CHN010D,CHN,D,English,Wed Sep 05 15:02:45 2018,Mouse
1,1,4,0,8,3,3,1,330,50,280,147,0,500,200,8000,"[(960, 540), (960, 540), (960, 540), (960, 540), (959, 541), (958, 544), (956, 545), (955, 547), (955, 547), (953, 551), (953, 553), (951, 555), (950, 556), (949, 561), (948, 562), (947, 565), (947, 568), (942, 577), (942, 583), (939, 591), (937, 601), (931, 622), (928, 633), (926, 646), (922, 665), (919, 703), (919, 728), (916, 760), (914, 802), (910, 870), (904, 898), (901, 924), (896, 951)]",98.85088848391558,"[9, 5, 3, 4, 1, 8, 6, 2, 7]","(0, 0.25)",CHN010D,CHN,D,English,Wed Sep 05 15:02:45 2018,Mouse
1,1,4,0,9,6,6,1,469,289,180,146,0,500,200,8000,"[(960, 540), (960, 540), (960, 540), (960, 540), (960, 540), (960, 540), (960, 540), (960, 540), (960, 540), (960, 540), (960, 540), (960, 540), (960, 540), (960, 540), (960, 540), (960, 540), (960, 540), (960, 540), (960, 540), (960, 540), (960, 540), (960, 540), (960, 540), (960, 540), (960, 540), (960, 540), (960, 540), (960, 540), (959, 535), (958, 531), (958, 527), (955, 512), (954, 503), (953, 494), (949, 479), (946, 450), (942, 430), (939, 407), (936, 386), (928, 327), (928, 296), (928, 263), (928, 240), (925, 189), (924, 166), (919, 144), (919, 129)]",264.3032097481676,"[9, 5, 3, 4, 1, 8, 6, 2, 7]","(0, 0.25)",CHN010D,CHN,D,English,Wed Sep 05 15:02:45 2018,Mouse
1,1,4,0,10,3,3,1,320,20,300,145,0,500,200,8000,"[(960, 540), (960, 541), (960, 541), (959, 541), (958, 541), (958, 541), (952, 541), (950, 542), (950, 542), (950, 542), (949, 542), (948, 543), (948, 545), (947, 548), (946, 556), (944, 562), (942, 568), (941, 576), (938, 595), (937, 607), (935, 618), (933, 632), (932, 668), (932, 690), (930, 713), (929, 741), (921, 800), (916, 832), (910, 855), (903, 875), (890, 924), (880, 955)]",100.91112838428339,"[9, 5, 3, 4, 1, 8, 6, 2, 7]","(0, 0.25)",CHN010D,CHN,D,English,Wed Sep 05 15:02:45 2018,Mouse
1,1,4,0,11,8,8,1,869,129,740,144,0,500,200,8000,"[(960, 540), (960, 540), (960, 540), (960, 540), (960, 540), (960, 540), (960, 540), (960, 540), (960, 540), (960, 540), (960, 540), (960, 540), (961, 540), (963, 540), (965, 540), (967, 539), (967, 539), (969, 539), (969, 539), (971, 539), (972, 539), (973, 537), (973, 537), (974, 537), (974, 537), (975, 537), (975, 537), (975, 537), (977, 536), (977, 536), (977, 536), (977, 536), (977, 536), (977, 536), (977, 536), (977, 536), (977, 536), (977, 536), (977, 536), (977, 536), (977, 536), (977, 536), (977, 536), (977, 536), (977, 536), (977, 536), (977, 536), (977, 536), (977, 536), (977, 536), (977, 536), (977, 536), (977, 533), (977, 523), (976, 520), (975, 518), (974, 516), (970, 508), (968, 503), (968, 503), (966, 500), (964, 495), (962, 492), (959, 488), (956, 486), (950, 478), (946, 475), (944, 472), (938, 467), (929, 461), (920, 455), (912, 448), (903, 444), (884, 433), (874, 427), (863, 421), (850, 413), (822, 396), (810, 388), (798, 377), (783, 365), (759, 341), (749, 326), (739, 314), (728, 301), (695, 247), (679, 224)]",228.35520854662371,"[9, 5, 3, 4, 1, 8, 6, 2, 7]","(0, 0.25)",CHN010D,CHN,D,English,Wed Sep 05 15:02:45 2018,Mouse
1,1,4,0,12,1,1,1,249,99,150,143,0,500,200,8000,"[(960, 540), (960, 540), (960, 540), (960, 540), (960, 540), (960, 540), (960, 540), (960, 540), (960, 540), (961, 540), (961, 541), (960, 542), (958, 543), (954, 544), (947, 546), (937, 546), (927, 547), (914, 547), (878, 547), (844, 547), (811, 547), (769, 547), (669, 547), (614, 547), (558, 547)]",179.0024131150965,"[9, 5, 3, 4, 1, 8, 6, 2, 7]","(0, 0.25)",CHN010D,CHN,D,English,Wed Sep 05 15:02:45 2018,Mouse
1,1,4,0,13,1,1,1,190,50,140,142,0,500,200,8000,"[(960, 540), (960, 540), (960, 540), (960, 540), (960, 539), (956, 539), (951, 539), (942, 540), (922, 540), (907, 540), (890, 542), (875, 542), (842, 542), (819, 542), (797, 542), (763, 542), (672, 542), (608, 542), (536, 542)]",179.72973889350587,"[9, 5, 3, 4, 1, 8, 6, 2, 7]","(0, 0.25)",CHN010D,CHN,D,English,Wed Sep 05 15:02:45 2018,Mouse
1,1,4,0,14,3,3,1,329,79,250,141,0,500,200,8000,"[(960, 540), (960, 540), (960, 540), (960, 540), (960, 540), (960, 540), (960, 540), (959, 540), (957, 540), (956, 541), (954, 542), (953, 543), (953, 543), (953, 543), (952, 545), (952, 547), (952, 549), (949, 552), (947, 561), (944, 568), (942, 575), (938, 585), (931, 606), (931, 621), (931, 644), (927, 668), (923, 739), (923, 775), (923, 803), (923, 836), (923, 909), (923, 931), (923, 951)]",95.14414741163614,"[9, 5, 3, 4, 1, 8, 6, 2, 7]","(0, 0.25)",CHN010D,CHN,D,English,Wed Sep 05 15:02:45 2018,Mouse
1,1,4,0,15,2,2,1,450,210,240,140,0,500,200,8000,"[(960, 540), (960, 540), (960, 540), (960, 540), (960, 540), (960, 540), (960, 540), (960, 540), (960, 540), (960, 540), (960, 540), (960, 540), (960, 540), (960, 540), (960, 540), (960, 540), (960, 540), (960, 540), (960, 540), (960, 540), (961, 538), (961, 537), (961, 536), (962, 535), (962, 533), (963, 532), (963, 532), (964, 530), (967, 526), (967, 525), (969, 523), (971, 520), (976, 512), (980, 507), (987, 498), (992, 490), (1003, 469), (1013, 450), (1022, 427), (1038, 400), (1069, 328), (1083, 298), (1095, 264), (1111, 214), (1141, 155)]",295.17961891252526,"[9, 5, 3, 4, 1, 8, 6, 2, 7]","(0, 0.25)",CHN010D,CHN,D,English,Wed Sep 05 15:02:45 2018,Mouse
1,1,4,0,16,3,3,1,310,20,290,139,0,500,200,8000,"[(960, 540), (959, 540), (959, 542), (959, 543), (958, 543), (958, 545), (955, 548), (955, 550), (952, 552), (952, 553), (949, 557), (949, 558), (948, 562), (947, 564), (945, 568), (944, 570), (940, 576), (938, 582), (931, 603), (928, 617), (924, 630), (918, 652), (914, 693), (911, 714), (908, 735), (904, 762), (899, 817), (894, 841), (893, 867), (889, 888), (881, 939)]",101.19942966115022,"[9, 5, 3, 4, 1, 8, 6, 2, 7]","(0, 0.25)",CHN010D,CHN,D,English,Wed Sep 05 15:02:45 2018,Mouse
1,1,4,0,17,4,4,1,329,139,190,138,0,500,200,8000,"[(960, 540), (960, 540), (960, 540), (960, 540), (960, 540), (960, 540), (960, 540), (960, 540), (960, 540), (960, 540), (960, 540), (960, 540), (960, 540), (955, 545), (952, 548), (947, 552), (940, 557), (925, 571), (917, 581), (908, 592), (901, 600), (879, 623), (863, 637), (848, 649), (829, 663), (791, 691), (768, 708), (754, 718), (737, 731), (703, 762), (687, 777), (671, 793), (660, 806)]",138.4376649923652,"[9, 5, 3, 4, 1, 8, 6, 2, 7]","(0, 0.25)",CHN010D,CHN,D,English,Wed Sep 05 15:02:45 2018,Mouse
1,1,4,0,18,2,2,1,450,280,170,137,0,500,200,8000,"[(960, 540), (960, 540), (960, 540), (960, 540), (960, 540), (960, 540), (960, 540), (960, 540), (960, 540), (960, 540), (960, 540), (960, 540), (960, 540), (960, 540), (960, 540), (960, 540), (960, 540), (960, 540), (960, 540), (960, 540), (960, 540), (960, 540), (960, 540), (960, 540), (960, 540), (960, 540), (960, 540), (962, 538), (963, 536), (965, 533), (966, 531), (973, 524), (977, 518), (980, 513), (983, 506), (992, 486), (997, 470), (1008, 443), (1019, 405), (1037, 336), (1050, 296), (1061, 263), (1069, 230), (1096, 164), (1105, 128)]",289.3890987917356,"[9, 5, 3, 4, 1, 8, 6, 2, 7]","(0, 0.25)",CHN010D,CHN,D,English,Wed Sep 05 15:02:45 2018,Mouse
1,1,4,0,19,2,2,1,469,259,210,136,0,500,200,8000,"[(960, 540), (960, 540), (960, 540), (960, 540), (960, 540), (960, 540), (960, 540), (960, 540), (960, 540), (960, 540), (960, 540), (960, 540), (960, 540), (960, 540), (960, 540), (960, 540), (960, 540), (960, 540), (960, 540), (960, 540), (960, 540), (960, 540), (960, 540), (960, 540), (960, 540), (963, 539), (971, 531), (974, 527), (977, 521), (982, 515), (988, 502), (992, 495), (996, 485), (1002, 477), (1020, 454), (1038, 424), (1047, 400), (1061, 385), (1102, 343), (1113, 326), (1123, 307), (1131, 291), (1149, 257), (1151, 246), (1158, 229), (1161, 217), (1167, 196)]",301.0371812413624,"[9, 5, 3, 4, 1, 8, 6, 2, 7]","(0, 0.25)",CHN010D,CHN,D,English,Wed Sep 05 15:02:45 2018,Mouse
1,1,4,0,20,5,3,0,-339,129,210,135,0,500,200,8000,"[(960, 540), (960, 540), (960, 540), (960, 540), (960, 540), (960, 540), (960, 540), (960, 540), (960, 540), (960, 540), (960, 540), (960, 540), (960, 542), (960, 544), (960, 547), (960, 550), (960, 552), (960, 555), (957, 561), (956, 564), (955, 567), (955, 573), (949, 592), (949, 605), (947, 623), (944, 646), (927, 702), (917, 738), (908, 766), (900, 799), (885, 870), (884, 904), (879, 928), (876, 957)]",101.38917969805453,"[9, 5, 3, 4, 1, 8, 6, 2, 7]","(0, 0.25)",CHN010D,CHN,D,English,Wed Sep 05 15:02:45 2018,Mouse
1,1,4,0,21,7,6,0,-1679,1289,390,136,0,500,200,8000,"[(960, 540), (960, 540), (960, 540), (960, 540), (960, 540), (960, 540), (960, 540), (960, 540), (960, 540), (960, 540), (960, 540), (960, 540), (960, 540), (960, 540), (960, 540), (960, 540), (960, 540), (960, 540), (960, 540), (960, 540), (960, 540), (960, 540), (960, 540), (960, 540), (960, 540), (960, 540), (960, 540), (960, 540), (960, 540), (960, 540), (960, 540), (960, 540), (960, 540), (960, 540), (960, 540), (960, 540), (960, 540), (960, 540), (960, 540), (960, 540), (960, 540), (960, 540), (960, 540), (960, 540), (960, 540), (960, 540), (960, 540), (960, 540), (960, 540), (960, 540), (960, 540), (960, 540), (960, 540), (960, 540), (960, 540), (960, 540), (960, 540), (960, 540), (960, 540), (960, 540), (960, 540), (960, 540), (960, 540), (960, 540), (960, 540), (960, 540), (960, 540), (960, 540), (960, 540), (960, 540), (960, 540), (960, 540), (960, 540), (960, 540), (960, 540), (960, 540), (960, 540), (960, 540), (960, 540), (960, 540), (960, 540), (960, 540), (960, 540), (960, 540), (960, 540), (960, 540), (960, 540), (960, 540), (960, 540), (960, 540), (960, 540), (960, 540), (960, 540), (960, 540), (960, 540), (960, 540), (960, 540), (960, 540), (960, 540), (960, 540), (960, 540), (960, 540), (960, 540), (960, 540), (960, 540), (960, 540), (960, 540), (960, 540), (960, 540), (960, 540), (960, 540), (960, 540), (960, 540), (960, 540), (960, 540), (960, 540), (960, 540), (960, 540), (960, 540), (960, 540), (960, 540), (960, 540), (960, 540), (960, 540), (960, 540), (960, 540), (960, 540), (960, 540), (962, 540), (963, 538), (964, 538), (966, 537), (966, 537), (966, 537), (966, 537), (966, 537), (966, 537), (966, 537), (966, 537), (966, 537), (966, 537), (966, 537), (966, 537), (966, 537), (966, 537), (966, 536), (966, 535), (966, 533), (966, 532), (966, 531), (966, 529), (966, 525), (965, 522), (962, 517), (961, 515), (958, 506), (956, 499), (955, 493), (951, 483), (947, 461), (945, 446), (940, 424), (929, 388), (903, 302), (891, 257), (873, 212), (862, 165), (841, 80)]",255.4958075331545,"[9, 5, 3, 4, 1, 8, 6, 2, 7]","(0, 0.25)",CHN010D,CHN,D,English,Wed Sep 05 15:02:45 2018,Mouse
1,1,4,0,22,4,4,1,239,19,220,137,0,500,200,8000,"[(959, 541), (959, 543), (958, 545), (955, 553), (953, 555), (949, 562), (946, 568), (940, 582), (935, 591), (930, 602), (924, 619), (909, 652), (903, 667), (894, 691), (884, 714), (865, 756), (859, 768), (853, 781), (846, 794), (823, 822), (797, 842), (777, 858), (750, 873), (704, 897)]",125.64380904306694,"[9, 5, 3, 4, 1, 8, 6, 2, 7]","(0, 0.25)",CHN010D,CHN,D,English,Wed Sep 05 15:02:45 2018,Mouse
1,1,4,0,23,6,6,1,510,140,370,137,0,500,200,8000,"[(960, 540), (960, 540), (960, 540), (960, 540), (960, 540), (960, 540), (960, 540), (960, 540), (960, 540), (960, 540), (960, 540), (960, 540), (960, 540), (960, 539), (960, 537), (960, 535), (960, 533), (960, 532), (960, 527), (960, 525), (960, 524), (960, 521), (960, 516), (960, 514), (960, 514), (960, 514), (960, 513), (960, 513), (960, 513), (960, 513), (960, 513), (960, 513), (960, 512), (960, 511), (960, 511), (960, 509), (960, 508), (960, 505), (959, 496), (957, 488), (956, 477), (955, 465), (948, 423), (943, 391), (943, 363), (943, 335), (943, 257), (943, 216), (943, 182), (943, 157), (943, 107)]",267.75166685764907,"[9, 5, 3, 4, 1, 8, 6, 2, 7]","(0, 0.25)",CHN010D,CHN,D,English,Wed Sep 05 15:02:45 2018,Mouse
1,1,4,0,24,6,6,1,2518,549,1969,136,0,500,200,8000,"[(960, 540), (960, 540), (960, 540), (960, 540), (960, 540), (960, 540), (960, 540), (960, 540), (960, 540), (960, 540), (960, 540), (960, 540), (960, 540), (960, 540), (960, 540), (960, 540), (960, 540), (960, 540), (960, 540), (960, 540), (960, 540), (960, 540), (960, 540), (960, 540), (960, 540), (960, 540), (960, 540), (960, 540), (960, 540), (960, 540), (960, 540), (960, 540), (960, 540), (960, 540), (960, 540), (960, 540), (960, 540), (960, 540), (960, 540), (960, 540), (960, 540), (960, 540), (960, 540), (960, 540), (960, 540), (960, 540), (960, 540), (960, 540), (960, 540), (960, 540), (960, 540), (960, 540), (960, 540), (960, 540), (960, 541), (960, 541), (960, 541), (960, 541), (960, 542), (960, 542), (960, 542), (960, 542), (960, 542), (959, 543), (959, 543), (959, 543), (959, 543), (959, 543), (959, 543), (959, 543), (959, 543), (959, 543), (959, 543), (959, 543), (959, 543), (959, 543), (959, 543), (959, 543), (959, 543), (959, 543), (959, 543), (959, 543), (959, 543), (959, 543), (959, 543), (959, 543), (959, 543), (959, 543), (959, 543), (959, 543), (959, 543), (959, 543), (959, 543), (959, 543), (959, 543), (959, 543), (959, 543), (959, 543), (959, 544), (959, 544), (959, 544), (959, 544), (959, 544), (959, 544), (959, 544), (959, 544), (959, 544), (959, 544), (959, 544), (959, 544), (959, 544), (959, 544), (959, 544), (959, 544), (959, 544), (959, 544), (959, 544), (959, 544), (959, 544), (959, 544), (959, 544), (959, 544), (959, 544), (959, 544), (959, 544), (959, 544), (959, 544), (959, 544), (959, 544), (959, 544), (959, 544), (959, 544), (959, 544), (959, 544), (959, 544), (959, 544), (959, 544), (959, 544), (959, 544), (959, 544), (959, 544), (959, 544), (959, 544), (959, 544), (959, 544), (959, 544), (959, 544), (959, 544), (959, 544), (959, 544), (959, 544), (959, 544), (959, 544), (959, 544), (959, 544), (959, 544), (959, 544), (959, 544), (959, 544), (959, 544), (959, 544), (959, 544), (959, 544), (959, 544), (959, 544), (959, 544), (959, 544), (959, 544), (959, 544), (959, 544), (959, 544), (959, 544), (959, 544), (959, 544), (959, 544), (959, 544), (959, 544), (959, 544), (959, 544), (959, 544), (959, 544), (959, 544), (959, 544), (959, 544), (959, 544), (959, 544), (959, 544), (959, 544), (959, 544), (959, 544), (959, 544), (959, 544), (959, 544), (959, 544), (959, 544), (959, 544), (959, 544), (959, 544), (959, 544), (959, 544), (959, 544), (959, 544), (959, 544), (959, 544), (959, 544), (959, 544), (959, 544), (959, 544), (959, 544), (959, 544), (959, 544), (959, 544), (959, 544), (959, 544), (959, 544), (959, 544), (959, 544), (959, 544), (959, 544), (959, 544), (959, 544), (959, 544), (959, 544), (959, 544), (959, 544), (959, 544), (959, 544), (959, 544), (959, 544), (959, 544), (959, 544), (959, 544), (959, 544), (959, 544), (959, 538), (959, 530), (959, 519), (959, 507), (956, 479), (952, 463), (950, 448), (947, 432), (943, 391), (939, 372), (938, 351), (933, 330), (926, 282), (923, 256), (918, 231), (913, 204), (897, 149), (891, 129)]",260.4698721674,"[9, 5, 3, 4, 1, 8, 6, 2, 7]","(0, 0.25)",CHN010D,CHN,D,English,Wed Sep 05 15:02:45 2018,Mouse
1,1,4,0,25,5,7,0,-1341,851,490,135,0,500,200,8000,"[(960, 540), (960, 540), (960, 540), (960, 540), (960, 540), (960, 540), (960, 540), (960, 540), (960, 540), (960, 540), (960, 540), (960, 540), (960, 540), (960, 540), (960, 540), (960, 540), (960, 540), (960, 540), (960, 540), (960, 540), (960, 540), (960, 540), (960, 540), (960, 540), (960, 540), (960, 540), (960, 540), (960, 540), (960, 540), (960, 540), (960, 540), (960, 540), (960, 540), (960, 540), (960, 540), (960, 540), (960, 540), (960, 540), (960, 540), (960, 540), (960, 540), (960, 540), (960, 540), (960, 540), (960, 540), (960, 540), (960, 540), (960, 540), (960, 540), (960, 540), (960, 540), (960, 540), (960, 540), (960, 540), (960, 540), (960, 540), (960, 540), (960, 540), (960, 540), (960, 540), (960, 540), (960, 540), (960, 540), (960, 540), (960, 540), (960, 540), (960, 540), (960, 540), (960, 540), (960, 540), (960, 540), (960, 540), (960, 540), (960, 540), (960, 540), (960, 540), (960, 540), (960, 540), (960, 540), (960, 540), (960, 540), (960, 540), (960, 540), (960, 540), (960, 540), (961, 540), (961, 540), (961, 540), (961, 540), (961, 540), (961, 540), (961, 540), (961, 540), (961, 540), (961, 540), (961, 540), (961, 540), (961, 540), (961, 540), (961, 540), (961, 540), (961, 540), (961, 540), (961, 540), (961, 540), (961, 540), (961, 540), (961, 541), (961, 542), (961, 542), (961, 543), (961, 544), (961, 544), (961, 544), (961, 545), (961, 545), (961, 545), (961, 545), (961, 545), (961, 545), (961, 545), (961, 545), (961, 545), (961, 545), (961, 545), (963, 545), (969, 545), (975, 543), (983, 541), (996, 536), (1053, 520), (1107, 510), (1170, 499), (1235, 489), (1376, 470)]",350.44836254161817,"[9, 5, 3, 4, 1, 8, 6, 2, 7]","(0, 0.25)",CHN010D,CHN,D,English,Wed Sep 05 15:02:45 2018,Mouse
1,1,4,0,26,9,9,1,1140,40,1100,136,0,500,200,8000,"[(960, 540), (960, 540), (960, 540), (959, 540), (959, 540), (959, 540), (959, 540), (959, 540), (959, 540), (959, 540), (959, 540), (959, 540), (959, 540), (959, 540), (959, 540), (959, 540), (959, 540), (959, 540), (959, 540), (959, 540), (959, 540), (959, 540), (959, 540), (959, 540), (959, 540), (959, 540), (959, 540), (959, 540), (959, 540), (959, 540), (959, 540), (959, 540), (959, 540), (959, 540), (959, 540), (959, 540), (959, 540), (959, 540), (959, 540), (959, 540), (959, 540), (959, 540), (959, 540), (959, 540), (959, 540), (959, 540), (959, 540), (959, 540), (959, 540), (959, 540), (959, 540), (959, 540), (959, 540), (959, 540), (959, 540), (959, 540), (959, 540), (959, 540), (959, 540), (959, 540), (959, 540), (959, 540), (959, 540), (959, 540), (959, 540), (959, 540), (959, 540), (959, 540), (959, 540), (959, 540), (959, 541), (959, 542), (959, 542), (959, 542), (959, 542), (959, 542), (959, 542), (959, 542), (959, 542), (959, 542), (959, 542), (959, 542), (959, 542), (959, 542), (959, 542), (959, 542), (959, 542), (959, 542), (959, 542), (959, 542), (959, 543), (959, 544), (959, 544), (959, 545), (959, 545), (959, 545), (959, 546), (959, 546), (959, 546), (959, 548), (959, 548), (959, 548), (959, 548), (960, 549), (962, 549), (965, 552), (978, 558), (993, 562), (1018, 572), (1058, 587), (1179, 636), (1254, 658), (1325, 678), (1397, 699)]",19.993633029132834,"[9, 5, 3, 4, 1, 8, 6, 2, 7]","(0, 0.25)",CHN010D,CHN,D,English,Wed Sep 05 15:02:45 2018,Mouse
1,1,4,0,27,2,5,0,-1179,809,370,136,0,500,200,8000,"[(960, 540), (960, 540), (960, 540), (960, 540), (960, 540), (960, 540), (960, 540), (960, 540), (960, 540), (960, 540), (960, 540), (960, 540), (960, 540), (960, 540), (960, 540), (960, 540), (960, 540), (960, 540), (960, 540), (960, 540), (960, 540), (960, 540), (960, 540), (960, 540), (960, 540), (960, 540), (960, 540), (960, 540), (960, 540), (960, 540), (960, 540), (960, 540), (960, 540), (960, 540), (960, 540), (960, 540), (960, 540), (960, 540), (960, 540), (960, 540), (960, 540), (960, 540), (960, 540), (960, 540), (960, 540), (960, 540), (960, 540), (960, 540), (960, 540), (960, 540), (960, 540), (960, 540), (960, 540), (960, 540), (960, 540), (960, 540), (960, 540), (960, 540), (960, 540), (960, 540), (960, 540), (960, 540), (960, 540), (960, 540), (960, 540), (960, 540), (960, 540), (960, 540), (960, 540), (960, 540), (960, 540), (960, 540), (960, 540), (960, 540), (960, 540), (960, 540), (960, 540), (960, 540), (960, 540), (960, 540), (961, 540), (962, 539), (962, 539), (962, 539), (962, 539), (962, 539), (963, 539), (963, 539), (963, 539), (963, 539), (963, 539), (963, 539), (964, 539), (964, 539), (964, 539), (964, 539), (964, 539), (964, 539), (964, 539), (964, 539), (964, 539), (964, 539), (964, 539), (964, 539), (964, 539), (964, 539), (964, 539), (968, 542), (974, 550), (981, 559), (988, 572), (1010, 613), (1027, 640), (1054, 687), (1084, 731), (1155, 821), (1196, 860), (1238, 894)]",51.857072334099264,"[9, 5, 3, 4, 1, 8, 6, 2, 7]","(0, 0.25)",CHN010D,CHN,D,English,Wed Sep 05 15:02:45 2018,Mouse
1,1,4,0,28,5,5,1,1320,1060,260,137,0,500,200,8000,"[(960, 540), (960, 540), (960, 540), (960, 540), (960, 540), (960, 540), (960, 540), (960, 540), (960, 540), (960, 540), (960, 540), (960, 540), (960, 540), (960, 540), (960, 540), (960, 540), (960, 540), (960, 540), (960, 540), (960, 540), (960, 540), (960, 540), (960, 540), (960, 540), (960, 540), (960, 540), (960, 540), (960, 540), (960, 540), (960, 540), (960, 540), (960, 540), (960, 540), (960, 540), (960, 540), (960, 540), (960, 540), (960, 540), (960, 540), (960, 540), (960, 540), (960, 540), (960, 540), (960, 540), (960, 540), (960, 540), (960, 540), (960, 540), (960, 540), (960, 540), (960, 540), (960, 540), (960, 540), (960, 540), (960, 540), (960, 540), (960, 540), (960, 540), (960, 540), (960, 540), (960, 540), (960, 540), (960, 540), (960, 540), (960, 540), (960, 540), (960, 540), (960, 540), (960, 540), (960, 540), (960, 540), (960, 540), (960, 540), (960, 540), (960, 540), (960, 540), (960, 540), (960, 540), (960, 540), (960, 540), (960, 540), (960, 540), (960, 540), (960, 540), (960, 540), (960, 540), (960, 540), (960, 540), (960, 540), (960, 540), (960, 540), (960, 540), (960, 540), (960, 540), (960, 540), (960, 540), (960, 540), (960, 540), (960, 540), (960, 540), (960, 540), (960, 540), (960, 540), (960, 540), (960, 540), (961, 540), (961, 540), (961, 540), (961, 540), (961, 540), (961, 540), (961, 540), (961, 540), (961, 540), (961, 540), (961, 539), (962, 539), (962, 539), (963, 539), (963, 539), (964, 539), (966, 539), (967, 540), (971, 546), (978, 561), (988, 578), (1006, 603), (1028, 636), (1100, 714), (1146, 753), (1188, 788), (1236, 830)]",46.416921174495705,"[9, 5, 3, 4, 1, 8, 6, 2, 7]","(0, 0.25)",CHN010D,CHN,D,English,Wed Sep 05 15:02:45 2018,Mouse
1,1,4,0,29,7,7,1,319,199,120,137,0,500,200,8000,"[(960, 540), (960, 540), (960, 540), (960, 540), (960, 540), (960, 540), (960, 540), (960, 540), (960, 540), (960, 540), (960, 540), (960, 540), (960, 540), (960, 540), (960, 540), (960, 540), (960, 540), (960, 540), (960, 540), (961, 540), (963, 540), (968, 538), (976, 535), (983, 530), (993, 525), (1020, 513), (1044, 502), (1072, 494), (1122, 478), (1244, 444), (1314, 433), (1387, 425)]",344.9266998996849,"[9, 5, 3, 4, 1, 8, 6, 2, 7]","(0, 0.25)",CHN010D,CHN,D,English,Wed Sep 05 15:02:45 2018,Mouse
1,1,4,0,30,6,6,1,460,350,110,136,0,500,200,8000,"[(960, 540), (960, 540), (960, 540), (960, 540), (960, 540), (960, 540), (960, 540), (960, 540), (960, 540), (960, 540), (960, 540), (960, 540), (960, 540), (960, 540), (960, 540), (960, 540), (960, 540), (960, 540), (960, 540), (960, 540), (960, 540), (960, 540), (960, 540), (960, 540), (960, 540), (960, 540), (960, 540), (960, 540), (960, 540), (960, 540), (960, 540), (960, 540), (960, 540), (960, 540), (960, 538), (957, 530), (947, 507), (941, 494), (934, 476), (923, 450), (900, 387), (889, 348), (880, 307), (869, 266), (849, 170), (841, 119)]",254.21650696976212,"[9, 5, 3, 4, 1, 8, 6, 2, 7]","(0, 0.25)",CHN010D,CHN,D,English,Wed Sep 05 15:02:45 2018,Mouse
1,1,4,0,31,4,4,1,289,29,260,135,0,500,200,8000,"[(959, 540), (959, 540), (958, 541), (958, 541), (958, 541), (958, 541), (958, 542), (957, 543), (957, 543), (955, 544), (955, 544), (954, 546), (954, 547), (951, 551), (948, 555), (946, 557), (944, 561), (938, 570), (933, 577), (927, 585), (917, 597), (882, 638), (858, 662), (831, 687), (802, 710), (748, 754), (712, 777), (686, 801), (657, 823)]",136.95472861163267,"[9, 5, 3, 4, 1, 8, 6, 2, 7]","(0, 0.25)",CHN010D,CHN,D,English,Wed Sep 05 15:02:45 2018,Mouse
1,1,4,0,32,4,4,1,380,120,260,134,0,500,200,8000,"[(960, 540), (960, 540), (960, 540), (960, 540), (960, 540), (960, 540), (960, 540), (960, 540), (960, 540), (960, 540), (960, 540), (957, 542), (954, 543), (952, 544), (950, 544), (944, 547), (941, 547), (938, 547), (937, 548), (930, 550), (930, 550), (927, 552), (924, 554), (915, 559), (910, 563), (901, 570), (895, 575), (878, 589), (869, 598), (858, 610), (850, 622), (836, 646), (820, 676), (804, 701), (780, 732), (720, 790), (686, 814), (657, 840)]",135.28505127758382,"[9, 5, 3, 4, 1, 8, 6, 2, 7]","(0, 0.25)",CHN010D,CHN,D,English,Wed Sep 05 15:02:45 2018,Mouse
1,1,4,0,33,8,5,0,-1140,980,160,133,0,500,200,8000,"[(960, 540), (960, 540), (960, 540), (960, 540), (960, 540), (960, 540), (960, 540), (960, 540), (960, 540), (960, 540), (960, 540), (960, 540), (960, 540), (960, 540), (960, 540), (960, 540), (960, 540), (960, 540), (960, 540), (960, 540), (960, 540), (960, 540), (960, 540), (960, 540), (960, 540), (960, 540), (960, 540), (960, 540), (960, 540), (960, 540), (960, 540), (960, 540), (960, 540), (960, 540), (960, 540), (960, 540), (960, 540), (960, 540), (960, 540), (960, 540), (960, 540), (960, 540), (960, 540), (960, 540), (960, 540), (960, 540), (960, 540), (960, 540), (960, 540), (960, 540), (960, 540), (960, 540), (960, 540), (960, 540), (960, 540), (960, 540), (960, 540), (960, 540), (960, 540), (960, 540), (960, 540), (960, 540), (960, 540), (960, 540), (960, 540), (960, 540), (960, 540), (960, 540), (960, 540), (960, 540), (960, 540), (960, 540), (960, 540), (960, 540), (960, 540), (960, 540), (960, 540), (960, 540), (960, 540), (960, 540), (960, 540), (960, 540), (960, 540), (960, 540), (960, 540), (960, 540), (960, 540), (960, 540), (960, 540), (960, 540), (960, 540), (960, 540), (960, 540), (960, 540), (960, 540), (960, 540), (960, 540), (959, 544), (958, 549), (956, 555), (955, 568), (955, 573), (955, 582), (955, 591), (969, 620), (980, 641), (993, 658), (1008, 683), (1036, 732), (1054, 757), (1068, 777), (1088, 800), (1136, 856), (1168, 888)]",59.133190548862935,"[9, 5, 3, 4, 1, 8, 6, 2, 7]","(0, 0.25)",CHN010D,CHN,D,English,Wed Sep 05 15:02:45 2018,Mouse
1,1,4,0,34,4,4,1,330,70,260,134,0,500,200,8000,"[(960, 540), (960, 540), (960, 540), (960, 540), (960, 540), (960, 540), (959, 541), (955, 543), (950, 545), (938, 553), (929, 557), (920, 562), (913, 567), (893, 577), (883, 582), (874, 588), (864, 593), (844, 605), (835, 611), (823, 619), (812, 627), (788, 644), (778, 651), (766, 657), (755, 663), (734, 676), (722, 684), (705, 704), (691, 719), (666, 749), (656, 763), (646, 782), (630, 805)]",141.23448009554124,"[9, 5, 3, 4, 1, 8, 6, 2, 7]","(0, 0.25)",CHN010D,CHN,D,English,Wed Sep 05 15:02:45 2018,Mouse
1,1,4,0,35,8,9,0,-1277,38,1239,134,0,500,200,8000,"[(960, 540), (960, 540), (960, 540), (961, 541), (961, 541), (961, 541), (961, 541), (961, 541), (961, 541), (961, 541), (963, 541), (964, 541), (966, 541), (968, 541), (971, 540), (976, 539), (979, 539), (981, 538), (982, 538), (984, 536), (985, 536), (985, 536), (985, 536), (985, 536), (985, 536), (985, 536), (985, 536), (985, 536), (985, 536), (985, 536), (986, 535), (987, 535), (987, 535), (989, 533), (989, 533), (991, 531), (993, 530), (993, 529), (993, 529), (995, 526), (996, 522), (997, 517), (999, 511), (1002, 500), (1005, 494), (1007, 488), (1009, 483), (1011, 477), (1012, 475), (1013, 475), (1013, 475), (1013, 475), (1013, 475), (1013, 475), (1013, 475), (1013, 474), (1013, 474), (1013, 474), (1013, 473), (1014, 473), (1014, 473), (1014, 473), (1014, 473), (1014, 473), (1014, 473), (1014, 473), (1014, 473), (1015, 473), (1018, 473), (1020, 473), (1020, 473), (1022, 474), (1023, 474), (1023, 474), (1023, 474), (1023, 474), (1023, 474), (1024, 474), (1025, 474), (1028, 474), (1030, 474), (1033, 474), (1035, 473), (1041, 470), (1044, 469), (1046, 467), (1049, 466), (1053, 465), (1056, 465), (1061, 465), (1065, 465), (1076, 465), (1085, 465), (1090, 466), (1096, 467), (1105, 468), (1108, 468), (1110, 468), (1111, 468), (1114, 468), (1116, 468), (1118, 468), (1118, 468), (1123, 468), (1127, 468), (1132, 468), (1141, 469), (1157, 489), (1164, 500), (1171, 513), (1175, 522), (1180, 537), (1181, 542), (1182, 547), (1184, 553), (1188, 559), (1192, 567), (1197, 574), (1205, 582), (1220, 593), (1227, 596), (1232, 598), (1240, 600), (1257, 607), (1269, 613), (1284, 620), (1301, 627), (1353, 645)]",14.958636073720871,"[9, 5, 3, 4, 1, 8, 6, 2, 7]","(0, 0.25)",CHN010D,CHN,D,English,Wed Sep 05 15:02:45 2018,Mouse
1,1,4,0,36,4,4,1,332,32,300,135,0,500,200,8000,"[(960, 540), (960, 540), (960, 540), (958, 540), (956, 540), (954, 540), (953, 540), (948, 541), (946, 542), (942, 543), (937, 544), (924, 551), (921, 553), (916, 557), (912, 560), (906, 566), (904, 569), (901, 572), (899, 577), (895, 586), (890, 592), (886, 598), (882, 603), (873, 615), (867, 623), (861, 632), (851, 643), (826, 670), (811, 684), (785, 705), (760, 722), (701, 762), (671, 780), (646, 797)]",140.70065802757443,"[9, 5, 3, 4, 1, 8, 6, 2, 7]","(0, 0.25)",CHN010D,CHN,D,English,Wed Sep 05 15:02:45 2018,Mouse
1,1,4,0,37,7,6,0,-511,401,110,135,0,500,200,8000,"[(960, 540), (960, 540), (960, 540), (960, 540), (960, 540), (960, 540), (960, 540), (960, 540), (960, 540), (960, 540), (960, 540), (960, 540), (960, 540), (960, 540), (960, 540), (960, 540), (960, 540), (960, 540), (960, 540), (960, 540), (960, 540), (960, 540), (960, 540), (960, 540), (960, 540), (960, 540), (960, 540), (960, 540), (960, 540), (960, 540), (960, 540), (960, 540), (960, 540), (960, 540), (960, 540), (960, 540), (960, 540), (960, 540), (960, 540), (960, 540), (958, 534), (956, 526), (952, 512), (942, 479), (936, 457), (930, 432), (920, 391), (893, 294), (881, 250), (873, 224), (865, 194), (859, 152)]",255.40918675337036,"[9, 5, 3, 4, 1, 8, 6, 2, 7]","(0, 0.25)",CHN010D,CHN,D,English,Wed Sep 05 15:02:45 2018,Mouse
1,1,4,0,38,2,2,1,469,219,250,136,0,500,200,8000,"[(960, 540), (960, 540), (960, 540), (960, 540), (960, 540), (960, 540), (960, 540), (960, 540), (960, 540), (960, 540), (960, 540), (960, 540), (960, 540), (960, 540), (960, 540), (960, 540), (960, 540), (960, 540), (960, 540), (960, 540), (960, 540), (960, 538), (960, 533), (961, 531), (963, 527), (965, 525), (970, 517), (972, 514), (974, 510), (978, 507), (982, 502), (985, 498), (991, 495), (996, 490), (1011, 477), (1019, 471), (1025, 464), (1034, 458), (1046, 439), (1055, 425), (1066, 409), (1079, 387), (1103, 336), (1115, 305), (1128, 263), (1144, 216), (1170, 119)]",296.51058752474347,"[9, 5, 3, 4, 1, 8, 6, 2, 7]","(0, 0.25)",CHN010D,CHN,D,English,Wed Sep 05 15:02:45 2018,Mouse
1,1,4,0,39,6,6,1,940,790,150,136,0,500,200,8000,"[(960, 540), (960, 540), (960, 540), (960, 540), (960, 540), (960, 540), (960, 540), (960, 540), (960, 540), (960, 540), (960, 540), (960, 540), (960, 540), (960, 540), (960, 540), (960, 540), (960, 540), (960, 540), (960, 540), (960, 540), (960, 540), (960, 540), (960, 540), (960, 540), (960, 540), (960, 540), (960, 540), (960, 540), (960, 540), (960, 540), (960, 540), (960, 540), (960, 540), (960, 540), (960, 540), (960, 540), (960, 540), (960, 540), (960, 540), (960, 540), (960, 540), (960, 540), (960, 540), (960, 540), (960, 540), (960, 540), (960, 540), (960, 540), (960, 540), (960, 540), (960, 540), (960, 540), (960, 540), (960, 540), (960, 540), (960, 540), (960, 540), (960, 540), (960, 540), (960, 540), (960, 540), (960, 540), (960, 540), (960, 540), (960, 540), (960, 540), (960, 540), (960, 540), (960, 540), (960, 540), (960, 540), (960, 540), (960, 540), (960, 540), (960, 540), (960, 540), (960, 540), (960, 540), (959, 537), (958, 534), (958, 529), (957, 524), (953, 504), (951, 492), (947, 476), (944, 457), (937, 407), (932, 377), (928, 348), (923, 316), (915, 255), (911, 210), (906, 167), (900, 126)]",261.7536791855315,"[9, 5, 3, 4, 1, 8, 6, 2, 7]","(0, 0.25)",CHN010D,CHN,D,English,Wed Sep 05 15:02:45 2018,Mouse
1,1,4,0,40,3,3,1,729,209,520,135,0,500,200,8000,"[(960, 540), (960, 540), (960, 540), (960, 540), (960, 540), (960, 540), (960, 540), (960, 540), (960, 540), (960, 540), (960, 540), (960, 540), (960, 540), (960, 540), (960, 540), (960, 540), (960, 540), (960, 540), (960, 540), (960, 540), (959, 540), (959, 540), (959, 541), (957, 543), (957, 543), (957, 546), (956, 547), (955, 549), (955, 551), (954, 553), (953, 555), (952, 561), (951, 565), (949, 568), (948, 574), (944, 586), (944, 589), (943, 593), (942, 602), (940, 612), (938, 620), (935, 628), (934, 633), (930, 648), (928, 656), (928, 663), (927, 669), (927, 679), (927, 682), (927, 685), (927, 685), (927, 687), (927, 687), (927, 687), (927, 687), (927, 687), (927, 687), (926, 688), (925, 690), (925, 696), (925, 700), (925, 708), (925, 719), (925, 749), (925, 766), (925, 783), (925, 797), (921, 845), (921, 864), (921, 890), (921, 906), (921, 936), (921, 947)]",95.47354697192999,"[9, 5, 3, 4, 1, 8, 6, 2, 7]","(0, 0.25)",CHN010D,CHN,D,English,Wed Sep 05 15:02:45 2018,Mouse
1,1,4,0,41,2,2,1,849,619,230,134,0,500,200,8000,"[(960, 540), (960, 540), (960, 540), (960, 540), (960, 540), (960, 540), (960, 540), (960, 540), (960, 540), (960, 540), (960, 540), (960, 540), (960, 540), (960, 540), (960, 540), (960, 540), (960, 540), (960, 540), (960, 540), (960, 540), (960, 540), (960, 540), (960, 540), (960, 540), (960, 540), (960, 540), (960, 540), (960, 540), (960, 540), (960, 540), (960, 540), (960, 540), (960, 540), (960, 540), (960, 540), (960, 540), (960, 540), (960, 540), (960, 540), (960, 540), (960, 540), (960, 540), (960, 540), (960, 540), (960, 540), (960, 540), (960, 540), (960, 540), (960, 540), (960, 540), (960, 540), (960, 540), (960, 540), (960, 540), (960, 540), (960, 540), (960, 540), (960, 540), (960, 540), (960, 540), (960, 540), (961, 540), (961, 540), (962, 539), (963, 537), (964, 536), (964, 535), (965, 534), (966, 531), (969, 527), (973, 521), (976, 515), (979, 508), (992, 486), (1003, 471), (1012, 459), (1028, 439), (1061, 398), (1077, 375), (1092, 355), (1109, 330), (1134, 284), (1154, 256), (1175, 235), (1193, 212)]",305.3886859245076,"[9, 5, 3, 4, 1, 8, 6, 2, 7]","(0, 0.25)",CHN010D,CHN,D,English,Wed Sep 05 15:02:45 2018,Mouse
1,1,4,0,42,3,5,0,-1361,521,840,133,0,500,200,8000,"[(960, 540), (960, 540), (960, 540), (960, 540), (960, 540), (960, 540), (960, 540), (960, 540), (960, 540), (960, 540), (960, 540), (960, 540), (960, 540), (960, 540), (960, 540), (960, 540), (960, 540), (960, 540), (960, 540), (960, 540), (960, 540), (960, 540), (960, 540), (960, 540), (960, 540), (960, 540), (960, 540), (960, 540), (960, 540), (960, 540), (960, 540), (960, 540), (960, 540), (960, 540), (960, 540), (960, 540), (960, 540), (960, 540), (960, 540), (960, 540), (960, 540), (960, 540), (960, 540), (960, 540), (960, 540), (960, 540), (960, 540), (960, 540), (960, 540), (960, 540), (960, 540), (960, 540), (960, 541), (960, 541), (958, 541), (956, 542), (953, 543), (953, 544), (953, 544), (953, 544), (953, 544), (953, 544), (953, 544), (953, 544), (953, 544), (953, 544), (953, 544), (953, 544), (953, 544), (953, 544), (953, 544), (953, 544), (953, 544), (953, 544), (953, 544), (953, 544), (953, 544), (953, 544), (953, 544), (953, 544), (953, 544), (953, 544), (953, 544), (953, 544), (953, 544), (953, 544), (953, 544), (953, 544), (953, 544), (953, 544), (953, 544), (953, 544), (953, 544), (953, 544), (953, 544), (953, 544), (953, 544), (953, 544), (953, 544), (953, 544), (952, 545), (951, 546), (951, 546), (951, 546), (951, 546), (951, 546), (951, 546), (951, 546), (951, 546), (951, 546), (951, 546), (951, 546), (951, 547), (951, 547), (950, 547), (950, 547), (950, 551), (950, 553), (950, 554), (950, 556), (950, 558), (950, 560), (950, 562), (950, 564), (953, 572), (957, 578), (960, 584), (963, 591), (974, 609), (983, 624), (990, 637), (1002, 664), (1029, 732), (1050, 773), (1075, 814), (1097, 857), (1140, 929)]",65.16884271819006,"[9, 5, 3, 4, 1, 8, 6, 2, 7]","(0, 0.25)",CHN010D,CHN,D,English,Wed Sep 05 15:02:45 2018,Mouse
1,1,4,0,43,6,6,1,329,69,260,134,0,500,200,8000,"[(960, 540), (960, 540), (960, 540), (960, 540), (960, 540), (960, 540), (958, 540), (958, 540), (957, 539), (956, 539), (954, 537), (953, 534), (953, 531), (951, 529), (950, 523), (948, 519), (946, 517), (945, 514), (944, 506), (942, 502), (940, 495), (938, 488), (931, 465), (929, 453), (924, 439), (919, 419), (909, 368), (904, 338), (899, 304), (893, 261), (883, 185), (883, 155), (883, 124)]",259.5134550509697,"[9, 5, 3, 4, 1, 8, 6, 2, 7]","(0, 0.25)",CHN010D,CHN,D,English,Wed Sep 05 15:02:45 2018,Mouse
1,1,4,0,44,7,8,0,-1130,80,1050,134,0,500,200,8000,"[(960, 540), (960, 540), (960, 540), (960, 540), (960, 540), (960, 540), (960, 540), (959, 541), (958, 542), (958, 542), (958, 542), (958, 542), (958, 542), (958, 542), (958, 542), (958, 542), (958, 542), (958, 542), (958, 542), (958, 542), (958, 542), (958, 542), (958, 542), (958, 543), (957, 544), (957, 544), (957, 544), (957, 544), (957, 544), (957, 544), (957, 544), (957, 544), (957, 544), (957, 544), (957, 544), (957, 544), (957, 544), (957, 544), (957, 544), (957, 544), (957, 544), (957, 544), (957, 544), (957, 544), (957, 544), (957, 544), (957, 544), (957, 544), (957, 544), (957, 544), (957, 544), (957, 544), (957, 544), (957, 544), (957, 544), (957, 544), (957, 544), (957, 544), (957, 544), (957, 544), (957, 544), (957, 544), (957, 544), (957, 544), (957, 544), (957, 544), (957, 544), (957, 544), (957, 544), (957, 544), (957, 544), (957, 544), (957, 544), (957, 544), (957, 544), (957, 544), (957, 544), (957, 544), (957, 544), (957, 544), (957, 544), (957, 544), (957, 544), (957, 544), (957, 544), (957, 544), (957, 544), (957, 544), (957, 544), (957, 544), (957, 544), (957, 544), (957, 544), (957, 544), (957, 544), (957, 544), (957, 544), (957, 544), (957, 544), (957, 544), (957, 544), (957, 544), (957, 544), (957, 544), (956, 545), (949, 544), (915, 509), (887, 477), (857, 448), (818, 414), (726, 348), (674, 319), (620, 292)]",216.10745129175186,"[9, 5, 3, 4, 1, 8, 6, 2, 7]","(0, 0.25)",CHN010D,CHN,D,English,Wed Sep 05 15:02:45 2018,Mouse
1,1,4,0,45,9,6,0,-410,290,120,135,0,500,200,8000,"[(960, 540), (960, 540), (960, 540), (960, 540), (960, 540), (960, 540), (960, 540), (960, 540), (960, 540), (960, 540), (960, 540), (960, 540), (960, 540), (960, 540), (960, 540), (960, 540), (960, 540), (960, 540), (960, 540), (960, 540), (960, 540), (960, 540), (960, 540), (960, 540), (960, 540), (960, 540), (960, 540), (960, 540), (960, 537), (960, 524), (960, 507), (960, 490), (957, 452), (954, 423), (949, 388), (943, 350), (934, 259), (929, 235), (926, 209), (921, 182), (920, 134)]",264.3732542848593,"[9, 5, 3, 4, 1, 8, 6, 2, 7]","(0, 0.25)",CHN010D,CHN,D,English,Wed Sep 05 15:02:45 2018,Mouse
1,1,4,0,46,1,5,0,-1508,1028,480,136,0,500,200,8000,"[(960, 540), (960, 540), (960, 540), (960, 540), (960, 540), (960, 540), (960, 540), (960, 540), (960, 540), (960, 540), (960, 540), (960, 540), (960, 540), (960, 540), (960, 540), (960, 540), (960, 540), (960, 540), (960, 540), (960, 540), (960, 540), (960, 540), (960, 540), (960, 540), (960, 540), (960, 540), (960, 540), (960, 540), (960, 540), (960, 540), (960, 540), (960, 540), (960, 540), (960, 540), (960, 540), (960, 540), (960, 540), (960, 540), (960, 540), (960, 540), (960, 540), (960, 540), (960, 540), (960, 540), (960, 540), (960, 540), (960, 540), (960, 540), (960, 540), (960, 540), (960, 540), (960, 540), (960, 540), (960, 540), (960, 540), (960, 540), (960, 540), (960, 540), (960, 540), (960, 540), (960, 540), (960, 540), (960, 540), (960, 540), (960, 540), (960, 540), (960, 540), (960, 540), (960, 540), (960, 540), (960, 540), (960, 540), (960, 540), (960, 540), (960, 540), (960, 540), (960, 540), (960, 540), (960, 540), (960, 540), (960, 540), (960, 540), (960, 540), (960, 540), (960, 540), (960, 540), (960, 540), (960, 540), (960, 540), (960, 540), (960, 540), (960, 540), (960, 540), (960, 540), (960, 540), (960, 540), (960, 540), (960, 540), (960, 540), (960, 540), (960, 540), (960, 540), (960, 541), (960, 541), (960, 541), (960, 541), (960, 541), (960, 541), (960, 541), (960, 541), (960, 541), (960, 541), (960, 541), (960, 541), (960, 541), (960, 541), (960, 541), (960, 541), (960, 541), (960, 541), (960, 541), (960, 541), (960, 541), (960, 541), (960, 541), (960, 541), (960, 541), (960, 541), (960, 541), (960, 541), (960, 541), (960, 541), (960, 541), (960, 541), (959, 543), (959, 545), (959, 549), (959, 555), (960, 567), (964, 576), (968, 586), (973, 599), (987, 626), (998, 652), (1013, 676), (1030, 704), (1070, 767), (1095, 804), (1124, 840), (1148, 871), (1210, 943)]",58.18671189082472,"[9, 5, 3, 4, 1, 8, 6, 2, 7]","(0, 0.25)",CHN010D,CHN,D,English,Wed Sep 05 15:02:45 2018,Mouse
1,1,4,0,47,3,3,1,768,507,261,137,0,500,200,8000,"[(960, 540), (960, 540), (960, 540), (960, 540), (960, 540), (960, 540), (960, 540), (960, 540), (960, 540), (960, 540), (960, 540), (960, 540), (960, 540), (960, 540), (960, 540), (960, 540), (960, 540), (960, 540), (960, 540), (960, 540), (960, 540), (960, 540), (960, 540), (960, 540), (960, 540), (960, 540), (960, 540), (960, 540), (960, 540), (960, 540), (960, 540), (960, 540), (960, 540), (960, 540), (960, 540), (960, 540), (960, 540), (960, 540), (960, 540), (960, 540), (960, 540), (960, 540), (960, 540), (960, 540), (960, 540), (960, 540), (960, 540), (960, 540), (960, 540), (960, 540), (960, 541), (960, 547), (960, 554), (959, 565), (958, 586), (955, 597), (953, 609), (952, 623), (947, 648), (947, 663), (946, 680), (946, 702), (945, 747), (940, 769), (938, 783), (934, 803), (928, 832), (926, 845), (921, 858), (920, 868), (917, 884), (916, 892), (915, 901), (915, 907), (911, 922), (909, 930), (905, 937)]",97.88749641022042,"[9, 5, 3, 4, 1, 8, 6, 2, 7]","(0, 0.25)",CHN010D,CHN,D,English,Wed Sep 05 15:02:45 2018,Mouse
1,1,4,0,48,2,2,1,429,109,320,137,0,500,200,8000,"[(960, 540), (960, 540), (960, 540), (960, 540), (960, 540), (960, 540), (960, 540), (960, 540), (960, 540), (960, 540), (959, 539), (959, 536), (960, 533), (962, 529), (963, 527), (964, 524), (971, 513), (975, 508), (979, 504), (984, 499), (992, 492), (995, 487), (997, 485), (1002, 479), (1010, 468), (1013, 463), (1017, 456), (1022, 448), (1030, 431), (1033, 422), (1038, 413), (1043, 406), (1057, 379), (1063, 367), (1069, 354), (1078, 339), (1100, 301), (1111, 284), (1121, 270), (1133, 257), (1158, 229), (1169, 216), (1181, 204)]",303.33444311652187,"[9, 5, 3, 4, 1, 8, 6, 2, 7]","(0, 0.25)",CHN010D,CHN,D,English,Wed Sep 05 15:02:45 2018,Mouse
1,1,4,0,49,9,5,0,-851,641,210,136,0,500,200,8000,"[(960, 540), (960, 540), (960, 540), (960, 540), (960, 540), (960, 540), (960, 540), (960, 540), (960, 540), (960, 540), (960, 540), (960, 540), (960, 540), (960, 540), (960, 540), (960, 540), (960, 540), (960, 540), (960, 540), (960, 540), (960, 540), (960, 540), (960, 540), (960, 540), (960, 540), (960, 540), (960, 540), (960, 540), (960, 540), (960, 540), (960, 540), (960, 540), (960, 540), (960, 540), (960, 540), (960, 540), (960, 540), (960, 540), (960, 540), (960, 540), (960, 540), (960, 540), (960, 540), (960, 540), (960, 540), (960, 540), (960, 540), (960, 540), (960, 540), (960, 540), (960, 540), (960, 540), (960, 540), (960, 540), (960, 540), (960, 540), (960, 540), (960, 540), (960, 540), (960, 540), (960, 540), (960, 540), (960, 540), (960, 540), (960, 541), (960, 541), (960, 541), (959, 541), (958, 542), (958, 545), (958, 549), (958, 553), (958, 562), (958, 577), (960, 585), (964, 597), (969, 608), (988, 639), (1000, 654), (1019, 677), (1039, 700), (1085, 755), (1119, 788), (1149, 815), (1185, 844), (1249, 886)]",50.129338586957,"[9, 5, 3, 4, 1, 8, 6, 2, 7]","(0, 0.25)",CHN010D,CHN,D,English,Wed Sep 05 15:02:45 2018,Mouse
1,1,4,0,50,4,4,1,371,11,360,137,0,500,200,8000,"[(960, 540), (960, 539), (959, 539), (953, 538), (952, 538), (949, 538), (947, 538), (942, 538), (941, 537), (941, 537), (940, 537), (939, 536), (939, 536), (939, 536), (939, 536), (939, 536), (937, 536), (935, 536), (933, 536), (929, 539), (925, 543), (920, 546), (916, 549), (905, 556), (899, 560), (892, 565), (883, 571), (860, 583), (843, 594), (828, 606), (810, 621), (773, 657), (755, 671), (721, 696), (691, 713), (645, 740), (629, 750), (618, 758)]",147.48546749085716,"[9, 5, 3, 4, 1, 8, 6, 2, 7]","(0, 0.25)",CHN010D,CHN,D,English,Wed Sep 05 15:02:45 2018,Mouse
1,1,4,0,51,7,7,1,410,250,160,137,0,500,200,8000,"[(960, 540), (960, 540), (960, 540), (960, 540), (960, 540), (960, 540), (960, 540), (960, 540), (960, 540), (960, 540), (960, 540), (960, 540), (960, 540), (960, 540), (960, 540), (960, 540), (960, 540), (960, 540), (960, 540), (960, 540), (960, 540), (960, 540), (960, 540), (960, 540), (967, 534), (973, 528), (979, 523), (988, 516), (1010, 505), (1022, 499), (1041, 491), (1059, 483), (1096, 467), (1118, 461), (1141, 453), (1166, 447), (1218, 426), (1237, 414), (1262, 408), (1294, 403), (1359, 391)]",339.52267935235545,"[9, 5, 3, 4, 1, 8, 6, 2, 7]","(0, 0.25)",CHN010D,CHN,D,English,Wed Sep 05 15:02:45 2018,Mouse
1,1,4,0,52,3,3,1,640,400,240,136,0,500,200,8000,"[(960, 540), (960, 540), (960, 540), (960, 540), (960, 540), (960, 540), (960, 540), (960, 540), (960, 540), (960, 540), (960, 540), (960, 540), (960, 540), (960, 540), (960, 540), (960, 540), (960, 540), (960, 540), (960, 540), (960, 540), (960, 540), (960, 540), (960, 540), (960, 540), (960, 540), (960, 540), (960, 540), (960, 540), (960, 540), (960, 540), (960, 540), (960, 540), (960, 540), (960, 540), (960, 540), (960, 540), (960, 540), (960, 540), (960, 540), (959, 541), (959, 542), (959, 542), (959, 542), (958, 542), (958, 543), (957, 543), (957, 543), (956, 545), (956, 545), (955, 547), (953, 549), (951, 554), (949, 559), (947, 565), (944, 572), (937, 597), (932, 613), (929, 631), (921, 657), (907, 730), (900, 771), (888, 815), (878, 862), (867, 953)]",102.69028654746467,"[9, 5, 3, 4, 1, 8, 6, 2, 7]","(0, 0.25)",CHN010D,CHN,D,English,Wed Sep 05 15:02:45 2018,Mouse
1,1,4,0,53,7,7,1,459,349,110,135,0,500,200,8000,"[(960, 540), (960, 540), (960, 540), (960, 540), (960, 540), (960, 540), (960, 540), (960, 540), (960, 540), (960, 540), (960, 540), (960, 540), (960, 540), (960, 540), (960, 540), (960, 540), (960, 540), (960, 540), (960, 540), (960, 540), (960, 540), (960, 540), (960, 540), (960, 540), (960, 540), (960, 540), (960, 540), (960, 540), (960, 540), (960, 540), (960, 540), (960, 540), (960, 540), (960, 540), (961, 540), (971, 535), (980, 528), (991, 522), (1001, 517), (1048, 495), (1079, 483), (1123, 473), (1163, 458), (1254, 435), (1299, 417), (1348, 406)]",340.94709292597474,"[9, 5, 3, 4, 1, 8, 6, 2, 7]","(0, 0.25)",CHN010D,CHN,D,English,Wed Sep 05 15:02:45 2018,Mouse
1,1,4,0,54,6,9,0,-1970,1880,90,134,0,500,200,8000,"[(960, 540), (960, 540), (960, 540), (960, 540), (960, 540), (960, 540), (960, 540), (960, 540), (960, 540), (960, 540), (960, 540), (960, 540), (960, 540), (960, 540), (960, 540), (960, 540), (960, 540), (960, 540), (960, 540), (960, 540), (960, 540), (960, 540), (960, 540), (960, 540), (960, 540), (960, 540), (960, 540), (960, 540), (960, 540), (960, 540), (960, 540), (960, 540), (960, 540), (960, 540), (960, 540), (960, 540), (960, 540), (960, 540), (960, 540), (960, 540), (960, 540), (960, 540), (960, 540), (960, 540), (960, 540), (960, 540), (960, 540), (960, 540), (960, 540), (960, 540), (960, 540), (960, 540), (960, 540), (960, 540), (960, 540), (960, 540), (960, 540), (960, 540), (960, 540), (960, 540), (960, 540), (960, 540), (960, 540), (960, 540), (960, 540), (960, 540), (960, 540), (960, 540), (960, 540), (960, 540), (960, 540), (960, 540), (960, 540), (960, 540), (960, 540), (960, 540), (960, 540), (960, 540), (960, 540), (960, 540), (960, 540), (960, 540), (960, 540), (960, 540), (960, 540), (960, 540), (960, 540), (960, 540), (960, 540), (960, 540), (960, 540), (960, 540), (960, 540), (960, 540), (960, 540), (960, 540), (960, 540), (960, 540), (960, 540), (960, 540), (960, 540), (960, 540), (960, 540), (960, 540), (960, 540), (960, 540), (960, 540), (960, 540), (960, 540), (960, 540), (960, 540), (960, 540), (960, 540), (960, 540), (960, 540), (960, 540), (960, 540), (960, 540), (960, 540), (960, 540), (960, 540), (960, 540), (960, 540), (960, 540), (960, 540), (960, 540), (960, 540), (960, 540), (960, 540), (960, 540), (960, 540), (960, 540), (960, 540), (960, 540), (960, 540), (960, 540), (960, 540), (960, 540), (960, 540), (960, 540), (960, 540), (960, 540), (960, 540), (960, 540), (960, 540), (960, 540), (960, 540), (960, 540), (960, 540), (960, 540), (960, 540), (960, 540), (960, 540), (960, 540), (960, 540), (960, 540), (960, 540), (960, 540), (960, 540), (960, 540), (960, 540), (960, 540), (960, 540), (960, 540), (960, 540), (960, 540), (960, 540), (960, 540), (960, 540), (960, 540), (960, 540), (960, 540), (960, 540), (960, 540), (960, 540), (960, 540), (960, 540), (960, 540), (960, 540), (960, 540), (960, 540), (960, 540), (960, 540), (960, 540), (960, 540), (960, 540), (960, 540), (961, 540), (976, 544), (989, 548), (1003, 551), (1017, 555), (1072, 579), (1106, 593), (1154, 611), (1212, 626), (1369, 663)]",16.737792633321725,"[9, 5, 3, 4, 1, 8, 6, 2, 7]","(0, 0.25)",CHN010D,CHN,D,English,Wed Sep 05 15:02:45 2018,Mouse
1,1,4,0,55,5,2,0,-1929,1109,820,135,0,500,200,8000,"[(960, 540), (960, 540), (960, 540), (960, 540), (960, 540), (960, 540), (960, 540), (960, 540), (960, 540), (960, 540), (960, 540), (960, 540), (960, 540), (960, 540), (960, 540), (960, 540), (960, 540), (960, 540), (960, 540), (960, 540), (960, 540), (960, 540), (960, 540), (960, 540), (960, 540), (960, 540), (960, 540), (960, 540), (960, 540), (960, 540), (960, 540), (960, 540), (960, 540), (960, 540), (960, 540), (960, 540), (960, 540), (960, 540), (960, 540), (960, 540), (960, 540), (960, 540), (960, 540), (960, 540), (960, 540), (960, 540), (960, 540), (960, 540), (960, 540), (960, 540), (960, 540), (960, 540), (960, 540), (960, 540), (960, 540), (960, 540), (960, 540), (960, 540), (960, 540), (960, 540), (960, 540), (960, 540), (960, 540), (960, 540), (960, 540), (960, 540), (960, 540), (960, 540), (960, 540), (960, 540), (960, 540), (960, 540), (960, 540), (960, 540), (960, 540), (960, 540), (960, 540), (960, 540), (960, 540), (960, 540), (960, 540), (960, 540), (960, 540), (960, 540), (960, 540), (960, 540), (960, 540), (960, 540), (960, 540), (960, 540), (960, 540), (960, 540), (960, 540), (960, 540), (960, 540), (960, 540), (960, 540), (960, 540), (960, 540), (960, 540), (960, 540), (960, 540), (960, 540), (960, 540), (960, 540), (960, 540), (960, 540), (960, 540), (960, 540), (960, 540), (959, 540), (959, 540), (959, 540), (959, 540), (958, 540), (958, 540), (958, 540), (958, 540), (957, 541), (955, 541), (955, 541), (953, 542), (952, 543), (951, 543), (951, 543), (950, 544), (950, 544), (950, 544), (950, 544), (950, 544), (950, 544), (950, 544), (950, 544), (950, 544), (950, 544), (950, 544), (950, 544), (950, 544), (950, 544), (950, 544), (950, 544), (950, 544), (950, 544), (950, 544), (950, 544), (950, 544), (950, 544), (950, 544), (950, 544), (950, 544), (950, 544), (950, 544), (950, 544), (950, 544), (950, 544), (950, 544), (950, 544), (950, 544), (950, 544), (950, 544), (950, 544), (950, 544), (950, 544), (950, 544), (950, 544), (950, 544), (950, 544), (950, 544), (950, 544), (950, 544), (950, 544), (950, 544), (950, 544), (950, 544), (950, 544), (950, 544), (950, 544), (950, 544), (950, 544), (950, 544), (950, 544), (950, 541), (965, 523), (978, 507), (994, 487), (1014, 464), (1058, 409), (1074, 384), (1097, 351), (1119, 317), (1157, 249), (1176, 214), (1199, 176)]",303.2886386966398,"[9, 5, 3, 4, 1, 8, 6, 2, 7]","(0, 0.25)",CHN010D,CHN,D,English,Wed Sep 05 15:02:45 2018,Mouse
1,1,4,0,56,8,6,0,-649,289,360,136,0,500,200,8000,"[(960, 540), (960, 540), (960, 540), (960, 540), (960, 540), (960, 540), (960, 540), (960, 540), (960, 540), (960, 540), (960, 540), (960, 540), (960, 540), (960, 540), (960, 540), (960, 540), (960, 540), (960, 540), (960, 540), (960, 540), (960, 540), (960, 540), (960, 540), (960, 540), (960, 540), (960, 540), (960, 540), (960, 540), (958, 542), (957, 543), (957, 544), (956, 545), (956, 545), (955, 546), (955, 546), (955, 546), (955, 547), (955, 547), (955, 547), (955, 547), (955, 547), (955, 547), (955, 547), (955, 547), (955, 547), (955, 547), (955, 547), (955, 547), (955, 547), (955, 546), (955, 546), (955, 546), (956, 545), (956, 545), (956, 544), (956, 541), (956, 530), (952, 518), (947, 500), (930, 462), (901, 394), (880, 340), (863, 298), (852, 253), (834, 156)]",251.83404347077447,"[9, 5, 3, 4, 1, 8, 6, 2, 7]","(0, 0.25)",CHN010D,CHN,D,English,Wed Sep 05 15:02:45 2018,Mouse
1,1,4,0,57,4,4,1,380,30,350,137,0,500,200,8000,"[(960, 540), (960, 540), (959, 540), (959, 540), (957, 542), (957, 542), (957, 542), (957, 542), (956, 543), (954, 545), (954, 545), (952, 546), (948, 548), (943, 552), (940, 554), (936, 558), (932, 562), (925, 569), (921, 573), (917, 578), (912, 583), (909, 588), (901, 597), (896, 605), (891, 610), (874, 626), (865, 633), (853, 643), (838, 657), (805, 684), (794, 697), (778, 712), (763, 726), (731, 758), (713, 773), (697, 782), (680, 794), (637, 818)]",139.28204320109793,"[9, 5, 3, 4, 1, 8, 6, 2, 7]","(0, 0.25)",CHN010D,CHN,D,English,Wed Sep 05 15:02:45 2018,Mouse
1,1,4,0,58,5,5,1,339,20,319,137,0,500,200,8000,"[(960, 540), (961, 541), (963, 543), (965, 544), (965, 544), (967, 546), (970, 548), (971, 548), (972, 550), (973, 550), (975, 553), (975, 553), (976, 554), (976, 554), (977, 555), (978, 556), (979, 557), (979, 557), (981, 559), (984, 560), (987, 562), (989, 564), (991, 566), (999, 574), (1004, 579), (1006, 582), (1010, 591), (1021, 614), (1035, 633), (1051, 663), (1075, 697), (1143, 789), (1178, 836), (1218, 887)]",53.36861254703853,"[9, 5, 3, 4, 1, 8, 6, 2, 7]","(0, 0.25)",CHN010D,CHN,D,English,Wed Sep 05 15:02:45 2018,Mouse
1,1,4,0,59,1,9,0,-921,851,70,136,0,500,200,8000,"[(960, 540), (960, 540), (960, 540), (960, 540), (960, 540), (960, 540), (960, 540), (960, 540), (960, 540), (960, 540), (960, 540), (960, 540), (960, 540), (960, 540), (960, 540), (960, 540), (960, 540), (960, 540), (960, 540), (960, 540), (960, 540), (960, 540), (960, 540), (960, 540), (960, 540), (960, 540), (960, 540), (960, 540), (960, 540), (960, 540), (960, 540), (960, 540), (960, 540), (960, 540), (960, 540), (960, 540), (960, 540), (960, 540), (960, 540), (960, 540), (960, 540), (960, 540), (960, 540), (960, 540), (960, 540), (960, 540), (960, 540), (960, 540), (960, 540), (960, 540), (960, 540), (960, 540), (960, 540), (960, 540), (960, 540), (960, 540), (960, 540), (960, 540), (960, 540), (960, 540), (960, 540), (960, 540), (960, 540), (960, 540), (960, 540), (960, 540), (960, 540), (960, 540), (960, 540), (960, 540), (960, 540), (960, 540), (960, 540), (960, 540), (960, 540), (960, 540), (960, 540), (960, 540), (960, 540), (960, 540), (960, 540), (960, 540), (960, 540), (960, 540), (960, 540), (968, 540), (986, 544), (1013, 550), (1057, 558), (1162, 586), (1234, 608), (1305, 625), (1377, 647)]",14.391311358922072,"[9, 5, 3, 4, 1, 8, 6, 2, 7]","(0, 0.25)",CHN010D,CHN,D,English,Wed Sep 05 15:02:45 2018,Mouse
1,1,4,0,60,1,6,0,-368,68,300,137,0,500,200,8000,"[(960, 540), (960, 540), (960, 540), (960, 540), (960, 540), (960, 540), (959, 540), (959, 540), (958, 540), (958, 540), (958, 540), (957, 541), (957, 541), (957, 541), (957, 541), (957, 541), (957, 541), (957, 541), (957, 541), (957, 541), (957, 539), (956, 532), (953, 527), (953, 524), (951, 518), (947, 507), (945, 498), (942, 489), (939, 476), (927, 439), (919, 411), (912, 378), (908, 336), (895, 252), (889, 204), (884, 155), (884, 108)]",260.02228737984944,"[9, 5, 3, 4, 1, 8, 6, 2, 7]","(0, 0.25)",CHN010D,CHN,D,English,Wed Sep 05 15:02:45 2018,Mouse
1,1,4,0,61,8,8,1,2469,109,2360,138,0,500,200,8000,"[(960, 540), (960, 540), (960, 540), (960, 540), (960, 540), (960, 540), (960, 540), (960, 540), (960, 540), (960, 540), (959, 541), (959, 541), (959, 541), (959, 541), (959, 541), (958, 542), (958, 542), (958, 542), (958, 542), (958, 542), (958, 542), (958, 542), (958, 542), (958, 542), (958, 542), (958, 542), (958, 542), (958, 542), (958, 542), (958, 542), (958, 542), (958, 542), (958, 542), (958, 542), (958, 542), (958, 542), (958, 542), (958, 542), (958, 542), (958, 542), (958, 542), (958, 542), (958, 542), (958, 542), (958, 542), (958, 542), (958, 542), (958, 542), (958, 542), (958, 542), (958, 542), (958, 542), (958, 542), (958, 542), (958, 542), (958, 542), (957, 542), (957, 543), (956, 543), (956, 543), (956, 543), (956, 543), (956, 543), (956, 543), (956, 543), (956, 543), (956, 543), (956, 543), (956, 543), (956, 543), (956, 543), (956, 543), (956, 543), (956, 543), (956, 543), (956, 543), (956, 543), (956, 543), (956, 543), (956, 543), (956, 543), (956, 543), (956, 543), (956, 543), (956, 543), (956, 543), (956, 543), (956, 543), (956, 543), (956, 543), (956, 543), (956, 543), (956, 543), (956, 543), (956, 543), (956, 543), (956, 543), (956, 543), (956, 543), (956, 543), (956, 543), (956, 543), (956, 543), (956, 543), (956, 543), (956, 543), (956, 543), (956, 543), (956, 543), (956, 543), (956, 543), (956, 543), (956, 543), (956, 543), (956, 543), (956, 543), (956, 543), (956, 543), (956, 543), (956, 543), (956, 543), (956, 543), (956, 543), (956, 543), (956, 543), (956, 543), (956, 543), (956, 543), (956, 543), (956, 543), (956, 543), (956, 543), (956, 543), (956, 543), (956, 543), (956, 543), (956, 543), (956, 543), (956, 543), (956, 543), (956, 543), (956, 543), (956, 543), (956, 543), (956, 543), (956, 543), (956, 543), (955, 545), (954, 545), (954, 545), (954, 547), (952, 549), (951, 551), (951, 551), (951, 551), (951, 551), (951, 551), (951, 551), (951, 551), (951, 551), (951, 551), (951, 551), (951, 551), (951, 551), (951, 551), (951, 551), (951, 551), (951, 551), (951, 551), (951, 551), (951, 551), (951, 551), (951, 551), (951, 551), (951, 551), (951, 551), (951, 551), (951, 551), (951, 551), (951, 551), (951, 551), (951, 551), (951, 552), (952, 553), (955, 553), (960, 549), (962, 545), (969, 534), (971, 530), (974, 522), (975, 517), (977, 507), (979, 498), (980, 490), (981, 476), (981, 448), (981, 434), (978, 422), (973, 410), (966, 380), (960, 367), (955, 353), (953, 341), (945, 317), (943, 308), (942, 302), (939, 298), (934, 287), (928, 272), (924, 263), (921, 255), (916, 247), (914, 245), (913, 244), (911, 242), (910, 241), (909, 240), (909, 240), (909, 240), (908, 240), (908, 240), (907, 240), (907, 240), (904, 240), (904, 240), (902, 240), (901, 240), (896, 240), (893, 241), (890, 244), (884, 246), (867, 254), (856, 259), (848, 262), (836, 266), (807, 278), (791, 282), (768, 290), (757, 293), (736, 295), (727, 295), (716, 295), (708, 295), (685, 290), (673, 285), (660, 279), (651, 276)]",220.50954807888368,"[9, 5, 3, 4, 1, 8, 6, 2, 7]","(0, 0.25)",CHN010D,CHN,D,English,Wed Sep 05 15:02:45 2018,Mouse
1,1,4,0,62,9,9,1,970,80,890,138,0,500,200,8000,"[(960, 540), (960, 540), (960, 540), (960, 540), (960, 540), (960, 540), (960, 540), (960, 537), (960, 537), (960, 536), (960, 535), (960, 535), (960, 535), (960, 535), (960, 535), (960, 535), (960, 535), (960, 535), (960, 535), (960, 535), (960, 535), (960, 535), (960, 535), (960, 535), (960, 535), (960, 535), (960, 535), (960, 535), (960, 535), (960, 534), (960, 534), (961, 532), (961, 532), (961, 532), (961, 532), (961, 532), (961, 532), (961, 532), (961, 532), (961, 532), (961, 532), (961, 532), (961, 532), (961, 531), (961, 531), (961, 531), (961, 531), (961, 531), (961, 531), (962, 530), (962, 530), (962, 529), (962, 529), (962, 529), (962, 529), (962, 529), (962, 529), (962, 529), (962, 529), (962, 529), (962, 529), (962, 529), (963, 528), (963, 528), (963, 528), (963, 528), (964, 528), (964, 528), (965, 527), (965, 526), (967, 526), (970, 524), (973, 522), (975, 521), (977, 520), (984, 517), (986, 517), (988, 517), (994, 516), (996, 516), (999, 516), (1002, 516), (1005, 516), (1015, 516), (1020, 517), (1027, 520), (1031, 522), (1045, 529), (1051, 533), (1061, 538), (1074, 546), (1117, 570), (1144, 586), (1182, 605), (1228, 624), (1335, 668), (1393, 686)]",18.633203324121208,"[9, 5, 3, 4, 1, 8, 6, 2, 7]","(0, 0.25)",CHN010D,CHN,D,English,Wed Sep 05 15:02:45 2018,Mouse
1,1,4,0,63,4,4,1,859,149,710,137,0,500,200,8000,"[(960, 540), (960, 540), (960, 540), (960, 540), (960, 540), (960, 540), (960, 540), (960, 540), (960, 540), (960, 540), (960, 540), (960, 540), (960, 540), (960, 540), (959, 540), (958, 540), (956, 540), (954, 540), (953, 540), (950, 540), (944, 541), (939, 542), (935, 542), (931, 543), (919, 544), (915, 546), (913, 546), (910, 547), (905, 548), (903, 548), (900, 550), (896, 551), (890, 552), (885, 555), (881, 557), (875, 560), (864, 566), (859, 569), (854, 572), (846, 576), (835, 582), (830, 586), (827, 587), (825, 587), (823, 588), (823, 588), (823, 588), (823, 588), (823, 588), (823, 588), (823, 588), (823, 588), (823, 588), (823, 588), (823, 588), (823, 588), (822, 589), (821, 589), (820, 589), (820, 590), (816, 591), (816, 591), (815, 591), (813, 592), (811, 593), (809, 596), (806, 597), (802, 600), (792, 608), (787, 613), (782, 618), (777, 624), (766, 638), (760, 644), (755, 649), (750, 654), (736, 668), (728, 676), (720, 685), (712, 695), (696, 716), (687, 728), (676, 738), (665, 747), (640, 767), (632, 772)]",144.72757855140162,"[9, 5, 3, 4, 1, 8, 6, 2, 7]","(0, 0.25)",CHN010D,CHN,D,English,Wed Sep 05 15:02:45 2018,Mouse
1,1,4,0,64,3,3,1,389,239,150,136,0,500,200,8000,"[(960, 540), (960, 540), (960, 540), (960, 540), (960, 540), (960, 540), (960, 540), (960, 540), (960, 540), (960, 540), (960, 540), (960, 540), (960, 540), (960, 540), (960, 540), (960, 540), (960, 540), (960, 540), (960, 540), (960, 540), (960, 540), (960, 540), (960, 540), (960, 541), (959, 547), (958, 554), (956, 572), (954, 583), (952, 598), (951, 613), (951, 654), (951, 676), (950, 699), (948, 720), (942, 770), (940, 801), (937, 838), (937, 880), (937, 958)]",93.1494626762983,"[9, 5, 3, 4, 1, 8, 6, 2, 7]","(0, 0.25)",CHN010D,CHN,D,English,Wed Sep 05 15:02:45 2018,Mouse
1,1,4,0,65,6,6,1,370,190,180,135,0,500,200,8000,"[(960, 540), (960, 540), (960, 540), (960, 540), (960, 540), (960, 540), (960, 540), (960, 540), (960, 540), (960, 540), (960, 540), (960, 540), (960, 540), (960, 540), (960, 540), (960, 540), (960, 540), (960, 540), (957, 540), (956, 536), (954, 530), (951, 524), (946, 511), (943, 501), (941, 489), (939, 475), (932, 431), (926, 411), (918, 386), (910, 355), (886, 295), (877, 271), (867, 248), (859, 220), (846, 181), (845, 163), (842, 145)]",253.36731681821155,"[9, 5, 3, 4, 1, 8, 6, 2, 7]","(0, 0.25)",CHN010D,CHN,D,English,Wed Sep 05 15:02:45 2018,Mouse
1,1,4,0,66,1,1,1,969,529,440,134,0,500,200,8000,"[(960, 540), (960, 540), (960, 540), (960, 540), (960, 540), (960, 540), (960, 540), (960, 540), (960, 540), (960, 540), (960, 540), (960, 540), (960, 540), (960, 540), (960, 540), (960, 540), (960, 540), (960, 540), (960, 540), (960, 540), (960, 540), (960, 540), (960, 540), (960, 540), (960, 540), (960, 540), (960, 540), (960, 540), (960, 540), (960, 540), (960, 540), (960, 540), (960, 540), (960, 540), (960, 540), (960, 540), (960, 540), (960, 540), (960, 540), (960, 540), (960, 540), (960, 540), (960, 540), (960, 540), (960, 540), (960, 540), (960, 540), (960, 540), (960, 540), (960, 540), (960, 540), (960, 540), (959, 540), (959, 540), (959, 540), (959, 540), (959, 540), (959, 540), (959, 540), (959, 540), (959, 540), (959, 540), (959, 540), (959, 540), (959, 540), (959, 540), (959, 540), (959, 540), (959, 540), (959, 540), (959, 541), (959, 541), (959, 541), (959, 541), (959, 541), (959, 541), (959, 541), (959, 541), (959, 541), (959, 541), (959, 541), (959, 541), (959, 541), (959, 541), (956, 541), (953, 543), (948, 545), (944, 546), (927, 551), (913, 553), (899, 555), (877, 561), (806, 577), (757, 583), (701, 591), (644, 597), (538, 601)]",171.77487985647738,"[9, 5, 3, 4, 1, 8, 6, 2, 7]","(0, 0.25)",CHN010D,CHN,D,English,Wed Sep 05 15:02:45 2018,Mouse
1,1,4,0,67,2,2,1,649,519,130,133,0,500,200,8000,"[(960, 540), (960, 540), (960, 540), (960, 540), (960, 540), (960, 540), (960, 540), (960, 540), (960, 540), (960, 540), (960, 540), (960, 540), (960, 540), (960, 540), (960, 540), (960, 540), (960, 540), (960, 540), (960, 540), (960, 540), (960, 540), (960, 540), (960, 540), (960, 540), (960, 540), (960, 540), (960, 540), (960, 540), (960, 540), (960, 540), (960, 540), (960, 540), (960, 540), (960, 540), (960, 540), (960, 540), (960, 540), (960, 540), (960, 540), (960, 540), (960, 540), (960, 540), (960, 540), (960, 540), (960, 540), (960, 540), (960, 540), (960, 540), (960, 540), (960, 540), (960, 540), (959, 533), (970, 513), (974, 503), (982, 492), (989, 479), (1010, 446), (1022, 426), (1038, 404), (1057, 373), (1099, 310), (1123, 278), (1152, 249), (1181, 217), (1234, 163)]",306.00929615601007,"[9, 5, 3, 4, 1, 8, 6, 2, 7]","(0, 0.25)",CHN010D,CHN,D,English,Wed Sep 05 15:02:45 2018,Mouse
1,1,4,0,68,8,1,0,-1260,1170,90,132,0,500,200,8000,"[(960, 540), (960, 540), (960, 540), (960, 540), (960, 540), (960, 540), (960, 540), (960, 540), (960, 540), (960, 540), (960, 540), (960, 540), (960, 540), (960, 540), (960, 540), (960, 540), (960, 540), (960, 540), (960, 540), (960, 540), (960, 540), (960, 540), (960, 540), (960, 540), (960, 540), (960, 540), (960, 540), (960, 540), (960, 540), (960, 540), (960, 540), (960, 540), (960, 540), (960, 540), (960, 540), (960, 540), (960, 540), (960, 540), (960, 540), (960, 540), (960, 540), (960, 540), (960, 540), (960, 540), (960, 540), (960, 540), (960, 540), (960, 540), (960, 540), (960, 540), (960, 540), (960, 540), (960, 540), (960, 540), (960, 540), (960, 540), (960, 540), (960, 540), (960, 540), (960, 540), (960, 540), (960, 540), (960, 540), (960, 540), (960, 540), (960, 540), (960, 540), (960, 540), (960, 540), (960, 540), (960, 540), (960, 540), (960, 540), (960, 540), (960, 540), (960, 540), (960, 540), (960, 540), (960, 540), (960, 540), (960, 540), (960, 540), (960, 540), (960, 540), (960, 540), (960, 540), (960, 540), (960, 540), (960, 540), (960, 540), (960, 540), (960, 540), (960, 540), (960, 540), (960, 540), (960, 540), (960, 540), (960, 540), (960, 540), (960, 540), (960, 540), (960, 540), (960, 540), (960, 540), (960, 540), (960, 540), (960, 540), (960, 540), (960, 540), (960, 540), (960, 540), (960, 540), (960, 540), (960, 540), (960, 540), (960, 540), (959, 541), (957, 542), (946, 547), (935, 549), (917, 554), (888, 558), (793, 571), (726, 575), (651, 578), (469, 578)]",175.57452508792113,"[9, 5, 3, 4, 1, 8, 6, 2, 7]","(0, 0.25)",CHN010D,CHN,D,English,Wed Sep 05 15:02:45 2018,Mouse
1,1,4,0,69,5,5,1,1839,1639,200,133,0,500,200,8000,"[(960, 540), (960, 540), (960, 540), (960, 540), (960, 540), (960, 540), (960, 540), (960, 540), (960, 540), (960, 540), (960, 540), (960, 540), (960, 540), (960, 540), (960, 540), (960, 540), (960, 540), (960, 540), (960, 540), (960, 540), (960, 540), (960, 540), (960, 540), (960, 540), (960, 540), (960, 540), (960, 540), (960, 540), (960, 540), (960, 540), (960, 540), (960, 540), (960, 540), (960, 540), (960, 540), (960, 540), (960, 540), (960, 540), (960, 540), (960, 540), (960, 540), (960, 540), (960, 540), (960, 540), (960, 540), (960, 540), (960, 540), (960, 540), (960, 540), (960, 540), (960, 540), (960, 540), (960, 540), (960, 540), (960, 540), (960, 540), (960, 540), (960, 540), (960, 540), (960, 540), (960, 540), (960, 540), (960, 540), (960, 540), (960, 540), (960, 540), (960, 540), (960, 540), (960, 540), (960, 540), (960, 540), (960, 540), (960, 540), (960, 540), (960, 540), (960, 540), (960, 540), (960, 540), (960, 540), (960, 540), (960, 540), (960, 540), (960, 540), (960, 540), (960, 540), (960, 540), (960, 540), (960, 540), (960, 540), (960, 540), (960, 540), (960, 540), (960, 540), (960, 540), (960, 540), (960, 540), (960, 540), (960, 540), (960, 540), (960, 540), (960, 540), (960, 540), (960, 540), (960, 540), (960, 540), (960, 540), (960, 540), (960, 540), (960, 540), (960, 540), (960, 540), (960, 540), (960, 540), (960, 540), (960, 540), (960, 540), (960, 540), (960, 540), (960, 540), (960, 540), (960, 540), (960, 540), (960, 540), (960, 540), (960, 540), (960, 540), (960, 540), (960, 540), (960, 540), (960, 540), (960, 540), (960, 540), (960, 540), (960, 540), (960, 540), (960, 540), (960, 540), (960, 540), (960, 540), (960, 540), (960, 540), (960, 540), (960, 540), (960, 540), (960, 540), (960, 540), (960, 540), (960, 540), (960, 540), (960, 540), (960, 540), (960, 540), (960, 540), (960, 540), (960, 540), (960, 540), (960, 540), (960, 540), (960, 540), (960, 540), (960, 540), (960, 540), (960, 540), (962, 542), (962, 543), (965, 545), (968, 547), (977, 554), (982, 559), (988, 564), (996, 569), (1017, 586), (1029, 597), (1039, 606), (1051, 616), (1069, 635), (1079, 647), (1088, 663), (1101, 687), (1126, 740), (1145, 775), (1165, 811), (1183, 843), (1216, 901)]",54.65797291424476,"[9, 5, 3, 4, 1, 8, 6, 2, 7]","(0, 0.25)",CHN010D,CHN,D,English,Wed Sep 05 15:02:45 2018,Mouse
1,1,4,0,70,3,5,0,-1670,210,1460,133,0,500,200,8000,"[(960, 540), (960, 540), (960, 540), (960, 540), (960, 540), (960, 540), (960, 540), (960, 540), (960, 540), (960, 540), (960, 540), (960, 540), (960, 540), (960, 540), (960, 540), (960, 540), (960, 540), (960, 540), (960, 540), (960, 540), (959, 541), (959, 541), (959, 541), (959, 541), (959, 541), (957, 541), (957, 541), (956, 542), (956, 542), (956, 542), (956, 542), (956, 542), (956, 542), (956, 542), (956, 542), (956, 542), (956, 542), (956, 542), (956, 542), (956, 542), (956, 542), (956, 542), (956, 542), (956, 542), (956, 542), (956, 542), (956, 542), (956, 542), (956, 542), (956, 542), (956, 542), (956, 542), (956, 542), (956, 542), (956, 542), (956, 542), (956, 542), (956, 542), (956, 542), (956, 542), (956, 542), (956, 542), (956, 542), (956, 542), (956, 542), (956, 542), (956, 542), (956, 542), (954, 542), (954, 542), (954, 542), (954, 542), (954, 542), (954, 542), (954, 542), (954, 542), (954, 542), (954, 542), (954, 542), (954, 542), (954, 542), (954, 542), (954, 542), (954, 542), (953, 542), (953, 542), (953, 542), (953, 542), (953, 542), (953, 542), (953, 542), (953, 542), (953, 542), (953, 542), (953, 542), (953, 542), (953, 542), (953, 542), (953, 542), (953, 542), (953, 542), (953, 542), (951, 544), (951, 544), (949, 544), (947, 544), (944, 545), (943, 545), (941, 545), (941, 545), (939, 546), (939, 546), (939, 546), (939, 546), (939, 546), (939, 546), (939, 546), (939, 546), (939, 546), (939, 546), (939, 546), (939, 546), (939, 546), (939, 546), (939, 546), (939, 546), (939, 546), (939, 546), (939, 546), (939, 546), (939, 546), (939, 546), (939, 546), (939, 546), (939, 546), (939, 546), (939, 546), (939, 546), (939, 546), (939, 546), (939, 546), (939, 546), (939, 548), (939, 552), (939, 555), (939, 560), (944, 570), (947, 575), (951, 583), (953, 587), (963, 600), (967, 606), (974, 615), (979, 622), (994, 641), (1004, 655), (1014, 669), (1022, 681), (1048, 718), (1058, 737), (1071, 759), (1083, 780), (1107, 826), (1123, 848), (1136, 866), (1149, 883), (1181, 921)]",59.88401633723456,"[9, 5, 3, 4, 1, 8, 6, 2, 7]","(0, 0.25)",CHN010D,CHN,D,English,Wed Sep 05 15:02:45 2018,Mouse
1,1,4,0,71,6,1,0,-429,339,90,134,0,500,200,8000,"[(960, 540), (960, 540), (960, 540), (960, 540), (960, 540), (960, 540), (960, 540), (960, 540), (960, 540), (960, 540), (960, 540), (960, 540), (960, 540), (960, 540), (960, 540), (960, 540), (960, 540), (960, 540), (960, 540), (960, 540), (960, 540), (960, 540), (960, 540), (960, 540), (960, 540), (960, 540), (960, 540), (960, 540), (960, 540), (960, 540), (960, 540), (960, 540), (960, 540), (958, 540), (946, 540), (932, 540), (916, 540), (885, 540), (783, 540), (716, 540), (647, 540), (564, 540), (409, 540)]",180.0,"[9, 5, 3, 4, 1, 8, 6, 2, 7]","(0, 0.25)",CHN010D,CHN,D,English,Wed Sep 05 15:02:45 2018,Mouse
1,1,4,0,72,3,3,1,290,30,260,135,0,500,200,8000,"[(960, 540), (960, 540), (959, 540), (958, 540), (958, 540), (958, 540), (957, 540), (956, 541), (956, 541), (956, 541), (956, 542), (956, 543), (956, 544), (956, 545), (956, 547), (956, 550), (955, 555), (955, 562), (953, 580), (950, 591), (948, 602), (947, 615), (942, 654), (937, 680), (937, 717), (937, 761), (937, 872), (937, 930), (937, 985)]",92.95872214678076,"[9, 5, 3, 4, 1, 8, 6, 2, 7]","(0, 0.25)",CHN010D,CHN,D,English,Wed Sep 05 15:02:45 2018,Mouse
1,1,4,0,73,9,9,1,570,490,80,135,0,500,200,8000,"[(960, 540), (960, 540), (960, 540), (960, 540), (960, 540), (960, 540), (960, 540), (960, 540), (960, 540), (960, 540), (960, 540), (960, 540), (960, 540), (960, 540), (960, 540), (960, 540), (960, 540), (960, 540), (960, 540), (960, 540), (960, 540), (960, 540), (960, 540), (960, 540), (960, 540), (960, 540), (960, 540), (960, 540), (960, 540), (960, 540), (960, 540), (960, 540), (960, 540), (960, 540), (960, 540), (960, 540), (960, 540), (960, 540), (960, 540), (960, 540), (960, 540), (960, 540), (960, 540), (960, 540), (960, 540), (960, 540), (960, 540), (960, 540), (961, 540), (967, 540), (978, 543), (998, 550), (1092, 573), (1151, 601), (1227, 634), (1302, 661), (1455, 714)]",19.367347547776234,"[9, 5, 3, 4, 1, 8, 6, 2, 7]","(0, 0.25)",CHN010D,CHN,D,English,Wed Sep 05 15:02:45 2018,Mouse
1,1,4,0,74,1,4,0,-720,630,90,134,0,500,200,8000,"[(960, 540), (960, 540), (960, 540), (960, 540), (960, 540), (960, 540), (960, 540), (960, 540), (960, 540), (960, 540), (960, 540), (960, 540), (960, 540), (960, 540), (960, 540), (960, 540), (960, 540), (960, 540), (960, 540), (960, 540), (960, 540), (960, 540), (960, 540), (960, 540), (960, 540), (960, 540), (960, 540), (960, 540), (960, 540), (960, 540), (960, 540), (960, 540), (960, 540), (960, 540), (960, 540), (960, 540), (960, 540), (960, 540), (960, 540), (960, 540), (960, 540), (960, 540), (960, 540), (960, 540), (960, 540), (960, 540), (960, 540), (960, 540), (960, 540), (960, 540), (960, 540), (960, 540), (960, 540), (960, 540), (960, 540), (960, 540), (960, 540), (960, 540), (960, 540), (960, 540), (960, 540), (960, 540), (961, 546), (938, 568), (918, 581), (893, 598), (863, 616), (773, 666), (726, 694), (677, 721), (630, 751), (552, 808)]",146.70057946281582,"[9, 5, 3, 4, 1, 8, 6, 2, 7]","(0, 0.25)",CHN010D,CHN,D,English,Wed Sep 05 15:02:45 2018,Mouse
1,1,4,0,75,3,5,0,-628,518,110,135,0,500,200,8000,"[(960, 540), (960, 540), (960, 540), (960, 540), (960, 540), (960, 540), (960, 540), (960, 540), (960, 540), (960, 540), (960, 540), (960, 540), (960, 540), (960, 540), (960, 540), (960, 540), (960, 540), (960, 540), (960, 540), (960, 540), (960, 540), (960, 540), (960, 540), (960, 540), (960, 540), (960, 540), (960, 540), (960, 540), (960, 540), (960, 540), (960, 540), (960, 540), (960, 540), (960, 540), (960, 540), (960, 540), (960, 540), (960, 540), (960, 540), (960, 540), (960, 540), (960, 540), (960, 540), (960, 540), (960, 540), (960, 540), (960, 540), (960, 540), (960, 540), (960, 540), (960, 540), (963, 543), (966, 550), (971, 560), (977, 570), (994, 596), (1013, 624), (1032, 649), (1054, 682), (1110, 758), (1144, 798), (1182, 848), (1229, 902)]",53.38418396804722,"[9, 5, 3, 4, 1, 8, 6, 2, 7]","(0, 0.25)",CHN010D,CHN,D,English,Wed Sep 05 15:02:45 2018,Mouse
1,1,4,0,76,9,9,1,440,300,140,136,0,500,200,8000,"[(960, 540), (960, 540), (960, 540), (960, 540), (960, 540), (960, 540), (960, 540), (960, 540), (960, 540), (960, 540), (960, 540), (960, 540), (960, 540), (960, 540), (960, 540), (960, 540), (960, 540), (960, 540), (960, 540), (960, 540), (960, 540), (960, 540), (960, 540), (960, 540), (960, 540), (960, 540), (960, 540), (960, 540), (960, 540), (960, 538), (960, 537), (962, 534), (963, 534), (967, 534), (973, 534), (987, 534), (999, 538), (1027, 546), (1075, 562), (1169, 589), (1219, 601), (1272, 620), (1321, 631), (1402, 656)]",14.705272056130012,"[9, 5, 3, 4, 1, 8, 6, 2, 7]","(0, 0.25)",CHN010D,CHN,D,English,Wed Sep 05 15:02:45 2018,Mouse
1,1,4,0,77,5,5,1,889,349,540,136,0,500,200,8000,"[(960, 540), (960, 540), (960, 540), (960, 540), (960, 540), (960, 540), (960, 540), (960, 540), (960, 540), (960, 540), (960, 540), (960, 540), (960, 540), (960, 540), (960, 540), (960, 540), (960, 540), (960, 540), (960, 540), (960, 540), (960, 540), (960, 540), (960, 540), (960, 540), (960, 540), (960, 540), (960, 540), (960, 540), (960, 540), (960, 540), (960, 540), (960, 540), (960, 540), (960, 540), (961, 539), (961, 538), (961, 538), (961, 538), (961, 538), (961, 538), (962, 536), (962, 536), (963, 536), (963, 535), (963, 535), (963, 535), (963, 535), (964, 534), (964, 534), (964, 534), (964, 534), (964, 534), (964, 534), (964, 534), (964, 534), (964, 534), (964, 534), (964, 534), (964, 534), (964, 534), (964, 534), (964, 534), (964, 534), (964, 534), (964, 534), (964, 534), (964, 534), (964, 534), (964, 534), (964, 534), (964, 534), (964, 534), (964, 534), (964, 534), (964, 534), (964, 534), (964, 534), (964, 534), (967, 534), (967, 534), (968, 536), (969, 539), (974, 563), (987, 594), (1001, 647), (1032, 720), (1096, 842), (1130, 887), (1167, 919)]",61.35777405775921,"[9, 5, 3, 4, 1, 8, 6, 2, 7]","(0, 0.25)",CHN010D,CHN,D,English,Wed Sep 05 15:02:45 2018,Mouse
1,1,4,0,78,9,9,1,621,101,520,135,0,500,200,8000,"[(960, 540), (960, 540), (960, 540), (960, 540), (960, 540), (960, 540), (960, 540), (960, 540), (960, 540), (960, 540), (960, 539), (960, 539), (960, 539), (960, 538), (960, 538), (960, 538), (960, 538), (960, 537), (960, 537), (960, 536), (960, 536), (960, 536), (960, 536), (960, 535), (960, 535), (960, 535), (960, 534), (960, 534), (960, 534), (960, 534), (960, 534), (960, 534), (960, 534), (960, 534), (960, 534), (960, 534), (960, 534), (960, 534), (960, 534), (960, 534), (960, 534), (960, 534), (960, 534), (960, 534), (960, 534), (960, 534), (960, 534), (960, 534), (960, 534), (960, 534), (960, 534), (960, 534), (960, 534), (962, 534), (970, 534), (982, 534), (1006, 541), (1084, 561), (1131, 575), (1175, 586), (1225, 600), (1333, 631), (1386, 647)]",14.099518737081809,"[9, 5, 3, 4, 1, 8, 6, 2, 7]","(0, 0.25)",CHN010D,CHN,D,English,Wed Sep 05 15:02:45 2018,Mouse
1,1,4,0,79,5,7,0,-2699,299,2400,134,0,500,200,8000,"[(960, 540), (960, 540), (960, 540), (960, 540), (960, 540), (960, 540), (960, 540), (960, 540), (960, 540), (960, 540), (960, 540), (960, 540), (960, 540), (960, 540), (960, 540), (960, 540), (960, 540), (960, 540), (960, 540), (960, 540), (960, 540), (960, 540), (960, 540), (960, 540), (960, 540), (960, 540), (960, 540), (960, 540), (960, 540), (960, 539), (960, 539), (960, 539), (960, 539), (960, 539), (960, 538), (960, 538), (960, 538), (960, 536), (960, 536), (960, 536), (960, 536), (960, 536), (961, 535), (961, 534), (961, 534), (961, 534), (961, 533), (961, 533), (961, 533), (961, 533), (961, 533), (961, 533), (961, 533), (961, 533), (961, 533), (961, 533), (961, 533), (961, 533), (961, 533), (961, 533), (961, 533), (961, 533), (961, 533), (961, 533), (961, 533), (961, 533), (961, 533), (961, 533), (961, 533), (961, 533), (961, 533), (961, 533), (961, 533), (961, 533), (961, 533), (961, 533), (961, 533), (961, 533), (961, 533), (961, 533), (961, 533), (961, 533), (961, 533), (961, 533), (961, 533), (961, 533), (961, 533), (961, 533), (961, 533), (961, 533), (961, 533), (961, 533), (961, 533), (961, 533), (961, 533), (961, 533), (961, 533), (961, 533), (961, 533), (961, 533), (961, 533), (961, 533), (961, 533), (961, 533), (961, 533), (961, 533), (961, 533), (961, 533), (961, 533), (961, 533), (961, 533), (961, 533), (961, 533), (961, 533), (961, 533), (961, 533), (961, 533), (961, 533), (961, 533), (961, 533), (961, 533), (961, 533), (961, 533), (961, 533), (961, 533), (961, 533), (961, 533), (961, 533), (961, 533), (961, 533), (961, 533), (961, 533), (961, 533), (961, 533), (961, 533), (961, 533), (961, 533), (961, 533), (961, 533), (961, 533), (961, 533), (961, 533), (961, 533), (961, 533), (961, 533), (961, 533), (961, 533), (961, 533), (961, 533), (961, 533), (961, 533), (961, 533), (961, 533), (961, 533), (961, 533), (961, 533), (961, 533), (961, 533), (961, 533), (961, 533), (961, 533), (961, 533), (961, 533), (961, 533), (961, 533), (961, 533), (961, 533), (961, 533), (961, 533), (961, 533), (961, 533), (961, 533), (961, 533), (961, 532), (961, 532), (961, 532), (961, 532), (961, 532), (961, 532), (961, 532), (961, 532), (961, 532), (961, 532), (961, 532), (961, 532), (961, 532), (961, 532), (961, 532), (961, 532), (961, 532), (961, 532), (961, 532), (961, 532), (961, 532), (961, 532), (961, 532), (961, 532), (961, 532), (961, 532), (961, 532), (961, 532), (961, 532), (961, 532), (961, 532), (961, 532), (961, 532), (961, 532), (961, 532), (961, 532), (961, 532), (961, 532), (961, 532), (961, 532), (961, 532), (961, 532), (961, 532), (961, 532), (961, 532), (961, 532), (961, 532), (961, 532), (961, 532), (961, 532), (961, 532), (961, 532), (961, 532), (961, 532), (961, 532), (961, 532), (961, 532), (961, 532), (961, 532), (961, 532), (961, 532), (961, 532), (961, 532), (961, 532), (961, 532), (961, 532), (961, 532), (961, 532), (961, 532), (961, 532), (961, 532), (961, 532), (961, 532), (961, 532), (961, 532), (961, 532), (961, 532), (963, 532), (967, 530), (971, 528), (975, 525), (981, 524), (986, 522), (992, 520), (1008, 514), (1018, 511), (1029, 509), (1042, 504), (1081, 495), (1112, 484), (1140, 478), (1179, 465), (1248, 445), (1281, 438), (1308, 435), (1334, 431), (1378, 426)]",344.7448812969422,"[9, 5, 3, 4, 1, 8, 6, 2, 7]","(0, 0.25)",CHN010D,CHN,D,English,Wed Sep 05 15:02:45 2018,Mouse
1,1,4,0,80,6,4,0,-448,358,90,135,0,500,200,8000,"[(960, 540), (960, 540), (960, 540), (960, 540), (960, 540), (960, 540), (960, 540), (960, 540), (960, 540), (960, 540), (960, 540), (960, 540), (960, 540), (960, 540), (960, 540), (960, 540), (960, 540), (960, 540), (960, 540), (960, 540), (960, 540), (960, 540), (960, 540), (960, 540), (960, 540), (960, 540), (960, 540), (960, 540), (960, 540), (960, 540), (960, 540), (960, 540), (960, 540), (960, 540), (960, 540), (959, 543), (956, 555), (945, 571), (908, 631), (883, 670), (847, 707), (816, 744), (734, 806), (704, 828), (668, 852)]",133.1034816967907,"[9, 5, 3, 4, 1, 8, 6, 2, 7]","(0, 0.25)",CHN010D,CHN,D,English,Wed Sep 05 15:02:45 2018,Mouse
1,1,4,0,81,5,5,1,620,550,70,136,0,500,200,8000,"[(960, 540), (960, 540), (960, 540), (960, 540), (960, 540), (960, 540), (960, 540), (960, 540), (960, 540), (960, 540), (960, 540), (960, 540), (960, 540), (960, 540), (960, 540), (960, 540), (960, 540), (960, 540), (960, 540), (960, 540), (960, 540), (960, 540), (960, 540), (960, 540), (960, 540), (960, 540), (960, 540), (960, 540), (960, 540), (960, 540), (960, 540), (960, 540), (960, 540), (960, 540), (960, 540), (960, 540), (960, 540), (960, 540), (960, 540), (960, 540), (960, 540), (960, 540), (960, 540), (960, 540), (960, 540), (960, 540), (960, 540), (960, 540), (960, 540), (960, 540), (960, 540), (960, 540), (960, 540), (960, 540), (961, 540), (968, 553), (978, 574), (996, 602), (1056, 709), (1094, 774), (1135, 838), (1182, 902)]",58.480889814932794,"[9, 5, 3, 4, 1, 8, 6, 2, 7]","(0, 0.25)",CHN010D,CHN,D,English,Wed Sep 05 15:02:45 2018,Mouse
1,1,4,0,82,2,5,0,-1230,1040,190,136,0,500,200,8000,"[(960, 540), (960, 540), (960, 540), (960, 540), (960, 540), (960, 540), (960, 540), (960, 540), (960, 540), (960, 540), (960, 540), (960, 540), (960, 540), (960, 540), (960, 540), (960, 540), (960, 540), (960, 540), (960, 540), (960, 540), (960, 540), (960, 540), (960, 540), (960, 540), (960, 540), (960, 540), (960, 540), (960, 540), (960, 540), (960, 540), (960, 540), (960, 540), (960, 540), (960, 540), (960, 540), (960, 540), (960, 540), (960, 540), (960, 540), (960, 540), (960, 540), (960, 540), (960, 540), (960, 540), (960, 540), (960, 540), (960, 540), (960, 540), (960, 540), (960, 540), (960, 540), (960, 540), (960, 540), (960, 540), (960, 540), (960, 540), (960, 540), (960, 540), (960, 540), (960, 540), (960, 540), (960, 540), (960, 540), (960, 540), (960, 540), (960, 540), (960, 540), (960, 540), (960, 540), (960, 540), (960, 540), (960, 540), (960, 540), (960, 540), (960, 540), (960, 540), (960, 540), (960, 540), (960, 540), (960, 540), (960, 540), (960, 540), (960, 540), (960, 540), (960, 540), (960, 540), (960, 540), (960, 540), (960, 540), (960, 540), (960, 540), (960, 540), (960, 540), (960, 540), (960, 540), (960, 540), (960, 540), (960, 540), (960, 540), (960, 540), (960, 540), (960, 540), (960, 540), (960, 541), (962, 543), (964, 546), (964, 548), (966, 551), (968, 556), (973, 562), (975, 567), (985, 585), (997, 601), (1008, 618), (1018, 630), (1059, 682), (1079, 703), (1099, 726), (1117, 751), (1161, 806), (1180, 825), (1203, 851), (1232, 876)]",51.00900595749453,"[9, 5, 3, 4, 1, 8, 6, 2, 7]","(0, 0.25)",CHN010D,CHN,D,English,Wed Sep 05 15:02:45 2018,Mouse
1,1,4,0,83,1,9,0,-401,311,90,137,0,500,200,8000,"[(960, 540), (960, 540), (960, 540), (960, 540), (960, 540), (960, 540), (960, 540), (960, 540), (960, 540), (960, 540), (960, 540), (960, 540), (960, 540), (960, 540), (960, 540), (960, 540), (960, 540), (960, 540), (960, 540), (960, 540), (960, 540), (960, 540), (960, 540), (960, 540), (960, 540), (960, 540), (960, 540), (960, 540), (960, 540), (960, 540), (960, 540), (961, 540), (966, 539), (977, 539), (990, 540), (1012, 549), (1080, 572), (1122, 589), (1176, 610), (1235, 635), (1355, 680)]",19.515873009582698,"[9, 5, 3, 4, 1, 8, 6, 2, 7]","(0, 0.25)",CHN010D,CHN,D,English,Wed Sep 05 15:02:45 2018,Mouse
1,1,4,0,84,9,9,1,390,270,120,138,0,500,200,8000,"[(960, 540), (960, 540), (960, 540), (960, 540), (960, 540), (960, 540), (960, 540), (960, 540), (960, 540), (960, 540), (960, 540), (960, 540), (960, 540), (960, 540), (960, 540), (960, 540), (960, 540), (960, 540), (960, 540), (960, 540), (960, 540), (960, 540), (960, 540), (960, 540), (960, 540), (960, 540), (962, 539), (966, 539), (970, 539), (980, 539), (1010, 543), (1033, 546), (1057, 549), (1095, 556), (1184, 569), (1234, 581), (1289, 598), (1347, 617), (1474, 650)]",12.07953098661499,"[9, 5, 3, 4, 1, 8, 6, 2, 7]","(0, 0.25)",CHN010D,CHN,D,English,Wed Sep 05 15:02:45 2018,Mouse
1,1,4,0,85,8,8,1,710,580,130,138,0,500,200,8000,"[(960, 540), (960, 540), (960, 540), (960, 540), (960, 540), (960, 540), (960, 540), (960, 540), (960, 540), (960, 540), (960, 540), (960, 540), (960, 540), (960, 540), (960, 540), (960, 540), (960, 540), (960, 540), (960, 540), (960, 540), (960, 540), (960, 540), (960, 540), (960, 540), (960, 540), (960, 540), (960, 540), (960, 540), (960, 540), (960, 540), (960, 540), (960, 540), (960, 540), (960, 540), (960, 540), (960, 540), (960, 540), (960, 540), (960, 540), (960, 540), (960, 540), (960, 540), (960, 540), (960, 540), (960, 540), (960, 540), (960, 540), (960, 540), (960, 540), (960, 540), (960, 540), (960, 540), (960, 540), (960, 540), (960, 540), (960, 540), (960, 540), (959, 540), (955, 535), (949, 529), (939, 521), (927, 513), (901, 499), (878, 490), (852, 479), (826, 467), (764, 449), (728, 436), (694, 423), (661, 407), (590, 366)]",205.18620675450433,"[9, 5, 3, 4, 1, 8, 6, 2, 7]","(0, 0.25)",CHN010D,CHN,D,English,Wed Sep 05 15:02:45 2018,Mouse
1,1,4,0,86,7,7,1,498,319,179,137,0,500,200,8000,"[(960, 540), (960, 540), (960, 540), (960, 540), (960, 540), (960, 540), (960, 540), (960, 540), (960, 540), (960, 540), (960, 540), (960, 540), (960, 540), (960, 540), (960, 540), (960, 540), (960, 540), (960, 540), (960, 540), (960, 540), (960, 540), (960, 540), (960, 540), (960, 540), (960, 540), (960, 540), (960, 540), (960, 540), (960, 540), (960, 540), (960, 540), (961, 539), (965, 536), (980, 529), (988, 524), (1000, 519), (1012, 513), (1052, 499), (1082, 492), (1106, 489), (1130, 485), (1159, 481), (1206, 477), (1234, 477), (1256, 477), (1276, 477), (1311, 474), (1330, 470), (1344, 469), (1356, 467)]",349.5551596795139,"[9, 5, 3, 4, 1, 8, 6, 2, 7]","(0, 0.25)",CHN010D,CHN,D,English,Wed Sep 05 15:02:45 2018,Mouse
1,1,4,0,87,8,8,1,1040,920,120,136,0,500,200,8000,"[(960, 540), (960, 540), (960, 540), (960, 540), (960, 540), (960, 540), (960, 540), (960, 540), (960, 540), (960, 540), (960, 540), (960, 540), (960, 540), (960, 540), (960, 540), (960, 540), (960, 540), (960, 540), (960, 540), (960, 540), (960, 540), (960, 540), (960, 540), (960, 540), (960, 540), (960, 540), (960, 540), (960, 540), (960, 540), (960, 540), (960, 540), (960, 540), (960, 540), (960, 540), (960, 540), (960, 540), (960, 540), (960, 540), (960, 540), (960, 540), (960, 540), (960, 540), (960, 540), (960, 540), (960, 540), (960, 540), (960, 540), (960, 540), (960, 540), (960, 540), (960, 540), (960, 540), (960, 540), (960, 540), (960, 540), (960, 540), (960, 540), (960, 540), (960, 540), (960, 540), (960, 540), (960, 540), (960, 540), (960, 540), (960, 540), (960, 540), (960, 540), (960, 540), (960, 540), (960, 540), (960, 540), (960, 540), (960, 540), (960, 540), (960, 540), (960, 540), (960, 540), (960, 540), (960, 540), (960, 540), (960, 540), (960, 540), (960, 540), (960, 540), (960, 540), (960, 540), (960, 540), (960, 540), (960, 540), (960, 540), (960, 540), (952, 536), (945, 530), (936, 522), (926, 515), (900, 497), (885, 485), (866, 473), (844, 461), (789, 426), (751, 407), (716, 387), (679, 362), (606, 319)]",211.976276896382,"[9, 5, 3, 4, 1, 8, 6, 2, 7]","(0, 0.25)",CHN010D,CHN,D,English,Wed Sep 05 15:02:45 2018,Mouse
1,1,4,0,88,6,9,0,-549,469,80,135,0,500,200,8000,"[(960, 540), (960, 540), (960, 540), (960, 540), (960, 540), (960, 540), (960, 540), (960, 540), (960, 540), (960, 540), (960, 540), (960, 540), (960, 540), (960, 540), (960, 540), (960, 540), (960, 540), (960, 540), (960, 540), (960, 540), (960, 540), (960, 540), (960, 540), (960, 540), (960, 540), (960, 540), (960, 540), (960, 540), (960, 540), (960, 540), (960, 540), (960, 540), (960, 540), (960, 540), (960, 540), (960, 540), (960, 540), (960, 540), (960, 540), (960, 540), (960, 540), (960, 540), (960, 540), (960, 540), (960, 540), (960, 540), (962, 539), (968, 539), (978, 541), (994, 548), (1046, 569), (1085, 580), (1138, 596), (1201, 613), (1348, 654)]",16.3735493270503,"[9, 5, 3, 4, 1, 8, 6, 2, 7]","(0, 0.25)",CHN010D,CHN,D,English,Wed Sep 05 15:02:45 2018,Mouse
1,1,4,0,89,7,6,0,-810,170,640,136,0,500,200,8000,"[(960, 540), (960, 540), (960, 540), (960, 540), (960, 540), (960, 540), (960, 540), (960, 540), (960, 540), (960, 540), (960, 540), (960, 540), (960, 540), (960, 540), (960, 540), (960, 540), (959, 543), (957, 545), (955, 545), (953, 546), (951, 547), (951, 547), (951, 547), (951, 547), (951, 547), (951, 547), (951, 547), (951, 547), (951, 547), (951, 547), (951, 547), (951, 547), (950, 547), (950, 547), (950, 547), (950, 547), (950, 546), (950, 545), (950, 544), (950, 543), (950, 538), (951, 535), (951, 533), (951, 529), (951, 522), (951, 518), (951, 513), (951, 509), (951, 506), (951, 504), (951, 502), (951, 500), (949, 495), (948, 494), (947, 492), (946, 487), (943, 480), (942, 477), (940, 473), (939, 470), (936, 462), (936, 457), (935, 452), (933, 446), (927, 431), (927, 423), (926, 416), (925, 405), (922, 383), (921, 372), (920, 361), (919, 350), (914, 322), (913, 310), (910, 295), (910, 269), (908, 221), (906, 206), (906, 189), (906, 169), (903, 140)]",261.8899521705809,"[9, 5, 3, 4, 1, 8, 6, 2, 7]","(0, 0.25)",CHN010D,CHN,D,English,Wed Sep 05 15:02:45 2018,Mouse
1,1,4,0,90,9,9,1,300,120,180,137,0,500,200,8000,"[(960, 540), (960, 540), (960, 540), (960, 540), (960, 540), (960, 540), (960, 540), (960, 540), (960, 540), (960, 540), (960, 540), (959, 539), (959, 539), (959, 539), (959, 539), (959, 539), (959, 539), (959, 539), (961, 539), (963, 539), (969, 540), (977, 541), (1001, 547), (1021, 553), (1051, 562), (1087, 571), (1182, 598), (1231, 612), (1292, 631), (1353, 648)]",15.36608521282338,"[9, 5, 3, 4, 1, 8, 6, 2, 7]","(0, 0.25)",CHN010D,CHN,D,English,Wed Sep 05 15:02:45 2018,Mouse
1,1,4,0,91,7,7,1,561,361,200,137,0,500,200,8000,"[(960, 540), (960, 540), (960, 540), (960, 540), (960, 540), (960, 540), (960, 540), (960, 540), (960, 540), (960, 540), (960, 540), (960, 540), (960, 540), (960, 540), (960, 540), (960, 540), (960, 540), (960, 540), (960, 540), (960, 540), (960, 540), (960, 540), (960, 540), (960, 540), (960, 540), (960, 540), (960, 540), (960, 540), (960, 540), (960, 540), (960, 540), (960, 540), (960, 540), (960, 540), (960, 540), (960, 540), (961, 541), (962, 541), (966, 543), (969, 543), (981, 543), (991, 539), (1000, 535), (1013, 530), (1035, 524), (1047, 519), (1058, 513), (1069, 508), (1100, 493), (1122, 478), (1144, 466), (1162, 458), (1204, 438), (1233, 426), (1270, 409), (1307, 397), (1394, 364)]",337.9259718912966,"[9, 5, 3, 4, 1, 8, 6, 2, 7]","(0, 0.25)",CHN010D,CHN,D,English,Wed Sep 05 15:02:45 2018,Mouse
1,1,4,0,92,7,7,1,350,300,50,136,0,500,200,8000,"[(960, 540), (960, 540), (960, 540), (960, 540), (960, 540), (960, 540), (960, 540), (960, 540), (960, 540), (960, 540), (960, 540), (960, 540), (960, 540), (960, 540), (960, 540), (960, 540), (960, 540), (960, 540), (960, 540), (960, 540), (960, 540), (960, 540), (960, 540), (960, 540), (960, 540), (960, 540), (960, 540), (960, 540), (960, 540), (992, 525), (1018, 514), (1058, 497), (1117, 473), (1271, 434), (1359, 418)]",342.99823265246505,"[9, 5, 3, 4, 1, 8, 6, 2, 7]","(0, 0.25)",CHN010D,CHN,D,English,Wed Sep 05 15:02:45 2018,Mouse
