NativeLangNumber,LanuageNumber,SessionNumber,Block,TrialNum,ConditionNumber,Response,Accuracy,RT,MovementOnsetTime,TimeInMotion,SignalContrast,SignalContrastNumber,StimDisplayTime,MaskTime,MaxResponseTime,MousePositionXY,MouseAngle,WheelOrder,NoiseMuSigma,ParticipantID,LanuageTested,SessionTested,NativeLanuage,Date,ResponseDevice
1,1,1,0,1,1,1,1,876,586,290,153,0,500,200,8000,"[(960, 540), (960, 540), (960, 540), (960, 540), (960, 540), (960, 540), (960, 540), (960, 540), (960, 540), (960, 540), (960, 540), (960, 540), (960, 540), (960, 540), (960, 540), (960, 540), (960, 540), (960, 540), (960, 540), (960, 540), (960, 540), (960, 540), (960, 540), (960, 540), (960, 540), (960, 540), (960, 540), (960, 540), (960, 540), (960, 540), (960, 540), (960, 540), (960, 540), (960, 540), (960, 540), (960, 540), (960, 540), (960, 540), (960, 540), (960, 540), (960, 540), (960, 540), (960, 540), (960, 540), (960, 540), (960, 540), (960, 540), (960, 540), (960, 540), (960, 540), (960, 540), (960, 540), (960, 540), (960, 540), (960, 540), (960, 540), (960, 540), (960, 540), (955, 540), (944, 540), (939, 540), (932, 540), (922, 540), (901, 540), (890, 540), (877, 537), (863, 534), (839, 531), (823, 528), (810, 526), (793, 525), (760, 520), (748, 518), (735, 516), (726, 516), (707, 516), (697, 516), (689, 516), (681, 516), (663, 516), (653, 516), (642, 516), (631, 517), (608, 521), (597, 521), (583, 523), (575, 524), (556, 524)]",182.26795453590583,"[9, 7, 2, 5, 1, 6, 3, 8, 4]","(0, 0.25)",CHN006A,CHN,A,English,Tue Aug 21 12:35:36 2018,Mouse
1,1,1,0,2,5,5,1,1039,429,610,153,0,500,200,8000,"[(960, 540), (960, 540), (960, 540), (960, 540), (960, 540), (960, 540), (960, 540), (960, 540), (960, 540), (960, 540), (960, 540), (960, 540), (960, 540), (960, 540), (960, 540), (960, 540), (960, 540), (960, 540), (960, 540), (960, 540), (960, 540), (960, 540), (960, 540), (960, 540), (960, 540), (960, 540), (960, 540), (960, 540), (960, 540), (960, 540), (960, 540), (960, 540), (960, 540), (960, 540), (960, 540), (960, 540), (960, 540), (960, 540), (960, 540), (960, 540), (960, 540), (960, 540), (961, 540), (961, 540), (961, 540), (962, 542), (964, 547), (965, 549), (966, 551), (967, 553), (970, 556), (970, 557), (970, 558), (970, 558), (971, 559), (971, 559), (971, 559), (971, 559), (971, 559), (971, 559), (971, 559), (971, 559), (971, 559), (971, 559), (971, 559), (971, 559), (971, 559), (971, 559), (971, 560), (971, 560), (969, 560), (967, 560), (965, 560), (962, 562), (955, 564), (951, 568), (946, 572), (939, 578), (928, 587), (923, 592), (918, 597), (913, 604), (904, 614), (901, 618), (897, 622), (894, 625), (883, 633), (875, 637), (868, 643), (858, 648), (839, 659), (827, 668), (816, 676), (805, 684), (779, 699), (767, 706), (752, 714), (739, 721), (704, 742), (690, 751), (676, 760), (666, 769), (646, 786), (635, 794)]",141.991005626946,"[9, 7, 2, 5, 1, 6, 3, 8, 4]","(0, 0.25)",CHN006A,CHN,A,English,Tue Aug 21 12:35:36 2018,Mouse
1,1,1,0,3,4,4,1,1161,301,860,152,0,500,200,8000,"[(960, 540), (960, 540), (960, 540), (960, 540), (960, 540), (960, 540), (960, 540), (960, 540), (960, 540), (960, 540), (960, 540), (960, 540), (960, 540), (960, 540), (960, 540), (960, 540), (960, 540), (960, 540), (960, 540), (960, 540), (960, 540), (960, 540), (960, 540), (960, 540), (960, 540), (960, 540), (960, 540), (960, 540), (960, 540), (960, 540), (961, 540), (962, 540), (962, 540), (962, 540), (962, 540), (962, 540), (962, 540), (963, 539), (963, 539), (963, 539), (963, 539), (963, 539), (963, 539), (963, 539), (963, 539), (963, 539), (964, 539), (964, 539), (964, 539), (964, 539), (964, 539), (964, 539), (964, 539), (964, 539), (964, 539), (964, 539), (964, 538), (964, 538), (964, 538), (964, 538), (964, 538), (964, 538), (964, 538), (964, 538), (964, 538), (964, 538), (964, 538), (964, 538), (964, 536), (964, 536), (965, 535), (967, 533), (967, 533), (969, 532), (970, 530), (971, 529), (971, 528), (972, 528), (973, 526), (973, 525), (974, 525), (974, 524), (974, 523), (974, 522), (975, 520), (975, 520), (975, 516), (976, 515), (976, 513), (978, 511), (982, 508), (983, 507), (987, 505), (993, 502), (1006, 495), (1016, 491), (1028, 488), (1042, 483), (1073, 476), (1095, 471), (1120, 463), (1148, 455), (1187, 451), (1206, 447), (1221, 446), (1233, 445), (1255, 440), (1265, 439), (1276, 438), (1283, 436), (1296, 431), (1304, 428), (1310, 424), (1317, 421), (1328, 415), (1334, 411), (1340, 409)]",340.97904082207344,"[9, 7, 2, 5, 1, 6, 3, 8, 4]","(0, 0.25)",CHN006A,CHN,A,English,Tue Aug 21 12:35:36 2018,Mouse
1,1,1,0,4,4,4,1,850,220,630,151,0,500,200,8000,"[(960, 540), (960, 540), (960, 540), (960, 540), (960, 540), (960, 540), (960, 540), (960, 540), (960, 540), (960, 540), (960, 540), (960, 540), (960, 540), (960, 540), (960, 540), (960, 540), (960, 540), (960, 540), (960, 540), (960, 540), (960, 540), (961, 540), (963, 540), (966, 540), (973, 540), (975, 540), (977, 539), (980, 539), (984, 538), (984, 538), (985, 538), (985, 538), (986, 538), (986, 538), (987, 536), (988, 536), (989, 536), (989, 536), (991, 535), (991, 535), (991, 535), (992, 534), (992, 534), (992, 534), (992, 534), (992, 534), (992, 534), (992, 534), (992, 534), (992, 534), (992, 534), (992, 534), (992, 534), (992, 534), (992, 534), (992, 534), (992, 534), (992, 533), (992, 533), (992, 532), (993, 530), (995, 529), (998, 528), (1003, 525), (1013, 523), (1023, 521), (1033, 519), (1042, 516), (1065, 510), (1076, 508), (1089, 503), (1100, 501), (1129, 491), (1145, 488), (1156, 484), (1169, 478), (1198, 466), (1216, 460), (1231, 452), (1249, 445), (1274, 433), (1289, 427), (1304, 421), (1317, 415), (1339, 405)]",340.39407409122424,"[9, 7, 2, 5, 1, 6, 3, 8, 4]","(0, 0.25)",CHN006A,CHN,A,English,Tue Aug 21 12:35:36 2018,Mouse
1,1,1,0,5,4,4,1,739,399,340,150,0,500,200,8000,"[(960, 540), (960, 540), (960, 540), (960, 540), (960, 540), (960, 540), (960, 540), (960, 540), (960, 540), (960, 540), (960, 540), (960, 540), (960, 540), (960, 540), (960, 540), (960, 540), (960, 540), (960, 540), (960, 540), (960, 540), (960, 540), (960, 540), (960, 540), (960, 540), (960, 540), (960, 540), (960, 540), (960, 540), (960, 540), (960, 540), (960, 540), (960, 540), (960, 540), (960, 540), (960, 540), (960, 540), (960, 540), (960, 540), (960, 540), (961, 540), (961, 540), (961, 540), (961, 539), (961, 539), (964, 537), (964, 537), (970, 536), (976, 535), (981, 533), (988, 532), (1006, 530), (1017, 526), (1029, 525), (1042, 520), (1070, 512), (1083, 507), (1097, 501), (1112, 496), (1147, 483), (1168, 474), (1181, 468), (1201, 460), (1226, 450), (1239, 444), (1252, 435), (1262, 430), (1285, 421), (1294, 416), (1304, 413), (1310, 410), (1324, 405), (1329, 402), (1332, 401), (1337, 399)]",339.49393654690033,"[9, 7, 2, 5, 1, 6, 3, 8, 4]","(0, 0.25)",CHN006A,CHN,A,English,Tue Aug 21 12:35:36 2018,Mouse
1,1,1,0,6,7,7,1,1150,450,700,149,0,500,200,8000,"[(960, 540), (960, 540), (960, 540), (960, 540), (960, 540), (960, 540), (960, 540), (960, 540), (960, 540), (960, 540), (960, 540), (960, 540), (960, 540), (960, 540), (960, 540), (960, 540), (960, 540), (960, 540), (960, 540), (960, 540), (960, 540), (960, 540), (960, 540), (960, 540), (960, 540), (960, 540), (960, 540), (960, 540), (960, 540), (960, 540), (960, 540), (960, 540), (960, 540), (960, 540), (960, 540), (960, 540), (960, 540), (960, 540), (960, 540), (960, 540), (960, 540), (960, 540), (960, 540), (960, 540), (959, 540), (959, 544), (960, 552), (962, 570), (962, 576), (962, 587), (964, 598), (968, 620), (974, 636), (983, 654), (990, 672), (1010, 705), (1019, 719), (1026, 730), (1033, 742), (1045, 760), (1053, 769), (1059, 776), (1065, 784), (1078, 799), (1083, 804), (1088, 811), (1093, 818), (1101, 826), (1104, 830), (1108, 835), (1110, 837), (1115, 842), (1118, 845), (1122, 847), (1124, 850), (1130, 855), (1132, 857), (1135, 861), (1136, 862), (1138, 865), (1139, 867), (1139, 868), (1139, 869), (1141, 873), (1142, 876), (1144, 877), (1146, 881), (1147, 881), (1148, 882), (1148, 882), (1148, 882), (1148, 882), (1148, 882), (1148, 883), (1148, 883), (1148, 883), (1148, 884), (1148, 884), (1148, 884), (1148, 884), (1148, 884), (1148, 884), (1148, 884), (1148, 884), (1148, 884), (1148, 884), (1148, 884), (1148, 884), (1148, 884), (1148, 884), (1148, 884), (1148, 884), (1148, 884), (1155, 887), (1161, 896)]",60.550634362840896,"[9, 7, 2, 5, 1, 6, 3, 8, 4]","(0, 0.25)",CHN006A,CHN,A,English,Tue Aug 21 12:35:36 2018,Mouse
1,1,1,0,7,9,9,1,2069,310,1759,148,0,500,200,8000,"[(960, 540), (960, 540), (960, 540), (960, 540), (960, 540), (960, 540), (960, 540), (960, 540), (960, 540), (960, 540), (960, 540), (960, 540), (960, 540), (960, 540), (960, 540), (960, 540), (960, 540), (960, 540), (960, 540), (960, 540), (960, 540), (960, 540), (960, 540), (960, 540), (960, 540), (960, 540), (960, 540), (960, 540), (960, 540), (960, 540), (962, 540), (962, 540), (962, 540), (962, 540), (962, 540), (962, 540), (962, 540), (962, 540), (962, 540), (962, 540), (962, 540), (962, 540), (962, 540), (962, 540), (962, 540), (962, 540), (962, 540), (962, 540), (962, 541), (959, 543), (953, 546), (941, 554), (932, 559), (922, 564), (912, 571), (893, 588), (881, 598), (868, 609), (853, 621), (830, 644), (820, 656), (811, 667), (803, 679), (786, 699), (779, 708), (774, 714), (769, 719), (765, 728), (765, 728), (764, 730), (764, 730), (764, 730), (764, 730), (764, 730), (764, 730), (764, 731), (765, 731), (767, 731), (769, 731), (777, 726), (780, 724), (785, 719), (789, 715), (798, 702), (802, 695), (805, 689), (809, 681), (819, 665), (826, 654), (834, 644), (841, 635), (857, 617), (868, 608), (875, 603), (882, 595), (893, 580), (896, 574), (897, 571), (899, 566), (901, 558), (901, 554), (901, 551), (901, 547), (901, 543), (901, 540), (901, 537), (900, 534), (900, 531), (900, 530), (900, 529), (900, 527), (900, 525), (900, 524), (900, 524), (900, 523), (900, 522), (900, 522), (900, 520), (900, 520), (900, 518), (900, 518), (900, 517), (900, 517), (900, 516), (899, 515), (899, 515), (898, 515), (897, 515), (897, 515), (897, 515), (897, 515), (897, 514), (897, 514), (897, 514), (897, 514), (897, 514), (897, 514), (897, 514), (897, 514), (897, 514), (897, 514), (897, 514), (897, 514), (897, 514), (897, 514), (897, 514), (897, 514), (897, 514), (897, 514), (897, 514), (897, 514), (899, 514), (900, 514), (900, 514), (900, 514), (900, 514), (900, 514), (900, 514), (900, 514), (900, 514), (900, 514), (900, 514), (900, 514), (902, 514), (902, 514), (902, 514), (902, 514), (903, 514), (903, 514), (903, 514), (903, 514), (903, 514), (903, 514), (903, 514), (903, 514), (903, 514), (903, 514), (903, 514), (905, 514), (906, 515), (906, 515), (908, 516), (912, 518), (922, 523), (930, 526), (937, 529), (942, 531), (951, 534), (956, 537), (960, 540), (968, 544), (980, 552), (986, 555), (995, 560), (1005, 566), (1032, 579), (1050, 588), (1062, 593), (1079, 600), (1131, 622), (1155, 633), (1181, 644), (1204, 652), (1257, 677), (1285, 685), (1313, 693), (1340, 701)]",22.961606458247978,"[9, 7, 2, 5, 1, 6, 3, 8, 4]","(0, 0.25)",CHN006A,CHN,A,English,Tue Aug 21 12:35:36 2018,Mouse
1,1,1,0,8,8,8,1,671,361,310,147,0,500,200,8000,"[(960, 540), (960, 540), (960, 540), (960, 540), (960, 540), (960, 540), (960, 540), (960, 540), (960, 540), (960, 540), (960, 540), (960, 540), (960, 540), (960, 540), (960, 540), (960, 540), (960, 540), (960, 540), (960, 540), (960, 540), (960, 540), (960, 540), (960, 540), (960, 540), (960, 540), (960, 540), (960, 540), (960, 540), (960, 540), (960, 540), (960, 540), (960, 540), (960, 540), (960, 540), (960, 540), (960, 540), (959, 539), (959, 539), (959, 538), (959, 538), (959, 538), (959, 537), (959, 537), (959, 537), (959, 536), (957, 534), (957, 534), (957, 534), (957, 534), (957, 534), (957, 532), (957, 531), (957, 527), (957, 523), (957, 518), (957, 513), (963, 493), (969, 479), (975, 464), (984, 443), (1015, 386), (1027, 364), (1049, 333), (1063, 304), (1098, 247), (1115, 219), (1132, 194), (1149, 169)]",296.9958383940866,"[9, 7, 2, 5, 1, 6, 3, 8, 4]","(0, 0.25)",CHN006A,CHN,A,English,Tue Aug 21 12:35:36 2018,Mouse
1,1,1,0,9,6,6,1,719,469,250,146,0,500,200,8000,"[(960, 540), (960, 540), (960, 540), (960, 540), (960, 540), (960, 540), (960, 540), (960, 540), (960, 540), (960, 540), (960, 540), (960, 540), (960, 540), (960, 540), (960, 540), (960, 540), (960, 540), (960, 540), (960, 540), (960, 540), (960, 540), (960, 540), (960, 540), (960, 540), (960, 540), (960, 540), (960, 540), (960, 540), (960, 540), (960, 540), (960, 540), (960, 540), (960, 540), (960, 540), (960, 540), (960, 540), (960, 540), (960, 540), (960, 540), (960, 540), (960, 540), (960, 540), (960, 540), (960, 540), (960, 540), (960, 540), (961, 540), (960, 535), (955, 531), (947, 527), (940, 521), (922, 505), (912, 496), (901, 487), (892, 479), (872, 456), (864, 445), (850, 425), (840, 411), (820, 383), (807, 367), (791, 351), (778, 338), (750, 312), (736, 303), (726, 294), (716, 287), (701, 276), (693, 270), (687, 265), (679, 260), (664, 250)]",224.41337429248946,"[9, 7, 2, 5, 1, 6, 3, 8, 4]","(0, 0.25)",CHN006A,CHN,A,English,Tue Aug 21 12:35:36 2018,Mouse
1,1,1,0,10,1,1,1,640,30,610,145,0,500,200,8000,"[(960, 540), (960, 540), (961, 540), (961, 540), (961, 540), (961, 540), (961, 540), (961, 540), (961, 540), (961, 540), (961, 540), (961, 540), (961, 540), (961, 540), (961, 540), (961, 540), (961, 540), (961, 540), (961, 540), (961, 540), (961, 540), (961, 540), (961, 539), (961, 539), (961, 539), (961, 538), (961, 537), (962, 537), (962, 537), (963, 536), (964, 536), (964, 535), (964, 535), (964, 535), (966, 535), (967, 535), (967, 535), (969, 535), (969, 535), (969, 535), (969, 535), (969, 535), (969, 535), (969, 535), (969, 535), (969, 535), (962, 535), (956, 535), (948, 536), (940, 536), (915, 537), (902, 537), (885, 537), (866, 537), (821, 537), (793, 537), (765, 537), (729, 537), (659, 537), (634, 537), (608, 539), (591, 539), (566, 539), (555, 539)]",180.1414707730282,"[9, 7, 2, 5, 1, 6, 3, 8, 4]","(0, 0.25)",CHN006A,CHN,A,English,Tue Aug 21 12:35:36 2018,Mouse
1,1,1,0,11,6,6,1,788,98,690,144,0,500,200,8000,"[(960, 540), (960, 540), (960, 540), (960, 540), (960, 540), (960, 540), (960, 540), (960, 540), (960, 540), (960, 539), (961, 539), (961, 539), (962, 538), (962, 538), (963, 538), (963, 538), (963, 538), (963, 538), (963, 538), (965, 537), (965, 537), (965, 537), (965, 537), (965, 537), (965, 537), (965, 537), (965, 537), (965, 537), (965, 537), (965, 537), (965, 537), (965, 537), (965, 537), (966, 537), (966, 537), (966, 537), (966, 537), (966, 537), (967, 537), (967, 537), (967, 537), (967, 537), (967, 537), (967, 537), (967, 537), (967, 537), (967, 537), (967, 537), (967, 537), (965, 537), (961, 537), (955, 534), (950, 532), (938, 521), (929, 512), (918, 504), (909, 495), (885, 475), (877, 464), (870, 454), (864, 444), (849, 424), (842, 415), (835, 405), (829, 396), (814, 379), (806, 369), (797, 360), (788, 351), (770, 334), (758, 323), (747, 316), (735, 307), (713, 293), (705, 288), (696, 282), (691, 278), (676, 269), (669, 264)]",223.48459209997787,"[9, 7, 2, 5, 1, 6, 3, 8, 4]","(0, 0.25)",CHN006A,CHN,A,English,Tue Aug 21 12:35:36 2018,Mouse
1,1,1,0,12,2,2,1,940,720,220,143,0,500,200,8000,"[(960, 540), (960, 540), (960, 540), (960, 540), (960, 540), (960, 540), (960, 540), (960, 540), (960, 540), (960, 540), (960, 540), (960, 540), (960, 540), (960, 540), (960, 540), (960, 540), (960, 540), (960, 540), (960, 540), (960, 540), (960, 540), (960, 540), (960, 540), (960, 540), (960, 540), (960, 540), (960, 540), (960, 540), (960, 540), (960, 540), (960, 540), (960, 540), (960, 540), (960, 540), (960, 540), (960, 540), (960, 540), (960, 540), (960, 540), (960, 540), (960, 540), (960, 540), (960, 540), (960, 540), (960, 540), (960, 540), (960, 540), (960, 540), (960, 540), (960, 540), (960, 540), (960, 540), (960, 540), (960, 540), (960, 540), (960, 540), (960, 540), (960, 540), (960, 540), (960, 540), (960, 540), (960, 540), (960, 540), (960, 540), (960, 540), (960, 540), (960, 540), (960, 540), (960, 540), (960, 540), (960, 540), (960, 542), (960, 549), (958, 562), (957, 571), (955, 582), (952, 594), (943, 626), (937, 646), (932, 665), (925, 683), (913, 727), (905, 746), (896, 766), (890, 781), (880, 817), (876, 834), (875, 851), (874, 862), (874, 888), (874, 900), (874, 911), (874, 922), (870, 936)]",102.80426606528675,"[9, 7, 2, 5, 1, 6, 3, 8, 4]","(0, 0.25)",CHN006A,CHN,A,English,Tue Aug 21 12:35:36 2018,Mouse
1,1,1,0,13,8,8,1,630,270,360,142,0,500,200,8000,"[(960, 540), (960, 540), (960, 540), (960, 540), (960, 540), (960, 540), (960, 540), (960, 540), (960, 540), (960, 540), (960, 540), (960, 540), (960, 540), (960, 540), (960, 540), (960, 540), (960, 540), (960, 540), (960, 540), (960, 540), (960, 540), (960, 540), (960, 540), (960, 540), (960, 540), (960, 540), (961, 540), (962, 540), (964, 537), (965, 535), (969, 529), (970, 526), (973, 521), (975, 517), (980, 506), (982, 500), (985, 494), (989, 485), (997, 472), (1000, 466), (1007, 458), (1012, 449), (1030, 435), (1044, 426), (1054, 420), (1064, 413), (1088, 395), (1098, 388), (1107, 383), (1114, 375), (1126, 362), (1130, 354), (1133, 348), (1137, 338), (1144, 323), (1150, 314), (1155, 305), (1162, 294), (1178, 272), (1187, 262), (1198, 253), (1207, 244), (1221, 226)]",309.73370436355356,"[9, 7, 2, 5, 1, 6, 3, 8, 4]","(0, 0.25)",CHN006A,CHN,A,English,Tue Aug 21 12:35:36 2018,Mouse
1,1,1,0,14,1,1,1,600,430,170,141,0,500,200,8000,"[(960, 540), (960, 540), (960, 540), (960, 540), (960, 540), (960, 540), (960, 540), (960, 540), (960, 540), (960, 540), (960, 540), (960, 540), (960, 540), (960, 540), (960, 540), (960, 540), (960, 540), (960, 540), (960, 540), (960, 540), (960, 540), (960, 540), (960, 540), (960, 540), (960, 540), (960, 540), (960, 540), (960, 540), (960, 540), (960, 540), (960, 540), (960, 540), (960, 540), (960, 540), (960, 540), (960, 540), (960, 540), (960, 540), (960, 540), (960, 540), (960, 540), (960, 540), (948, 540), (941, 540), (933, 540), (922, 540), (893, 540), (875, 540), (860, 540), (841, 540), (802, 540), (785, 540), (763, 540), (738, 540), (690, 540), (665, 540), (642, 540), (620, 540), (570, 540), (553, 540)]",180.0,"[9, 7, 2, 5, 1, 6, 3, 8, 4]","(0, 0.25)",CHN006A,CHN,A,English,Tue Aug 21 12:35:36 2018,Mouse
1,1,1,0,15,3,3,1,1820,750,1070,140,0,500,200,8000,"[(960, 540), (960, 540), (960, 540), (960, 540), (960, 540), (960, 540), (960, 540), (960, 540), (960, 540), (960, 540), (960, 540), (960, 540), (960, 540), (960, 540), (960, 540), (960, 540), (960, 540), (960, 540), (960, 540), (960, 540), (960, 540), (960, 540), (960, 540), (960, 540), (960, 540), (960, 540), (960, 540), (960, 540), (960, 540), (960, 540), (960, 540), (960, 540), (960, 540), (960, 540), (960, 540), (960, 540), (960, 540), (960, 540), (960, 540), (960, 540), (960, 540), (960, 540), (960, 540), (960, 540), (960, 540), (960, 540), (960, 540), (960, 540), (960, 540), (960, 540), (960, 540), (960, 540), (960, 540), (960, 540), (960, 540), (960, 540), (960, 540), (960, 540), (960, 540), (960, 540), (960, 540), (960, 540), (960, 540), (960, 540), (960, 540), (960, 540), (960, 540), (960, 540), (960, 540), (960, 540), (960, 540), (960, 540), (960, 540), (960, 540), (960, 541), (960, 542), (960, 544), (960, 546), (960, 547), (960, 547), (960, 547), (960, 548), (960, 548), (960, 548), (960, 548), (960, 548), (960, 548), (960, 548), (960, 548), (960, 548), (960, 548), (961, 544), (963, 542), (969, 534), (975, 528), (980, 520), (985, 514), (998, 495), (1003, 486), (1009, 476), (1014, 466), (1027, 446), (1031, 437), (1035, 427), (1037, 421), (1041, 411), (1041, 407), (1041, 407), (1041, 406), (1041, 405), (1041, 405), (1041, 405), (1041, 405), (1041, 405), (1041, 404), (1041, 404), (1040, 404), (1034, 405), (1030, 405), (1025, 406), (1019, 409), (1008, 410), (1001, 411), (997, 411), (996, 411), (990, 411), (989, 411), (988, 411), (987, 411), (985, 411), (985, 411), (983, 411), (980, 411), (974, 409), (971, 409), (968, 409), (964, 407), (950, 402), (946, 399), (938, 397), (932, 394), (918, 386), (915, 385), (911, 383), (909, 382), (907, 382), (905, 381), (905, 380), (905, 380), (905, 380), (904, 380), (904, 380), (904, 380), (904, 380), (904, 380), (904, 380), (904, 380), (904, 380), (904, 380), (904, 380), (904, 380), (904, 380), (904, 380), (904, 380), (904, 380), (907, 378), (910, 376), (911, 374), (915, 369), (920, 357), (924, 347), (927, 336), (933, 324), (936, 295), (936, 276), (936, 259), (936, 240), (936, 205), (936, 190), (936, 176), (936, 163), (936, 138)]",266.5834118082287,"[9, 7, 2, 5, 1, 6, 3, 8, 4]","(0, 0.25)",CHN006A,CHN,A,English,Tue Aug 21 12:35:36 2018,Mouse
1,1,1,0,16,3,3,1,500,190,310,139,0,500,200,8000,"[(960, 540), (960, 540), (960, 540), (960, 540), (960, 540), (960, 540), (960, 540), (960, 540), (960, 540), (960, 540), (960, 540), (960, 540), (960, 540), (960, 540), (960, 540), (960, 540), (960, 540), (960, 540), (960, 539), (958, 539), (958, 539), (958, 539), (957, 539), (956, 538), (956, 538), (955, 537), (954, 529), (954, 522), (954, 517), (954, 506), (954, 479), (951, 463), (949, 440), (943, 415), (935, 375), (930, 353), (926, 334), (921, 317), (910, 280), (904, 268), (902, 254), (897, 240), (895, 215), (893, 204), (892, 193), (891, 182), (890, 161), (890, 155), (890, 148), (890, 143)]",260.0002535336813,"[9, 7, 2, 5, 1, 6, 3, 8, 4]","(0, 0.25)",CHN006A,CHN,A,English,Tue Aug 21 12:35:36 2018,Mouse
1,1,1,0,17,3,3,1,530,290,240,138,0,500,200,8000,"[(960, 540), (960, 540), (960, 540), (960, 540), (960, 540), (960, 540), (960, 540), (960, 540), (960, 540), (960, 540), (960, 540), (960, 540), (960, 540), (960, 540), (960, 540), (960, 540), (960, 540), (960, 540), (960, 540), (960, 540), (960, 540), (960, 540), (960, 540), (960, 540), (960, 540), (960, 540), (960, 540), (960, 540), (960, 539), (960, 538), (960, 535), (961, 529), (961, 523), (961, 516), (961, 504), (961, 475), (961, 447), (961, 425), (961, 402), (961, 344), (961, 319), (961, 296), (961, 277), (957, 240), (952, 225), (949, 212), (945, 200), (940, 183), (938, 174), (936, 166), (934, 158), (929, 142), (927, 135)]",265.3417458903244,"[9, 7, 2, 5, 1, 6, 3, 8, 4]","(0, 0.25)",CHN006A,CHN,A,English,Tue Aug 21 12:35:36 2018,Mouse
1,1,1,0,18,2,2,1,1648,99,1549,137,0,500,200,8000,"[(960, 540), (960, 540), (960, 540), (960, 540), (960, 540), (960, 540), (960, 540), (960, 540), (960, 540), (959, 540), (959, 540), (959, 540), (959, 540), (959, 540), (959, 540), (959, 540), (959, 540), (959, 540), (959, 540), (959, 540), (959, 540), (959, 540), (959, 540), (959, 540), (959, 540), (959, 540), (959, 540), (959, 540), (959, 540), (959, 540), (959, 540), (959, 540), (958, 540), (958, 540), (957, 540), (956, 540), (956, 540), (956, 540), (956, 540), (956, 540), (956, 540), (956, 540), (956, 540), (956, 540), (956, 540), (956, 540), (956, 540), (956, 540), (956, 540), (956, 540), (956, 540), (956, 540), (956, 540), (956, 540), (956, 540), (956, 540), (956, 540), (956, 540), (956, 540), (956, 540), (956, 540), (956, 540), (956, 540), (956, 540), (956, 540), (956, 540), (956, 540), (956, 540), (956, 540), (956, 540), (956, 540), (956, 540), (956, 540), (955, 537), (955, 535), (955, 533), (957, 530), (958, 526), (959, 524), (959, 523), (959, 522), (961, 521), (961, 521), (961, 521), (961, 521), (961, 521), (961, 521), (961, 521), (961, 521), (961, 519), (961, 519), (961, 519), (961, 519), (961, 519), (961, 519), (961, 519), (961, 519), (961, 519), (961, 519), (961, 519), (961, 519), (960, 523), (958, 528), (954, 532), (949, 540), (941, 554), (935, 562), (931, 571), (926, 580), (915, 599), (910, 609), (904, 619), (900, 629), (895, 647), (894, 657), (893, 664), (891, 674), (889, 690), (888, 700), (886, 710), (886, 719), (886, 738), (886, 748), (886, 758), (886, 768), (886, 789), (886, 797), (888, 808), (890, 819), (893, 841), (894, 852), (896, 862), (897, 872), (899, 890), (901, 898), (901, 905), (902, 910), (903, 919), (903, 921), (903, 922), (903, 925), (903, 925), (903, 925), (903, 925), (903, 925), (903, 925), (903, 925), (903, 925), (903, 925), (903, 925), (903, 925), (903, 925), (903, 925), (903, 925), (903, 925), (903, 925), (903, 925), (904, 926), (904, 926), (904, 926), (904, 926), (904, 928), (904, 929), (904, 932), (904, 937)]",98.0290517014108,"[9, 7, 2, 5, 1, 6, 3, 8, 4]","(0, 0.25)",CHN006A,CHN,A,English,Tue Aug 21 12:35:36 2018,Mouse
1,1,1,0,19,3,3,1,621,251,370,136,0,500,200,8000,"[(960, 540), (960, 540), (960, 540), (960, 540), (960, 540), (960, 540), (960, 540), (960, 540), (960, 540), (960, 540), (960, 540), (960, 540), (960, 540), (960, 540), (960, 540), (960, 540), (960, 540), (960, 540), (960, 540), (960, 540), (960, 540), (960, 540), (960, 540), (960, 540), (960, 540), (960, 538), (960, 531), (960, 523), (963, 507), (966, 499), (966, 489), (966, 478), (966, 457), (966, 447), (966, 439), (966, 433), (964, 423), (962, 418), (961, 415), (958, 410), (957, 405), (955, 400), (954, 396), (954, 388), (954, 372), (954, 363), (954, 355), (953, 344), (950, 324), (948, 313), (947, 302), (945, 290), (942, 264), (941, 250), (941, 238), (941, 226), (941, 203), (941, 193), (937, 183), (935, 172), (927, 153), (925, 146), (921, 139)]",264.44506307986455,"[9, 7, 2, 5, 1, 6, 3, 8, 4]","(0, 0.25)",CHN006A,CHN,A,English,Tue Aug 21 12:35:36 2018,Mouse
1,1,1,0,20,1,1,1,561,411,150,135,0,500,200,8000,"[(960, 540), (960, 540), (960, 540), (960, 540), (960, 540), (960, 540), (960, 540), (960, 540), (960, 540), (960, 540), (960, 540), (960, 540), (960, 540), (960, 540), (960, 540), (960, 540), (960, 540), (960, 540), (960, 540), (960, 540), (960, 540), (960, 540), (960, 540), (960, 540), (960, 540), (960, 540), (960, 540), (960, 540), (960, 540), (960, 540), (960, 540), (960, 540), (960, 540), (960, 540), (960, 540), (960, 540), (960, 540), (960, 540), (960, 540), (960, 540), (960, 540), (958, 540), (954, 540), (946, 540), (933, 541), (896, 541), (868, 541), (843, 541), (815, 541), (751, 541), (723, 541), (692, 541), (661, 541), (608, 541), (586, 541), (569, 541), (547, 541)]",179.8612695701124,"[9, 7, 2, 5, 1, 6, 3, 8, 4]","(0, 0.25)",CHN006A,CHN,A,English,Tue Aug 21 12:35:36 2018,Mouse
1,1,1,0,21,8,7,0,-1921,741,1180,134,0,500,200,8000,"[(960, 540), (960, 540), (960, 540), (960, 540), (960, 540), (960, 540), (960, 540), (960, 540), (960, 540), (960, 540), (960, 540), (960, 540), (960, 540), (960, 540), (960, 540), (960, 540), (960, 540), (960, 540), (960, 540), (960, 540), (960, 540), (960, 540), (960, 540), (960, 540), (960, 540), (960, 540), (960, 540), (960, 540), (960, 540), (960, 540), (960, 540), (960, 540), (960, 540), (960, 540), (960, 540), (960, 540), (960, 540), (960, 540), (960, 540), (960, 540), (960, 540), (960, 540), (960, 540), (960, 540), (960, 540), (960, 540), (960, 540), (960, 540), (960, 540), (960, 540), (960, 540), (960, 540), (960, 540), (960, 540), (960, 540), (960, 540), (960, 540), (960, 540), (960, 540), (960, 540), (960, 540), (960, 540), (960, 540), (960, 540), (960, 540), (960, 540), (960, 540), (960, 540), (960, 540), (960, 540), (960, 540), (960, 540), (960, 540), (960, 540), (961, 540), (961, 540), (961, 540), (961, 540), (961, 540), (961, 540), (961, 540), (961, 540), (961, 540), (961, 540), (962, 540), (962, 540), (962, 540), (963, 540), (963, 540), (964, 540), (964, 540), (965, 540), (966, 540), (966, 540), (966, 540), (967, 540), (968, 541), (969, 541), (969, 541), (970, 541), (973, 542), (974, 543), (974, 543), (975, 544), (977, 545), (979, 545), (982, 545), (984, 547), (989, 548), (990, 549), (993, 551), (994, 551), (995, 552), (997, 553), (997, 553), (998, 554), (998, 554), (999, 555), (999, 555), (999, 555), (999, 555), (999, 555), (999, 555), (999, 555), (999, 555), (999, 555), (999, 555), (999, 555), (999, 557), (999, 557), (999, 558), (999, 561), (1002, 566), (1003, 570), (1003, 575), (1007, 582), (1013, 597), (1017, 606), (1019, 614), (1025, 624), (1034, 645), (1038, 655), (1044, 668), (1049, 678), (1060, 699), (1065, 708), (1071, 717), (1075, 723), (1082, 738), (1084, 743), (1087, 747), (1089, 750), (1091, 753), (1091, 755), (1092, 756), (1092, 757), (1093, 758), (1093, 758), (1093, 758), (1093, 758), (1093, 758), (1094, 759), (1094, 759), (1094, 759), (1095, 760), (1095, 760), (1095, 760), (1095, 760), (1095, 760), (1095, 760), (1095, 760), (1095, 760), (1095, 760), (1095, 760), (1095, 760), (1095, 760), (1095, 760), (1095, 760), (1095, 760), (1096, 762), (1096, 764), (1099, 766), (1099, 768), (1101, 772), (1108, 781), (1113, 787), (1118, 796), (1127, 806), (1146, 828), (1155, 838), (1163, 847), (1171, 856), (1188, 873)]",55.60115486365211,"[9, 7, 2, 5, 1, 6, 3, 8, 4]","(0, 0.25)",CHN006A,CHN,A,English,Tue Aug 21 12:35:36 2018,Mouse
1,1,1,0,22,5,5,1,1019,519,500,135,0,500,200,8000,"[(960, 540), (960, 540), (960, 540), (960, 540), (960, 540), (960, 540), (960, 540), (960, 540), (960, 540), (960, 540), (960, 540), (960, 540), (960, 540), (960, 540), (960, 540), (960, 540), (960, 540), (960, 540), (960, 540), (960, 540), (960, 540), (960, 540), (960, 540), (960, 540), (960, 540), (960, 540), (960, 540), (960, 540), (960, 540), (960, 540), (960, 540), (960, 540), (960, 540), (960, 540), (960, 540), (960, 540), (960, 540), (960, 540), (960, 540), (960, 540), (960, 540), (960, 540), (960, 540), (960, 540), (960, 540), (960, 540), (960, 540), (960, 540), (960, 540), (960, 540), (960, 540), (959, 542), (959, 542), (959, 544), (956, 549), (953, 552), (952, 555), (949, 559), (947, 565), (945, 566), (944, 568), (944, 569), (943, 570), (943, 571), (941, 572), (941, 573), (937, 576), (935, 576), (933, 578), (929, 580), (921, 586), (915, 591), (906, 598), (901, 603), (882, 618), (874, 624), (868, 628), (860, 633), (848, 641), (841, 646), (836, 650), (828, 655), (817, 666), (809, 672), (803, 679), (796, 686), (782, 702), (774, 712), (765, 722), (757, 730), (742, 748), (734, 753), (725, 759), (719, 764), (708, 773), (700, 778), (695, 781), (688, 787), (676, 796), (670, 801), (664, 806), (661, 810)]",137.91764699834002,"[9, 7, 2, 5, 1, 6, 3, 8, 4]","(0, 0.25)",CHN006A,CHN,A,English,Tue Aug 21 12:35:36 2018,Mouse
1,1,1,0,23,3,3,1,879,469,410,135,0,500,200,8000,"[(960, 540), (960, 540), (960, 540), (960, 540), (960, 540), (960, 540), (960, 540), (960, 540), (960, 540), (960, 540), (960, 540), (960, 540), (960, 540), (960, 540), (960, 540), (960, 540), (960, 540), (960, 540), (960, 540), (960, 540), (960, 540), (960, 540), (960, 540), (960, 540), (960, 540), (960, 540), (960, 540), (960, 540), (960, 540), (960, 540), (960, 540), (960, 540), (960, 540), (960, 540), (960, 540), (960, 540), (960, 540), (960, 540), (960, 540), (960, 540), (960, 540), (960, 540), (960, 540), (960, 540), (960, 540), (960, 540), (960, 539), (960, 537), (960, 537), (960, 537), (961, 535), (963, 534), (963, 533), (963, 533), (964, 530), (965, 529), (965, 529), (966, 527), (966, 527), (967, 527), (967, 526), (967, 526), (967, 526), (967, 524), (967, 523), (967, 522), (967, 520), (967, 515), (967, 509), (967, 501), (967, 491), (967, 466), (967, 451), (967, 434), (967, 417), (967, 384), (967, 364), (967, 341), (967, 319), (967, 271), (967, 251), (964, 227), (961, 203), (961, 175), (961, 164), (961, 155), (960, 146), (952, 125)]",268.8956398279346,"[9, 7, 2, 5, 1, 6, 3, 8, 4]","(0, 0.25)",CHN006A,CHN,A,English,Tue Aug 21 12:35:36 2018,Mouse
1,1,1,0,24,2,2,1,1601,30,1571,134,0,500,200,8000,"[(961, 540), (961, 540), (962, 540), (963, 540), (963, 540), (963, 540), (963, 540), (963, 540), (963, 540), (963, 540), (963, 540), (963, 540), (963, 540), (963, 540), (963, 540), (963, 540), (963, 540), (963, 540), (963, 540), (963, 540), (963, 540), (963, 540), (963, 540), (963, 540), (963, 540), (963, 540), (963, 540), (963, 540), (963, 540), (963, 540), (963, 540), (963, 540), (963, 540), (963, 540), (963, 540), (963, 540), (963, 540), (963, 540), (963, 540), (963, 540), (963, 540), (963, 539), (963, 538), (963, 538), (963, 538), (963, 538), (962, 538), (961, 537), (961, 537), (959, 537), (955, 537), (949, 537), (943, 537), (936, 537), (917, 537), (910, 537), (901, 537), (891, 535), (877, 533), (871, 533), (865, 532), (858, 532), (845, 530), (836, 529), (831, 529), (820, 528), (803, 528), (794, 528), (783, 526), (772, 526), (755, 526), (751, 526), (747, 526), (744, 526), (742, 526), (742, 526), (742, 526), (742, 526), (742, 526), (742, 526), (742, 526), (741, 525), (741, 525), (741, 524), (741, 524), (741, 524), (741, 523), (741, 523), (741, 523), (741, 523), (741, 520), (742, 519), (743, 519), (743, 518), (745, 517), (745, 516), (746, 516), (746, 515), (747, 515), (747, 515), (747, 515), (747, 515), (747, 515), (747, 515), (747, 515), (747, 515), (747, 515), (747, 515), (747, 515), (747, 515), (747, 515), (747, 515), (747, 515), (748, 514), (748, 514), (748, 514), (748, 517), (748, 520), (748, 526), (748, 529), (748, 532), (750, 535), (751, 540), (751, 541), (754, 546), (756, 550), (759, 557), (761, 561), (765, 568), (768, 574), (776, 588), (781, 600), (785, 608), (788, 617), (796, 637), (798, 648), (801, 658), (802, 666), (808, 687), (808, 697), (809, 706), (811, 716), (814, 736), (814, 745), (815, 755), (817, 765), (817, 782), (817, 793), (820, 804), (821, 815), (824, 840), (826, 853), (830, 865), (832, 874), (837, 893), (839, 899), (840, 905), (841, 911), (841, 920), (842, 923)]",107.12375108497314,"[9, 7, 2, 5, 1, 6, 3, 8, 4]","(0, 0.25)",CHN006A,CHN,A,English,Tue Aug 21 12:35:36 2018,Mouse
1,1,1,0,25,2,2,1,571,361,210,133,0,500,200,8000,"[(960, 540), (960, 540), (960, 540), (960, 540), (960, 540), (960, 540), (960, 540), (960, 540), (960, 540), (960, 540), (960, 540), (960, 540), (960, 540), (960, 540), (960, 540), (960, 540), (960, 540), (960, 540), (960, 540), (960, 540), (960, 540), (960, 540), (960, 540), (960, 540), (960, 540), (960, 540), (960, 540), (960, 540), (960, 540), (960, 540), (960, 540), (960, 540), (960, 540), (960, 540), (960, 540), (960, 540), (957, 540), (955, 543), (952, 555), (948, 566), (946, 577), (941, 593), (928, 628), (917, 656), (905, 688), (893, 716), (868, 775), (859, 795), (850, 819), (842, 839), (834, 870), (831, 879), (831, 889), (828, 897), (828, 909), (828, 913), (828, 917), (828, 919)]",109.20245866586545,"[9, 7, 2, 5, 1, 6, 3, 8, 4]","(0, 0.25)",CHN006A,CHN,A,English,Tue Aug 21 12:35:36 2018,Mouse
1,1,1,0,26,1,3,0,-971,591,380,132,0,500,200,8000,"[(960, 540), (960, 540), (960, 540), (960, 540), (960, 540), (960, 540), (960, 540), (960, 540), (960, 540), (960, 540), (960, 540), (960, 540), (960, 540), (960, 540), (960, 540), (960, 540), (960, 540), (960, 540), (960, 540), (960, 540), (960, 540), (960, 540), (960, 540), (960, 540), (960, 540), (960, 540), (960, 540), (960, 540), (960, 540), (960, 540), (960, 540), (960, 540), (960, 540), (960, 540), (960, 540), (960, 540), (960, 540), (960, 540), (960, 540), (960, 540), (960, 540), (960, 540), (960, 540), (960, 540), (960, 540), (960, 540), (960, 540), (960, 540), (960, 540), (960, 540), (960, 540), (960, 540), (960, 540), (960, 540), (960, 540), (960, 540), (960, 540), (960, 540), (960, 540), (961, 538), (968, 529), (974, 519), (982, 509), (990, 498), (1018, 459), (1035, 432), (1051, 405), (1066, 377), (1090, 327), (1099, 309), (1107, 291), (1112, 282), (1113, 274), (1115, 272), (1115, 271), (1115, 271), (1115, 270), (1115, 270), (1115, 270), (1111, 270), (1101, 272), (1094, 274), (1084, 277), (1076, 278), (1055, 280), (1048, 280), (1040, 280), (1035, 280), (1021, 275), (1016, 270), (1014, 266), (1009, 256), (1001, 234), (996, 220), (988, 202), (979, 185), (955, 153), (940, 133)]",267.18674555308064,"[9, 7, 2, 5, 1, 6, 3, 8, 4]","(0, 0.25)",CHN006A,CHN,A,English,Tue Aug 21 12:35:36 2018,Mouse
1,1,1,0,27,1,1,1,730,210,520,133,0,500,200,8000,"[(960, 540), (960, 540), (960, 540), (960, 540), (960, 540), (960, 540), (960, 540), (960, 540), (960, 540), (960, 540), (960, 540), (960, 540), (960, 540), (960, 540), (960, 540), (960, 540), (960, 540), (960, 540), (960, 540), (960, 540), (961, 540), (961, 538), (961, 538), (961, 538), (961, 537), (962, 537), (962, 537), (962, 535), (962, 535), (962, 535), (962, 535), (962, 535), (962, 535), (962, 535), (962, 535), (962, 535), (962, 535), (962, 535), (962, 534), (960, 533), (956, 533), (946, 533), (939, 531), (934, 530), (930, 529), (925, 529), (925, 529), (924, 528), (924, 528), (924, 528), (924, 528), (924, 528), (924, 528), (922, 527), (919, 527), (916, 527), (912, 527), (903, 527), (897, 527), (889, 527), (878, 526), (855, 526), (840, 526), (824, 526), (793, 526), (737, 526), (704, 526), (673, 526), (642, 526), (600, 526), (584, 526), (570, 526), (560, 526)]",182.00453403210588,"[9, 7, 2, 5, 1, 6, 3, 8, 4]","(0, 0.25)",CHN006A,CHN,A,English,Tue Aug 21 12:35:36 2018,Mouse
1,1,1,0,28,6,5,0,-1661,1241,420,133,0,500,200,8000,"[(960, 540), (960, 540), (960, 540), (960, 540), (960, 540), (960, 540), (960, 540), (960, 540), (960, 540), (960, 540), (960, 540), (960, 540), (960, 540), (960, 540), (960, 540), (960, 540), (960, 540), (960, 540), (960, 540), (960, 540), (960, 540), (960, 540), (960, 540), (960, 540), (960, 540), (960, 540), (960, 540), (960, 540), (960, 540), (960, 540), (960, 540), (960, 540), (960, 540), (960, 540), (960, 540), (960, 540), (960, 540), (960, 540), (960, 540), (960, 540), (960, 540), (960, 540), (960, 540), (960, 540), (960, 540), (960, 540), (960, 540), (960, 540), (960, 540), (960, 540), (960, 540), (960, 540), (960, 540), (960, 540), (960, 540), (960, 540), (960, 540), (960, 540), (960, 540), (960, 540), (960, 540), (960, 540), (960, 540), (960, 540), (960, 540), (960, 540), (960, 540), (960, 540), (960, 540), (960, 540), (960, 540), (960, 540), (960, 540), (960, 540), (960, 540), (960, 540), (960, 540), (960, 540), (960, 540), (960, 540), (960, 540), (960, 540), (960, 540), (960, 540), (960, 540), (960, 540), (960, 540), (960, 540), (960, 540), (960, 540), (960, 540), (960, 540), (960, 540), (960, 540), (960, 540), (960, 540), (960, 540), (960, 540), (960, 540), (960, 540), (960, 540), (960, 540), (960, 540), (960, 540), (960, 540), (960, 540), (960, 540), (960, 540), (960, 540), (960, 540), (960, 540), (960, 540), (960, 540), (960, 540), (960, 540), (960, 540), (960, 540), (960, 540), (960, 540), (960, 540), (960, 540), (960, 540), (960, 540), (960, 540), (959, 540), (950, 545), (941, 550), (928, 557), (901, 573), (884, 586), (874, 592), (860, 602), (823, 627), (806, 640), (786, 656), (772, 666), (735, 693), (723, 701), (712, 709), (705, 715), (693, 726), (689, 729), (684, 732), (682, 734), (676, 739), (675, 739), (674, 739), (674, 739), (674, 739), (674, 739), (674, 739), (674, 740), (673, 740), (673, 740), (673, 740), (673, 740), (672, 740), (672, 740), (672, 740), (671, 741), (669, 742), (665, 743), (661, 746), (656, 748), (642, 753), (633, 757), (621, 763)]",146.66239693804687,"[9, 7, 2, 5, 1, 6, 3, 8, 4]","(0, 0.25)",CHN006A,CHN,A,English,Tue Aug 21 12:35:36 2018,Mouse
1,1,1,0,29,6,9,0,-969,809,160,134,0,500,200,8000,"[(960, 540), (960, 540), (960, 540), (960, 540), (960, 540), (960, 540), (960, 540), (960, 540), (960, 540), (960, 540), (960, 540), (960, 540), (960, 540), (960, 540), (960, 540), (960, 540), (960, 540), (960, 540), (960, 540), (960, 540), (960, 540), (960, 540), (960, 540), (960, 540), (960, 540), (960, 540), (960, 540), (960, 540), (960, 540), (960, 540), (960, 540), (960, 540), (960, 540), (960, 540), (960, 540), (960, 540), (960, 540), (960, 540), (960, 540), (960, 540), (960, 540), (960, 540), (960, 540), (960, 540), (960, 540), (960, 540), (960, 540), (960, 540), (960, 540), (960, 540), (960, 540), (960, 540), (960, 540), (960, 540), (960, 540), (960, 540), (960, 540), (960, 540), (960, 540), (960, 540), (960, 540), (960, 540), (960, 540), (960, 540), (960, 540), (960, 540), (960, 540), (960, 540), (960, 540), (960, 540), (960, 540), (960, 540), (960, 540), (960, 540), (960, 540), (960, 540), (960, 540), (960, 540), (960, 540), (960, 540), (960, 539), (962, 539), (964, 543), (968, 549), (981, 561), (989, 567), (1000, 575), (1016, 586), (1060, 614), (1079, 624), (1103, 637), (1127, 648), (1184, 672), (1219, 689), (1258, 698), (1291, 707), (1363, 726)]",24.77514056883192,"[9, 7, 2, 5, 1, 6, 3, 8, 4]","(0, 0.25)",CHN006A,CHN,A,English,Tue Aug 21 12:35:36 2018,Mouse
1,1,1,0,30,5,3,0,-1271,871,400,135,0,500,200,8000,"[(960, 540), (960, 540), (960, 540), (960, 540), (960, 540), (960, 540), (960, 540), (960, 540), (960, 540), (960, 540), (960, 540), (960, 540), (960, 540), (960, 540), (960, 540), (960, 540), (960, 540), (960, 540), (960, 540), (960, 540), (960, 540), (960, 540), (960, 540), (960, 540), (960, 540), (960, 540), (960, 540), (960, 540), (960, 540), (960, 540), (960, 540), (960, 540), (960, 540), (960, 540), (960, 540), (960, 540), (960, 540), (960, 540), (960, 540), (960, 540), (960, 540), (960, 540), (960, 540), (960, 540), (960, 540), (960, 540), (960, 540), (960, 540), (960, 540), (960, 540), (960, 540), (960, 540), (960, 540), (960, 540), (960, 540), (960, 540), (960, 540), (960, 540), (960, 540), (960, 540), (960, 540), (960, 540), (960, 540), (960, 540), (960, 540), (960, 540), (960, 540), (960, 540), (960, 540), (960, 540), (960, 540), (960, 540), (960, 540), (960, 540), (960, 540), (960, 540), (960, 540), (960, 540), (960, 540), (960, 540), (960, 540), (960, 540), (960, 540), (960, 540), (960, 540), (960, 540), (960, 540), (960, 538), (960, 535), (960, 530), (960, 527), (960, 518), (960, 512), (960, 508), (960, 504), (960, 498), (960, 496), (960, 493), (960, 490), (960, 487), (960, 486), (960, 484), (960, 483), (960, 480), (960, 479), (960, 476), (960, 474), (958, 467), (957, 463), (955, 455), (953, 448), (947, 428), (945, 419), (940, 409), (936, 399), (929, 376), (924, 364), (919, 346), (915, 327), (908, 284), (905, 263), (905, 243), (904, 220), (901, 187), (901, 173), (901, 163), (901, 153), (901, 133)]",261.7516809370228,"[9, 7, 2, 5, 1, 6, 3, 8, 4]","(0, 0.25)",CHN006A,CHN,A,English,Tue Aug 21 12:35:36 2018,Mouse
1,1,1,0,31,5,5,1,1120,830,290,136,0,500,200,8000,"[(960, 540), (960, 540), (960, 540), (960, 540), (960, 540), (960, 540), (960, 540), (960, 540), (960, 540), (960, 540), (960, 540), (960, 540), (960, 540), (960, 540), (960, 540), (960, 540), (960, 540), (960, 540), (960, 540), (960, 540), (960, 540), (960, 540), (960, 540), (960, 540), (960, 540), (960, 540), (960, 540), (960, 540), (960, 540), (960, 540), (960, 540), (960, 540), (960, 540), (960, 540), (960, 540), (960, 540), (960, 540), (960, 540), (960, 540), (960, 540), (960, 540), (960, 540), (960, 540), (960, 540), (960, 540), (960, 540), (960, 540), (960, 540), (960, 540), (960, 540), (960, 540), (960, 540), (960, 540), (960, 540), (960, 540), (960, 540), (960, 540), (960, 540), (960, 540), (960, 540), (960, 540), (960, 540), (960, 540), (960, 540), (960, 540), (960, 540), (960, 540), (960, 540), (960, 540), (960, 540), (960, 540), (960, 540), (960, 540), (960, 540), (960, 540), (960, 540), (960, 540), (960, 540), (960, 540), (960, 540), (960, 540), (960, 540), (959, 544), (957, 546), (953, 550), (948, 556), (939, 567), (934, 574), (930, 580), (923, 588), (912, 603), (908, 609), (904, 615), (900, 621), (890, 637), (886, 643), (884, 649), (880, 654), (875, 663), (870, 668), (866, 671), (861, 676), (847, 688), (839, 695), (831, 703), (819, 712), (789, 735), (771, 745), (748, 759), (720, 771), (659, 797), (626, 806)]",141.46593209893956,"[9, 7, 2, 5, 1, 6, 3, 8, 4]","(0, 0.25)",CHN006A,CHN,A,English,Tue Aug 21 12:35:36 2018,Mouse
1,1,1,0,32,3,3,1,911,391,520,136,0,500,200,8000,"[(960, 540), (960, 540), (960, 540), (960, 540), (960, 540), (960, 540), (960, 540), (960, 540), (960, 540), (960, 540), (960, 540), (960, 540), (960, 540), (960, 540), (960, 540), (960, 540), (960, 540), (960, 540), (960, 540), (960, 540), (960, 540), (960, 540), (960, 540), (960, 540), (960, 540), (960, 540), (960, 540), (960, 540), (960, 540), (960, 540), (960, 540), (960, 540), (960, 540), (960, 540), (960, 540), (960, 540), (960, 540), (960, 540), (960, 540), (960, 539), (961, 538), (962, 538), (962, 537), (962, 537), (963, 537), (964, 536), (964, 536), (964, 536), (964, 536), (964, 536), (964, 536), (964, 536), (964, 536), (964, 536), (964, 536), (964, 536), (964, 536), (964, 536), (964, 536), (964, 535), (964, 535), (964, 534), (964, 532), (964, 531), (964, 530), (964, 528), (963, 525), (962, 523), (962, 521), (961, 519), (959, 513), (959, 512), (957, 508), (956, 503), (955, 492), (952, 485), (952, 476), (950, 467), (946, 443), (945, 431), (944, 416), (944, 399), (940, 361), (940, 339), (940, 319), (940, 296), (940, 249), (940, 226), (940, 207), (938, 186), (931, 144), (926, 124)]",265.32755724461055,"[9, 7, 2, 5, 1, 6, 3, 8, 4]","(0, 0.25)",CHN006A,CHN,A,English,Tue Aug 21 12:35:36 2018,Mouse
1,1,1,0,33,2,2,1,1459,779,680,135,0,500,200,8000,"[(960, 540), (960, 540), (960, 540), (960, 540), (960, 540), (960, 540), (960, 540), (960, 540), (960, 540), (960, 540), (960, 540), (960, 540), (960, 540), (960, 540), (960, 540), (960, 540), (960, 540), (960, 540), (960, 540), (960, 540), (960, 540), (960, 540), (960, 540), (960, 540), (960, 540), (960, 540), (960, 540), (960, 540), (960, 540), (960, 540), (960, 540), (960, 540), (960, 540), (960, 540), (960, 540), (960, 540), (960, 540), (960, 540), (960, 540), (960, 540), (960, 540), (960, 540), (960, 540), (960, 540), (960, 540), (960, 540), (960, 540), (960, 540), (960, 540), (960, 540), (960, 540), (960, 540), (960, 540), (960, 540), (960, 540), (960, 540), (960, 540), (960, 540), (960, 540), (960, 540), (960, 540), (960, 540), (960, 540), (960, 540), (960, 540), (960, 540), (960, 540), (960, 540), (960, 540), (960, 540), (960, 540), (960, 540), (960, 540), (960, 540), (960, 540), (960, 540), (960, 540), (959, 540), (959, 540), (959, 541), (959, 542), (959, 546), (959, 547), (959, 550), (959, 551), (959, 557), (959, 561), (959, 563), (959, 566), (959, 572), (959, 574), (959, 577), (958, 580), (957, 582), (956, 584), (956, 585), (956, 585), (954, 586), (954, 586), (953, 586), (953, 586), (953, 586), (953, 586), (953, 586), (954, 584), (955, 584), (955, 584), (955, 584), (955, 584), (955, 584), (955, 584), (955, 584), (955, 584), (955, 584), (955, 584), (955, 584), (955, 584), (955, 584), (955, 585), (955, 591), (955, 600), (955, 626), (955, 643), (955, 662), (955, 676), (955, 708), (951, 724), (948, 745), (946, 764), (942, 791), (939, 805), (935, 819), (932, 830), (928, 850), (926, 859), (923, 866), (922, 872), (920, 885), (917, 892), (916, 898), (915, 902), (913, 915), (912, 922), (912, 928), (912, 933), (910, 942)]",97.08993014415522,"[9, 7, 2, 5, 1, 6, 3, 8, 4]","(0, 0.25)",CHN006A,CHN,A,English,Tue Aug 21 12:35:36 2018,Mouse
1,1,1,0,34,6,9,0,-789,289,500,134,0,500,200,8000,"[(960, 540), (960, 540), (960, 540), (960, 540), (960, 540), (960, 540), (960, 540), (960, 540), (960, 540), (960, 540), (960, 540), (960, 540), (960, 540), (960, 540), (960, 540), (960, 540), (960, 540), (960, 540), (960, 540), (960, 540), (960, 540), (960, 540), (960, 540), (960, 540), (960, 540), (960, 540), (960, 540), (960, 540), (960, 539), (960, 538), (960, 537), (960, 536), (960, 535), (960, 535), (960, 534), (960, 534), (960, 534), (960, 534), (960, 534), (960, 534), (960, 534), (960, 534), (960, 534), (960, 534), (960, 534), (960, 534), (960, 534), (960, 534), (960, 534), (960, 534), (960, 534), (960, 534), (960, 534), (960, 534), (960, 534), (961, 535), (961, 535), (964, 539), (968, 545), (971, 548), (977, 553), (982, 556), (1000, 566), (1008, 570), (1021, 573), (1036, 580), (1077, 596), (1095, 605), (1116, 615), (1137, 624), (1180, 649), (1204, 662), (1218, 669), (1239, 680), (1275, 695), (1287, 701), (1303, 704), (1316, 707), (1342, 710)]",23.990315965840033,"[9, 7, 2, 5, 1, 6, 3, 8, 4]","(0, 0.25)",CHN006A,CHN,A,English,Tue Aug 21 12:35:36 2018,Mouse
1,1,1,0,35,7,2,0,-1710,470,1240,135,0,500,200,8000,"[(960, 540), (960, 540), (960, 540), (960, 540), (960, 540), (960, 540), (960, 540), (960, 540), (960, 540), (960, 540), (960, 540), (960, 540), (960, 540), (960, 540), (960, 540), (960, 540), (960, 540), (960, 540), (960, 540), (960, 540), (960, 540), (960, 540), (960, 540), (960, 540), (960, 540), (960, 540), (960, 540), (960, 540), (960, 540), (960, 540), (960, 540), (960, 540), (960, 540), (960, 540), (960, 540), (960, 540), (960, 540), (960, 540), (960, 540), (960, 540), (960, 540), (960, 540), (960, 540), (960, 540), (960, 540), (960, 540), (960, 539), (959, 538), (958, 536), (957, 533), (954, 530), (954, 528), (953, 527), (952, 526), (952, 526), (952, 526), (952, 526), (952, 526), (951, 526), (949, 525), (949, 524), (947, 524), (940, 524), (934, 524), (929, 524), (924, 524), (909, 524), (902, 524), (892, 524), (884, 524), (868, 524), (861, 524), (851, 524), (842, 524), (826, 524), (820, 524), (811, 523), (807, 522), (797, 521), (792, 519), (791, 519), (790, 518), (789, 517), (789, 517), (788, 516), (788, 515), (788, 510), (788, 508), (788, 505), (789, 504), (793, 498), (793, 497), (793, 495), (794, 492), (799, 485), (802, 483), (803, 481), (807, 477), (816, 467), (821, 463), (826, 458), (831, 453), (838, 447), (839, 445), (843, 441), (844, 440), (847, 432), (849, 430), (849, 426), (851, 424), (853, 417), (853, 414), (855, 409), (855, 407), (857, 402), (857, 399), (857, 397), (857, 395), (857, 392), (857, 390), (857, 389), (857, 389), (857, 389), (857, 389), (857, 389), (857, 389), (857, 389), (857, 389), (857, 391), (857, 398), (857, 427), (857, 443), (857, 463), (853, 485), (843, 534), (835, 559), (827, 584), (821, 604), (813, 647), (810, 668), (807, 689), (806, 710), (802, 745), (802, 762), (800, 776), (799, 788), (799, 810), (799, 817), (799, 826), (799, 832), (804, 846), (807, 852), (808, 857), (809, 859), (812, 863), (816, 866), (817, 869), (819, 871), (823, 876), (825, 879), (827, 882), (830, 885), (838, 892), (841, 897), (843, 899), (846, 902), (850, 907), (851, 911), (853, 916), (854, 919), (858, 928)]",104.72902445070991,"[9, 7, 2, 5, 1, 6, 3, 8, 4]","(0, 0.25)",CHN006A,CHN,A,English,Tue Aug 21 12:35:36 2018,Mouse
1,1,1,0,36,1,1,1,550,190,360,136,0,500,200,8000,"[(960, 540), (960, 540), (960, 540), (960, 540), (960, 540), (960, 540), (960, 540), (960, 540), (960, 540), (960, 540), (960, 540), (960, 540), (960, 540), (960, 540), (960, 540), (960, 540), (960, 540), (960, 540), (960, 538), (959, 534), (955, 529), (951, 522), (939, 506), (932, 497), (921, 485), (910, 472), (886, 454), (875, 450), (862, 443), (851, 438), (826, 430), (815, 428), (805, 428), (795, 427), (779, 427), (771, 427), (761, 429), (751, 433), (731, 440), (720, 446), (708, 452), (700, 456), (681, 466), (672, 469), (666, 473), (660, 476), (645, 481), (638, 484), (629, 485), (619, 488), (600, 489), (590, 489), (579, 489), (568, 489), (545, 489)]",187.00603981964596,"[9, 7, 2, 5, 1, 6, 3, 8, 4]","(0, 0.25)",CHN006A,CHN,A,English,Tue Aug 21 12:35:36 2018,Mouse
1,1,1,0,37,6,6,1,969,629,340,136,0,500,200,8000,"[(960, 540), (960, 540), (960, 540), (960, 540), (960, 540), (960, 540), (960, 540), (960, 540), (960, 540), (960, 540), (960, 540), (960, 540), (960, 540), (960, 540), (960, 540), (960, 540), (960, 540), (960, 540), (960, 540), (960, 540), (960, 540), (960, 540), (960, 540), (960, 540), (960, 540), (960, 540), (960, 540), (960, 540), (960, 540), (960, 540), (960, 540), (960, 540), (960, 540), (960, 540), (960, 540), (960, 540), (960, 540), (960, 540), (960, 540), (960, 540), (960, 540), (960, 540), (960, 540), (960, 540), (960, 540), (960, 540), (960, 540), (960, 540), (960, 540), (960, 540), (960, 540), (960, 540), (960, 540), (960, 540), (960, 540), (960, 540), (960, 540), (960, 540), (960, 540), (960, 540), (960, 540), (960, 540), (959, 540), (958, 540), (956, 539), (956, 538), (955, 535), (955, 534), (954, 532), (954, 530), (953, 530), (952, 527), (952, 526), (950, 524), (948, 521), (947, 519), (945, 516), (943, 511), (936, 496), (930, 486), (923, 477), (917, 466), (897, 440), (883, 425), (866, 404), (848, 390), (811, 363), (799, 355), (786, 345), (770, 337), (750, 325), (738, 319), (727, 312), (713, 304), (681, 287), (663, 276), (649, 269)]",221.06832851997777,"[9, 7, 2, 5, 1, 6, 3, 8, 4]","(0, 0.25)",CHN006A,CHN,A,English,Tue Aug 21 12:35:36 2018,Mouse
1,1,1,0,38,2,2,1,1011,271,740,135,0,500,200,8000,"[(960, 540), (960, 540), (960, 540), (960, 540), (960, 540), (960, 540), (960, 540), (960, 540), (960, 540), (960, 540), (960, 540), (960, 540), (960, 540), (960, 540), (960, 540), (960, 540), (960, 540), (960, 540), (960, 540), (960, 540), (960, 540), (960, 540), (960, 540), (960, 540), (960, 540), (960, 540), (960, 540), (961, 540), (962, 540), (962, 540), (962, 540), (962, 540), (962, 540), (962, 540), (962, 540), (962, 540), (962, 540), (962, 540), (962, 540), (962, 540), (962, 540), (962, 540), (962, 540), (962, 540), (962, 540), (962, 540), (962, 540), (962, 540), (963, 540), (963, 541), (960, 543), (956, 545), (950, 547), (939, 552), (935, 554), (931, 556), (928, 558), (923, 562), (923, 563), (921, 564), (919, 566), (918, 569), (917, 571), (915, 572), (915, 573), (913, 578), (913, 580), (912, 583), (911, 585), (910, 589), (909, 592), (909, 595), (909, 598), (908, 604), (908, 607), (908, 611), (908, 615), (908, 625), (908, 629), (908, 638), (908, 645), (908, 664), (908, 673), (908, 683), (908, 692), (908, 715), (908, 725), (908, 737), (908, 751), (908, 775), (910, 788), (910, 802), (912, 816), (916, 842), (918, 855), (918, 867), (918, 879), (918, 905), (918, 914), (918, 925), (918, 936), (918, 958)]",95.73773467005643,"[9, 7, 2, 5, 1, 6, 3, 8, 4]","(0, 0.25)",CHN006A,CHN,A,English,Tue Aug 21 12:35:36 2018,Mouse
1,1,1,0,39,9,3,0,-1100,910,190,134,0,500,200,8000,"[(960, 540), (960, 540), (960, 540), (960, 540), (960, 540), (960, 540), (960, 540), (960, 540), (960, 540), (960, 540), (960, 540), (960, 540), (960, 540), (960, 540), (960, 540), (960, 540), (960, 540), (960, 540), (960, 540), (960, 540), (960, 540), (960, 540), (960, 540), (960, 540), (960, 540), (960, 540), (960, 540), (960, 540), (960, 540), (960, 540), (960, 540), (960, 540), (960, 540), (960, 540), (960, 540), (960, 540), (960, 540), (960, 540), (960, 540), (960, 540), (960, 540), (960, 540), (960, 540), (960, 540), (960, 540), (960, 540), (960, 540), (960, 540), (960, 540), (960, 540), (960, 540), (960, 540), (960, 540), (960, 540), (960, 540), (960, 540), (960, 540), (960, 540), (960, 540), (960, 540), (960, 540), (960, 540), (960, 540), (960, 540), (960, 540), (960, 540), (960, 540), (960, 540), (960, 540), (960, 540), (960, 540), (960, 540), (960, 540), (960, 540), (960, 540), (960, 540), (960, 540), (960, 540), (960, 540), (960, 540), (960, 540), (960, 540), (960, 540), (960, 540), (960, 540), (960, 540), (960, 540), (960, 540), (960, 540), (960, 540), (960, 535), (960, 534), (960, 531), (958, 526), (953, 514), (948, 503), (944, 494), (941, 482), (930, 451), (922, 426), (918, 401), (913, 377), (907, 324), (902, 292), (899, 263), (894, 236), (886, 185), (885, 168), (884, 154), (884, 141)]",259.2157021324374,"[9, 7, 2, 5, 1, 6, 3, 8, 4]","(0, 0.25)",CHN006A,CHN,A,English,Tue Aug 21 12:35:36 2018,Mouse
1,1,1,0,40,9,2,0,-951,821,130,135,0,500,200,8000,"[(960, 540), (960, 540), (960, 540), (960, 540), (960, 540), (960, 540), (960, 540), (960, 540), (960, 540), (960, 540), (960, 540), (960, 540), (960, 540), (960, 540), (960, 540), (960, 540), (960, 540), (960, 540), (960, 540), (960, 540), (960, 540), (960, 540), (960, 540), (960, 540), (960, 540), (960, 540), (960, 540), (960, 540), (960, 540), (960, 540), (960, 540), (960, 540), (960, 540), (960, 540), (960, 540), (960, 540), (960, 540), (960, 540), (960, 540), (960, 540), (960, 540), (960, 540), (960, 540), (960, 540), (960, 540), (960, 540), (960, 540), (960, 540), (960, 540), (960, 540), (960, 540), (960, 540), (960, 540), (960, 540), (960, 540), (960, 540), (960, 540), (960, 540), (960, 540), (960, 540), (960, 540), (960, 540), (960, 540), (960, 540), (960, 540), (960, 540), (960, 540), (960, 540), (960, 540), (960, 540), (960, 540), (960, 540), (960, 540), (960, 540), (960, 540), (960, 540), (960, 540), (960, 540), (960, 540), (960, 540), (960, 540), (960, 543), (959, 551), (948, 580), (945, 598), (941, 620), (937, 649), (923, 722), (920, 759), (915, 792), (911, 821), (903, 882), (898, 909), (895, 932), (893, 951)]",99.25874548254586,"[9, 7, 2, 5, 1, 6, 3, 8, 4]","(0, 0.25)",CHN006A,CHN,A,English,Tue Aug 21 12:35:36 2018,Mouse
1,1,1,0,41,5,5,1,1140,120,1020,136,0,500,200,8000,"[(960, 540), (960, 540), (960, 540), (960, 540), (960, 540), (960, 540), (960, 540), (960, 540), (960, 540), (960, 540), (960, 540), (959, 539), (959, 539), (959, 539), (959, 538), (958, 535), (958, 535), (958, 535), (958, 535), (958, 535), (957, 534), (957, 534), (957, 534), (957, 533), (957, 532), (957, 532), (957, 531), (957, 530), (957, 529), (957, 529), (957, 527), (957, 525), (957, 524), (957, 523), (957, 523), (957, 519), (957, 518), (957, 517), (957, 515), (958, 514), (958, 514), (958, 514), (958, 514), (958, 514), (958, 514), (958, 514), (958, 514), (958, 514), (958, 514), (958, 514), (958, 514), (958, 514), (958, 514), (958, 514), (958, 514), (949, 518), (944, 519), (937, 523), (929, 526), (911, 531), (905, 534), (896, 538), (889, 542), (874, 553), (866, 558), (857, 566), (851, 573), (837, 589), (829, 599), (822, 610), (815, 623), (800, 643), (793, 654), (785, 666), (781, 675), (768, 695), (764, 702), (758, 709), (752, 717), (742, 730), (738, 736), (733, 742), (728, 747), (714, 758), (706, 761), (702, 764), (693, 767), (680, 771), (675, 773), (671, 774), (669, 775), (665, 775), (664, 776), (664, 776), (664, 776), (663, 777), (662, 777), (661, 778), (660, 778), (656, 781), (656, 781), (654, 782), (652, 783), (652, 783), (652, 783), (652, 783), (652, 783), (652, 783), (652, 783), (652, 783), (650, 784), (648, 786), (647, 787), (643, 790)]",141.73915010690462,"[9, 7, 2, 5, 1, 6, 3, 8, 4]","(0, 0.25)",CHN006A,CHN,A,English,Tue Aug 21 12:35:36 2018,Mouse
1,1,1,0,42,9,9,1,580,230,350,136,0,500,200,8000,"[(960, 540), (960, 540), (960, 540), (960, 540), (960, 540), (960, 540), (960, 540), (960, 540), (960, 540), (960, 540), (960, 540), (960, 540), (960, 540), (960, 540), (960, 540), (960, 540), (960, 540), (960, 540), (960, 540), (960, 540), (960, 540), (960, 540), (960, 539), (961, 537), (965, 536), (968, 534), (969, 533), (973, 532), (979, 529), (981, 529), (986, 528), (990, 526), (998, 524), (1001, 523), (1006, 522), (1008, 521), (1012, 521), (1014, 521), (1018, 520), (1022, 520), (1033, 520), (1041, 521), (1047, 523), (1055, 526), (1067, 532), (1075, 537), (1087, 544), (1098, 550), (1121, 563), (1134, 570), (1146, 578), (1161, 587), (1200, 614), (1220, 628), (1244, 643), (1266, 655), (1317, 680), (1340, 689)]",21.410407051818325,"[9, 7, 2, 5, 1, 6, 3, 8, 4]","(0, 0.25)",CHN006A,CHN,A,English,Tue Aug 21 12:35:36 2018,Mouse
1,1,1,0,43,8,6,0,-549,249,300,135,0,500,200,8000,"[(960, 540), (960, 540), (960, 540), (960, 540), (960, 540), (960, 540), (960, 540), (960, 540), (960, 540), (960, 540), (960, 540), (960, 540), (960, 540), (960, 540), (960, 540), (960, 540), (960, 540), (960, 540), (960, 540), (960, 540), (960, 540), (960, 540), (960, 540), (960, 540), (957, 538), (950, 535), (945, 531), (940, 527), (933, 519), (915, 505), (906, 496), (895, 484), (883, 471), (861, 453), (849, 442), (840, 437), (833, 430), (815, 416), (807, 411), (801, 405), (792, 399), (780, 389), (773, 383), (766, 378), (757, 370), (740, 355), (735, 349), (730, 343), (721, 334), (699, 317), (687, 307), (673, 298), (663, 293), (651, 286), (646, 283)]",219.29934197242557,"[9, 7, 2, 5, 1, 6, 3, 8, 4]","(0, 0.25)",CHN006A,CHN,A,English,Tue Aug 21 12:35:36 2018,Mouse
1,1,1,0,44,3,5,0,-1489,1209,280,136,0,500,200,8000,"[(960, 540), (960, 540), (960, 540), (960, 540), (960, 540), (960, 540), (960, 540), (960, 540), (960, 540), (960, 540), (960, 540), (960, 540), (960, 540), (960, 540), (960, 540), (960, 540), (960, 540), (960, 540), (960, 540), (960, 540), (960, 540), (960, 540), (960, 540), (960, 540), (960, 540), (960, 540), (960, 540), (960, 540), (960, 540), (960, 540), (960, 540), (960, 540), (960, 540), (960, 540), (960, 540), (960, 540), (960, 540), (960, 540), (960, 540), (960, 540), (960, 540), (960, 540), (960, 540), (960, 540), (960, 540), (960, 540), (960, 540), (960, 540), (960, 540), (960, 540), (960, 540), (960, 540), (960, 540), (960, 540), (960, 540), (960, 540), (960, 540), (960, 540), (960, 540), (960, 540), (960, 540), (960, 540), (960, 540), (960, 540), (960, 540), (960, 540), (960, 540), (960, 540), (960, 540), (960, 540), (960, 540), (960, 540), (960, 540), (960, 540), (960, 540), (960, 540), (960, 540), (960, 540), (960, 540), (960, 540), (960, 540), (960, 540), (960, 540), (960, 540), (960, 540), (960, 540), (960, 540), (960, 540), (960, 540), (960, 540), (960, 540), (960, 540), (960, 540), (960, 540), (960, 540), (960, 540), (960, 540), (960, 540), (960, 540), (960, 540), (960, 540), (960, 540), (960, 540), (960, 540), (960, 540), (960, 540), (960, 540), (960, 540), (960, 540), (960, 540), (960, 540), (960, 540), (960, 540), (960, 540), (960, 540), (960, 540), (960, 540), (960, 540), (960, 540), (960, 540), (960, 541), (960, 543), (960, 543), (960, 545), (959, 546), (955, 550), (955, 550), (954, 552), (951, 553), (946, 557), (944, 559), (940, 562), (936, 566), (924, 575), (917, 582), (909, 589), (900, 598), (878, 618), (865, 630), (842, 648), (827, 662), (787, 693), (767, 709), (754, 722), (736, 736), (700, 766), (685, 780), (670, 792), (655, 804)]",139.12139533128357,"[9, 7, 2, 5, 1, 6, 3, 8, 4]","(0, 0.25)",CHN006A,CHN,A,English,Tue Aug 21 12:35:36 2018,Mouse
1,1,1,0,45,5,5,1,519,89,430,137,0,500,200,8000,"[(960, 540), (960, 540), (960, 540), (960, 540), (960, 540), (960, 540), (960, 540), (960, 540), (960, 539), (962, 539), (964, 537), (964, 537), (964, 537), (964, 537), (965, 537), (965, 537), (965, 537), (965, 537), (965, 537), (965, 537), (965, 537), (965, 537), (964, 538), (959, 542), (955, 544), (951, 547), (946, 550), (931, 559), (924, 565), (919, 568), (913, 573), (899, 587), (891, 595), (882, 605), (874, 614), (853, 636), (838, 648), (815, 665), (798, 678), (767, 698), (750, 711), (740, 718), (728, 726), (709, 740), (700, 747), (693, 755), (685, 761), (672, 775), (666, 783), (660, 789), (656, 795), (648, 807)]",139.44410612165268,"[9, 7, 2, 5, 1, 6, 3, 8, 4]","(0, 0.25)",CHN006A,CHN,A,English,Tue Aug 21 12:35:36 2018,Mouse
1,1,1,0,46,7,7,1,1361,861,500,137,0,500,200,8000,"[(960, 540), (960, 540), (960, 540), (960, 540), (960, 540), (960, 540), (960, 540), (960, 540), (960, 540), (960, 540), (960, 540), (960, 540), (960, 540), (960, 540), (960, 540), (960, 540), (960, 540), (960, 540), (960, 540), (960, 540), (960, 540), (960, 540), (960, 540), (960, 540), (960, 540), (960, 540), (960, 540), (960, 540), (960, 540), (960, 540), (960, 540), (960, 540), (960, 540), (960, 540), (960, 540), (960, 540), (960, 540), (960, 540), (960, 540), (960, 540), (960, 540), (960, 540), (960, 540), (960, 540), (960, 540), (960, 540), (960, 540), (960, 540), (960, 540), (960, 540), (960, 540), (960, 540), (960, 540), (960, 540), (960, 540), (960, 540), (960, 540), (960, 540), (960, 540), (960, 540), (960, 540), (960, 540), (960, 540), (960, 540), (960, 540), (960, 540), (960, 540), (960, 540), (960, 540), (960, 540), (960, 540), (960, 540), (960, 540), (960, 540), (960, 540), (960, 540), (960, 540), (960, 540), (960, 540), (960, 540), (960, 540), (960, 540), (960, 540), (960, 540), (960, 540), (960, 540), (963, 540), (971, 546), (973, 550), (974, 554), (977, 560), (981, 576), (983, 586), (988, 597), (993, 608), (1005, 636), (1011, 650), (1017, 659), (1022, 669), (1037, 695), (1044, 708), (1052, 719), (1060, 730), (1073, 750), (1081, 761), (1087, 769), (1092, 778), (1103, 796), (1109, 803), (1115, 811), (1120, 818), (1133, 831), (1138, 836), (1141, 839), (1144, 842), (1146, 845), (1148, 846), (1148, 846), (1148, 846), (1148, 846), (1148, 847), (1148, 848), (1149, 850), (1151, 852), (1151, 853), (1154, 855), (1154, 855), (1156, 856), (1156, 856), (1157, 857), (1157, 858), (1158, 860), (1160, 862), (1162, 866), (1164, 870), (1170, 880), (1171, 883)]",58.40181868737851,"[9, 7, 2, 5, 1, 6, 3, 8, 4]","(0, 0.25)",CHN006A,CHN,A,English,Tue Aug 21 12:35:36 2018,Mouse
1,1,1,0,47,8,8,1,640,420,220,136,0,500,200,8000,"[(960, 540), (960, 540), (960, 540), (960, 540), (960, 540), (960, 540), (960, 540), (960, 540), (960, 540), (960, 540), (960, 540), (960, 540), (960, 540), (960, 540), (960, 540), (960, 540), (960, 540), (960, 540), (960, 540), (960, 540), (960, 540), (960, 540), (960, 540), (960, 540), (960, 540), (960, 540), (960, 540), (960, 540), (960, 540), (960, 540), (960, 540), (960, 540), (960, 540), (960, 540), (960, 540), (960, 540), (960, 540), (960, 540), (960, 540), (960, 540), (960, 540), (960, 531), (958, 522), (955, 516), (951, 508), (948, 501), (945, 495), (944, 491), (943, 487), (943, 477), (943, 470), (943, 463), (943, 454), (954, 431), (965, 417), (979, 398), (997, 375), (1038, 325), (1058, 302), (1076, 277), (1095, 249), (1123, 202), (1132, 186), (1143, 169)]",296.25534727711914,"[9, 7, 2, 5, 1, 6, 3, 8, 4]","(0, 0.25)",CHN006A,CHN,A,English,Tue Aug 21 12:35:36 2018,Mouse
1,1,1,0,48,5,5,1,810,410,400,135,0,500,200,8000,"[(960, 540), (960, 540), (960, 540), (960, 540), (960, 540), (960, 540), (960, 540), (960, 540), (960, 540), (960, 540), (960, 540), (960, 540), (960, 540), (960, 540), (960, 540), (960, 540), (960, 540), (960, 540), (960, 540), (960, 540), (960, 540), (960, 540), (960, 540), (960, 540), (960, 540), (960, 540), (960, 540), (960, 540), (960, 540), (960, 540), (960, 540), (960, 540), (960, 540), (960, 540), (960, 540), (960, 540), (960, 540), (960, 540), (960, 540), (960, 540), (960, 542), (960, 542), (960, 543), (960, 546), (955, 552), (947, 557), (938, 562), (926, 568), (901, 580), (885, 588), (869, 597), (853, 607), (822, 627), (812, 634), (801, 644), (791, 651), (778, 665), (773, 674), (767, 681), (763, 688), (756, 705), (753, 712), (751, 718), (748, 724), (743, 733), (741, 737), (739, 740), (737, 745), (732, 753), (730, 756), (728, 760), (725, 765), (719, 773), (715, 778), (713, 781), (706, 788), (693, 798), (684, 803), (679, 806), (670, 810), (652, 815)]",138.23970029610214,"[9, 7, 2, 5, 1, 6, 3, 8, 4]","(0, 0.25)",CHN006A,CHN,A,English,Tue Aug 21 12:35:36 2018,Mouse
1,1,1,0,49,4,5,0,-670,450,220,134,0,500,200,8000,"[(960, 540), (960, 540), (960, 540), (960, 540), (960, 540), (960, 540), (960, 540), (960, 540), (960, 540), (960, 540), (960, 540), (960, 540), (960, 540), (960, 540), (960, 540), (960, 540), (960, 540), (960, 540), (960, 540), (960, 540), (960, 540), (960, 540), (960, 540), (960, 540), (960, 540), (960, 540), (960, 540), (960, 540), (960, 540), (960, 540), (960, 540), (960, 540), (960, 540), (960, 540), (960, 540), (960, 540), (960, 540), (960, 540), (960, 540), (960, 540), (960, 540), (960, 540), (960, 540), (960, 540), (960, 539), (958, 539), (945, 550), (938, 556), (928, 567), (922, 574), (904, 604), (893, 618), (881, 633), (868, 653), (835, 698), (819, 721), (803, 743), (790, 761), (770, 787), (759, 797), (751, 805), (743, 813), (727, 824), (720, 829), (712, 833), (703, 838), (683, 847)]",132.05930853121356,"[9, 7, 2, 5, 1, 6, 3, 8, 4]","(0, 0.25)",CHN006A,CHN,A,English,Tue Aug 21 12:35:36 2018,Mouse
1,1,1,0,50,8,9,0,-560,430,130,135,0,500,200,8000,"[(960, 540), (960, 540), (960, 540), (960, 540), (960, 540), (960, 540), (960, 540), (960, 540), (960, 540), (960, 540), (960, 540), (960, 540), (960, 540), (960, 540), (960, 540), (960, 540), (960, 540), (960, 540), (960, 540), (960, 540), (960, 540), (960, 540), (960, 540), (960, 540), (960, 540), (960, 540), (960, 540), (960, 540), (960, 540), (960, 540), (960, 540), (960, 540), (960, 540), (960, 540), (960, 540), (960, 540), (960, 540), (960, 540), (960, 540), (960, 540), (960, 540), (960, 540), (965, 540), (975, 546), (986, 551), (999, 559), (1028, 577), (1048, 590), (1072, 605), (1095, 623), (1144, 651), (1174, 669), (1204, 684), (1238, 697), (1303, 722), (1334, 730)]",26.931543702158926,"[9, 7, 2, 5, 1, 6, 3, 8, 4]","(0, 0.25)",CHN006A,CHN,A,English,Tue Aug 21 12:35:36 2018,Mouse
1,1,1,0,51,5,5,1,570,170,400,136,0,500,200,8000,"[(960, 540), (960, 540), (960, 540), (960, 540), (960, 540), (960, 540), (960, 540), (960, 540), (960, 540), (960, 540), (960, 540), (960, 540), (960, 540), (960, 540), (960, 540), (960, 540), (959, 540), (946, 543), (937, 546), (929, 550), (917, 555), (893, 565), (882, 570), (869, 575), (857, 581), (835, 594), (818, 603), (802, 612), (789, 620), (767, 634), (758, 642), (748, 650), (741, 657), (727, 671), (721, 677), (715, 682), (710, 687), (700, 696), (696, 699), (693, 702), (692, 705), (688, 710), (688, 712), (687, 714), (685, 717), (685, 725), (684, 731), (683, 736), (682, 743), (678, 754), (675, 761), (673, 766), (668, 772), (658, 786), (654, 791), (652, 792), (650, 795)]",140.55994726330954,"[9, 7, 2, 5, 1, 6, 3, 8, 4]","(0, 0.25)",CHN006A,CHN,A,English,Tue Aug 21 12:35:36 2018,Mouse
1,1,1,0,52,8,8,1,362,92,270,136,0,500,200,8000,"[(960, 540), (960, 540), (960, 540), (960, 540), (960, 540), (960, 540), (960, 540), (960, 540), (960, 540), (964, 535), (967, 531), (974, 527), (986, 511), (991, 502), (1000, 493), (1007, 487), (1022, 474), (1028, 467), (1036, 462), (1042, 456), (1057, 441), (1065, 434), (1075, 422), (1086, 409), (1114, 372), (1125, 357), (1140, 340), (1149, 328), (1167, 305), (1175, 293), (1181, 282), (1184, 271), (1189, 249), (1190, 240), (1190, 231), (1190, 221), (1190, 210)]",304.87532834460217,"[9, 7, 2, 5, 1, 6, 3, 8, 4]","(0, 0.25)",CHN006A,CHN,A,English,Tue Aug 21 12:35:36 2018,Mouse
1,1,1,0,53,6,6,1,430,110,320,135,0,500,200,8000,"[(960, 540), (960, 540), (960, 540), (960, 540), (960, 540), (960, 540), (960, 540), (960, 540), (960, 540), (960, 540), (958, 540), (955, 540), (954, 540), (952, 540), (947, 540), (944, 540), (942, 540), (937, 540), (926, 540), (919, 540), (912, 539), (906, 539), (891, 537), (882, 534), (874, 533), (869, 532), (856, 528), (850, 526), (843, 522), (834, 517), (818, 506), (810, 499), (800, 491), (792, 485), (771, 462), (763, 451), (753, 437), (745, 421), (716, 375), (699, 347), (681, 324), (663, 301), (624, 259)]",219.90606051775111,"[9, 7, 2, 5, 1, 6, 3, 8, 4]","(0, 0.25)",CHN006A,CHN,A,English,Tue Aug 21 12:35:36 2018,Mouse
1,1,1,0,54,1,6,0,-450,360,90,134,0,500,200,8000,"[(960, 540), (960, 540), (960, 540), (960, 540), (960, 540), (960, 540), (960, 540), (960, 540), (960, 540), (960, 540), (960, 540), (960, 540), (960, 540), (960, 540), (960, 540), (960, 540), (960, 540), (960, 540), (960, 540), (960, 540), (960, 540), (960, 540), (960, 540), (960, 540), (960, 540), (960, 540), (960, 540), (960, 540), (960, 540), (960, 540), (960, 540), (960, 540), (960, 540), (960, 540), (960, 540), (954, 535), (946, 527), (934, 518), (898, 486), (870, 465), (841, 440), (801, 406), (723, 334), (681, 302), (646, 271)]",220.5862642729691,"[9, 7, 2, 5, 1, 6, 3, 8, 4]","(0, 0.25)",CHN006A,CHN,A,English,Tue Aug 21 12:35:36 2018,Mouse
1,1,1,0,55,3,5,0,-570,230,340,135,0,500,200,8000,"[(960, 540), (960, 540), (960, 540), (960, 540), (960, 540), (960, 540), (960, 540), (960, 540), (960, 540), (960, 540), (960, 540), (960, 540), (960, 540), (960, 540), (960, 540), (960, 540), (960, 540), (960, 540), (960, 540), (960, 540), (960, 540), (960, 540), (961, 541), (962, 542), (965, 548), (965, 548), (965, 550), (965, 551), (965, 554), (965, 555), (965, 557), (965, 559), (963, 565), (960, 571), (957, 575), (952, 581), (941, 597), (933, 609), (925, 622), (912, 639), (890, 671), (874, 693), (862, 708), (852, 720), (830, 747), (822, 756), (813, 766), (803, 776), (786, 790), (776, 797), (767, 802), (757, 808), (738, 817), (730, 820), (721, 823), (709, 829), (686, 834)]",132.9833761253769,"[9, 7, 2, 5, 1, 6, 3, 8, 4]","(0, 0.25)",CHN006A,CHN,A,English,Tue Aug 21 12:35:36 2018,Mouse
1,1,1,0,56,1,3,0,-2349,50,2299,136,0,500,200,8000,"[(961, 539), (961, 539), (961, 539), (961, 539), (962, 539), (962, 539), (962, 539), (962, 539), (962, 539), (962, 539), (962, 539), (962, 539), (962, 539), (962, 539), (962, 539), (962, 539), (962, 539), (962, 539), (962, 539), (962, 539), (962, 539), (962, 539), (962, 539), (962, 539), (962, 539), (962, 539), (962, 539), (962, 539), (962, 539), (963, 538), (963, 538), (963, 538), (963, 538), (963, 538), (963, 538), (963, 538), (963, 538), (963, 538), (963, 538), (963, 538), (963, 538), (963, 538), (963, 538), (963, 538), (963, 538), (963, 538), (963, 538), (963, 538), (963, 538), (963, 538), (963, 538), (963, 538), (963, 538), (963, 538), (963, 538), (963, 538), (963, 538), (963, 538), (963, 538), (963, 538), (963, 538), (963, 538), (963, 538), (963, 538), (963, 538), (963, 538), (963, 538), (963, 538), (963, 538), (963, 538), (963, 538), (963, 538), (963, 538), (963, 538), (963, 538), (963, 538), (963, 538), (963, 538), (963, 538), (963, 538), (963, 538), (963, 538), (963, 538), (963, 538), (963, 538), (963, 538), (963, 538), (963, 538), (963, 538), (963, 538), (963, 538), (963, 538), (963, 538), (963, 538), (963, 538), (963, 538), (963, 538), (963, 538), (963, 538), (963, 538), (963, 538), (963, 538), (963, 538), (963, 538), (963, 538), (963, 538), (963, 538), (963, 538), (963, 538), (963, 538), (963, 538), (963, 538), (963, 538), (963, 538), (963, 538), (963, 538), (963, 538), (963, 538), (963, 538), (963, 538), (963, 538), (963, 538), (963, 538), (963, 538), (963, 538), (963, 538), (963, 538), (963, 538), (963, 538), (963, 538), (963, 538), (963, 538), (963, 538), (965, 537), (967, 535), (968, 535), (969, 533), (970, 532), (972, 531), (972, 528), (973, 527), (973, 526), (973, 525), (973, 524), (973, 524), (973, 524), (973, 524), (973, 524), (973, 524), (973, 524), (973, 524), (973, 524), (973, 524), (973, 524), (973, 524), (973, 524), (973, 524), (973, 524), (973, 524), (973, 524), (973, 524), (973, 524), (973, 524), (973, 524), (973, 524), (973, 524), (973, 524), (973, 524), (973, 524), (973, 524), (973, 524), (973, 524), (973, 524), (973, 524), (973, 524), (973, 524), (973, 524), (973, 524), (973, 524), (973, 524), (973, 524), (973, 524), (973, 524), (973, 524), (973, 524), (973, 524), (973, 524), (973, 524), (973, 524), (973, 524), (973, 524), (973, 524), (973, 524), (973, 524), (973, 524), (973, 524), (973, 524), (973, 524), (973, 524), (973, 524), (973, 524), (973, 524), (973, 524), (973, 524), (973, 524), (973, 524), (973, 524), (973, 522), (973, 522), (975, 521), (976, 519), (976, 518), (976, 518), (976, 516), (976, 515), (976, 513), (976, 513), (976, 511), (975, 509), (975, 506), (974, 504), (974, 502), (970, 497), (970, 493), (967, 485), (966, 479), (966, 462), (966, 448), (966, 432), (966, 406), (964, 336), (958, 296), (951, 250), (945, 204), (936, 140)]",266.5663696375495,"[9, 7, 2, 5, 1, 6, 3, 8, 4]","(0, 0.25)",CHN006A,CHN,A,English,Tue Aug 21 12:35:36 2018,Mouse
1,1,1,0,57,2,2,1,1381,671,710,137,0,500,200,8000,"[(960, 540), (960, 540), (960, 540), (960, 540), (960, 540), (960, 540), (960, 540), (960, 540), (960, 540), (960, 540), (960, 540), (960, 540), (960, 540), (960, 540), (960, 540), (960, 540), (960, 540), (960, 540), (960, 540), (960, 540), (960, 540), (960, 540), (960, 540), (960, 540), (960, 540), (960, 540), (960, 540), (960, 540), (960, 540), (960, 540), (960, 540), (960, 540), (960, 540), (960, 540), (960, 540), (960, 540), (960, 540), (960, 540), (960, 540), (960, 540), (960, 540), (960, 540), (960, 540), (960, 540), (960, 540), (960, 540), (960, 540), (960, 540), (960, 540), (960, 540), (960, 540), (960, 540), (960, 540), (960, 540), (960, 540), (960, 540), (960, 540), (960, 540), (960, 540), (960, 540), (960, 540), (960, 540), (960, 540), (960, 540), (960, 540), (960, 540), (961, 540), (962, 540), (962, 540), (962, 540), (963, 540), (964, 539), (964, 539), (964, 539), (964, 539), (964, 539), (964, 539), (964, 539), (964, 539), (964, 539), (964, 539), (964, 539), (964, 539), (964, 539), (964, 539), (964, 539), (964, 539), (964, 539), (964, 539), (964, 539), (964, 539), (964, 539), (964, 539), (964, 539), (964, 539), (964, 539), (964, 540), (963, 541), (960, 547), (960, 548), (957, 552), (957, 555), (955, 561), (955, 565), (955, 569), (955, 574), (951, 589), (950, 598), (949, 607), (949, 620), (949, 647), (949, 660), (949, 673), (949, 686), (949, 708), (949, 716), (947, 726), (946, 734), (944, 750), (941, 757), (939, 767), (936, 774), (934, 789), (930, 798), (929, 804), (929, 812), (925, 829), (925, 837), (924, 847), (924, 858), (923, 877), (923, 886), (921, 895), (920, 905), (919, 921), (919, 931), (919, 936), (918, 945)]",95.9206207140468,"[9, 7, 2, 5, 1, 6, 3, 8, 4]","(0, 0.25)",CHN006A,CHN,A,English,Tue Aug 21 12:35:36 2018,Mouse
1,1,1,0,58,6,6,1,351,121,230,137,0,500,200,8000,"[(960, 540), (960, 540), (960, 540), (960, 540), (960, 540), (960, 540), (960, 540), (960, 540), (960, 540), (960, 540), (960, 540), (960, 540), (960, 534), (960, 531), (957, 527), (955, 521), (948, 508), (945, 504), (941, 497), (937, 490), (930, 474), (924, 464), (916, 452), (907, 437), (885, 399), (866, 371), (849, 346), (828, 321), (799, 281), (786, 261), (773, 246), (762, 234), (752, 221), (746, 216), (742, 210), (739, 206)]",236.50832426948332,"[9, 7, 2, 5, 1, 6, 3, 8, 4]","(0, 0.25)",CHN006A,CHN,A,English,Tue Aug 21 12:35:36 2018,Mouse
1,1,1,0,59,4,4,1,571,361,210,136,0,500,200,8000,"[(960, 540), (960, 540), (960, 540), (960, 540), (960, 540), (960, 540), (960, 540), (960, 540), (960, 540), (960, 540), (960, 540), (960, 540), (960, 540), (960, 540), (960, 540), (960, 540), (960, 540), (960, 540), (960, 540), (960, 540), (960, 540), (960, 540), (960, 540), (960, 540), (960, 540), (960, 540), (960, 540), (960, 540), (960, 540), (960, 540), (960, 540), (960, 540), (960, 540), (960, 540), (960, 540), (960, 540), (961, 540), (964, 540), (969, 539), (975, 538), (992, 531), (1002, 526), (1015, 521), (1025, 516), (1059, 504), (1079, 499), (1095, 495), (1112, 490), (1142, 483), (1159, 477), (1173, 473), (1195, 467), (1246, 459), (1270, 456), (1294, 452), (1312, 449), (1345, 444), (1360, 443)]",346.36890555657845,"[9, 7, 2, 5, 1, 6, 3, 8, 4]","(0, 0.25)",CHN006A,CHN,A,English,Tue Aug 21 12:35:36 2018,Mouse
1,1,1,0,60,8,6,0,-460,200,260,135,0,500,200,8000,"[(960, 540), (960, 540), (960, 540), (960, 540), (960, 540), (960, 540), (960, 540), (960, 540), (960, 540), (960, 540), (960, 540), (960, 540), (960, 540), (960, 540), (960, 540), (960, 540), (960, 540), (960, 540), (960, 540), (959, 540), (952, 540), (931, 538), (914, 532), (892, 526), (867, 518), (814, 502), (783, 493), (763, 488), (741, 480), (709, 466), (700, 461), (692, 457), (690, 455), (681, 446), (675, 440), (669, 434), (664, 430), (647, 418), (640, 413), (631, 407), (621, 401), (610, 390), (605, 385), (601, 381), (599, 376), (593, 366)]",205.36630562123784,"[9, 7, 2, 5, 1, 6, 3, 8, 4]","(0, 0.25)",CHN006A,CHN,A,English,Tue Aug 21 12:35:36 2018,Mouse
1,1,1,0,61,8,8,1,1509,259,1250,136,0,500,200,8000,"[(960, 540), (960, 540), (960, 540), (960, 540), (960, 540), (960, 540), (960, 540), (960, 540), (960, 540), (960, 540), (960, 540), (960, 540), (960, 540), (960, 540), (960, 540), (960, 540), (960, 540), (960, 540), (960, 540), (960, 540), (960, 540), (960, 540), (960, 540), (960, 540), (960, 540), (961, 540), (958, 531), (951, 522), (944, 513), (933, 501), (904, 477), (883, 459), (858, 441), (838, 427), (805, 408), (789, 399), (778, 392), (765, 385), (740, 373), (728, 369), (716, 363), (708, 359), (691, 350), (680, 344), (673, 340), (665, 335), (658, 329), (654, 326), (652, 322), (650, 321), (647, 317), (646, 315), (646, 314), (645, 313), (645, 312), (645, 312), (645, 312), (645, 312), (645, 312), (645, 312), (645, 312), (645, 312), (645, 312), (645, 312), (645, 312), (645, 312), (645, 312), (645, 312), (645, 312), (645, 312), (645, 312), (645, 312), (645, 312), (645, 312), (645, 312), (645, 312), (645, 312), (645, 312), (645, 312), (645, 312), (645, 312), (645, 312), (645, 312), (645, 312), (645, 312), (645, 312), (645, 312), (645, 312), (645, 312), (645, 312), (645, 312), (645, 312), (645, 312), (645, 312), (645, 312), (645, 312), (645, 312), (645, 312), (652, 316), (661, 319), (671, 321), (682, 321), (709, 321), (727, 321), (747, 321), (767, 321), (818, 313), (846, 304), (865, 299), (888, 291), (914, 283), (929, 278), (941, 276), (951, 271), (967, 263), (973, 261), (980, 257), (985, 255), (999, 247), (1005, 243), (1011, 241), (1017, 238), (1030, 233), (1037, 229), (1046, 226), (1053, 223), (1068, 216), (1075, 214), (1080, 211), (1085, 207), (1089, 205), (1092, 204), (1092, 203), (1093, 203), (1095, 202), (1097, 201), (1100, 200), (1101, 200), (1107, 198), (1110, 197), (1113, 196), (1116, 196), (1120, 193), (1122, 192), (1125, 190), (1127, 189), (1132, 186), (1133, 185), (1137, 183), (1138, 183), (1141, 180)]",296.6922336086175,"[9, 7, 2, 5, 1, 6, 3, 8, 4]","(0, 0.25)",CHN006A,CHN,A,English,Tue Aug 21 12:35:36 2018,Mouse
1,1,1,0,62,1,5,0,-649,299,350,136,0,500,200,8000,"[(960, 540), (960, 540), (960, 540), (960, 540), (960, 540), (960, 540), (960, 540), (960, 540), (960, 540), (960, 540), (960, 540), (960, 540), (960, 540), (960, 540), (960, 540), (960, 540), (960, 540), (960, 540), (960, 540), (960, 540), (960, 540), (960, 540), (960, 540), (960, 540), (960, 540), (960, 540), (960, 540), (960, 540), (960, 540), (959, 541), (950, 550), (945, 556), (938, 564), (933, 570), (916, 585), (909, 591), (901, 599), (892, 606), (878, 617), (873, 622), (869, 626), (867, 631), (861, 637), (861, 639), (857, 643), (857, 645), (852, 652), (851, 655), (850, 657), (848, 659), (845, 666), (844, 669), (842, 674), (839, 680), (834, 693), (829, 698), (824, 706), (816, 715), (794, 733), (781, 741), (759, 754), (736, 770), (693, 793), (672, 805), (653, 815)]",138.14711460409362,"[9, 7, 2, 5, 1, 6, 3, 8, 4]","(0, 0.25)",CHN006A,CHN,A,English,Tue Aug 21 12:35:36 2018,Mouse
1,1,1,0,63,4,4,1,411,211,200,137,0,500,200,8000,"[(960, 540), (960, 540), (960, 540), (960, 540), (960, 540), (960, 540), (960, 540), (960, 540), (960, 540), (960, 540), (960, 540), (960, 540), (960, 540), (960, 540), (960, 540), (960, 540), (960, 540), (960, 540), (960, 540), (960, 540), (960, 540), (968, 531), (973, 527), (981, 522), (990, 516), (1019, 500), (1040, 489), (1064, 476), (1086, 464), (1140, 435), (1159, 423), (1178, 413), (1194, 404), (1224, 387), (1239, 381), (1249, 377), (1260, 372), (1278, 364), (1287, 361), (1295, 358), (1303, 353), (1322, 346)]",331.8126262354242,"[9, 7, 2, 5, 1, 6, 3, 8, 4]","(0, 0.25)",CHN006A,CHN,A,English,Tue Aug 21 12:35:36 2018,Mouse
1,1,1,0,64,6,6,1,530,110,420,137,0,500,200,8000,"[(960, 540), (960, 540), (960, 540), (960, 540), (960, 540), (960, 540), (960, 540), (960, 540), (960, 540), (960, 540), (949, 540), (941, 540), (934, 537), (925, 533), (902, 525), (891, 519), (876, 514), (863, 505), (838, 491), (825, 484), (813, 478), (801, 472), (781, 465), (773, 463), (768, 462), (759, 460), (747, 456), (739, 452), (733, 449), (728, 445), (718, 436), (715, 432), (710, 423), (704, 417), (697, 399), (695, 393), (694, 386), (690, 379), (686, 367), (685, 360), (684, 356), (684, 349), (684, 340), (684, 332), (682, 326), (680, 322), (675, 308), (672, 305), (669, 301), (666, 297), (656, 289), (651, 286), (646, 283)]",219.29934197242557,"[9, 7, 2, 5, 1, 6, 3, 8, 4]","(0, 0.25)",CHN006A,CHN,A,English,Tue Aug 21 12:35:36 2018,Mouse
1,1,1,0,65,8,8,1,880,560,320,136,0,500,200,8000,"[(960, 540), (960, 540), (960, 540), (960, 540), (960, 540), (960, 540), (960, 540), (960, 540), (960, 540), (960, 540), (960, 540), (960, 540), (960, 540), (960, 540), (960, 540), (960, 540), (960, 540), (960, 540), (960, 540), (960, 540), (960, 540), (960, 540), (960, 540), (960, 540), (960, 540), (960, 540), (960, 540), (960, 540), (960, 540), (960, 540), (960, 540), (960, 540), (960, 540), (960, 540), (960, 540), (960, 540), (960, 540), (960, 540), (960, 540), (960, 540), (960, 540), (960, 540), (960, 540), (960, 540), (960, 540), (960, 540), (960, 540), (960, 540), (960, 540), (960, 540), (960, 540), (960, 540), (960, 540), (960, 540), (960, 540), (960, 539), (965, 528), (969, 518), (971, 511), (976, 501), (987, 474), (992, 461), (997, 447), (1000, 436), (1006, 414), (1010, 401), (1015, 387), (1021, 376), (1035, 351), (1043, 340), (1049, 332), (1056, 322), (1072, 303), (1080, 294), (1087, 286), (1093, 277), (1106, 261), (1110, 252), (1116, 243), (1118, 236), (1125, 221), (1127, 214), (1132, 207), (1134, 201), (1138, 191), (1141, 187), (1142, 184), (1145, 180)]",297.1981279485091,"[9, 7, 2, 5, 1, 6, 3, 8, 4]","(0, 0.25)",CHN006A,CHN,A,English,Tue Aug 21 12:35:36 2018,Mouse
1,1,1,0,66,4,4,1,388,238,150,135,0,500,200,8000,"[(960, 540), (960, 540), (960, 540), (960, 540), (960, 540), (960, 540), (960, 540), (960, 540), (960, 540), (960, 540), (960, 540), (960, 540), (960, 540), (960, 540), (960, 540), (960, 540), (960, 540), (960, 540), (960, 540), (960, 540), (960, 540), (960, 540), (960, 540), (960, 538), (965, 536), (971, 532), (979, 530), (1003, 519), (1018, 512), (1044, 501), (1072, 492), (1127, 471), (1155, 463), (1189, 450), (1232, 444), (1287, 430), (1309, 425), (1327, 423), (1345, 422)]",342.96003797262324,"[9, 7, 2, 5, 1, 6, 3, 8, 4]","(0, 0.25)",CHN006A,CHN,A,English,Tue Aug 21 12:35:36 2018,Mouse
1,1,1,0,67,6,6,1,809,259,550,134,0,500,200,8000,"[(960, 540), (960, 540), (960, 540), (960, 540), (960, 540), (960, 540), (960, 540), (960, 540), (960, 540), (960, 540), (960, 540), (960, 540), (960, 540), (960, 540), (960, 540), (960, 540), (960, 540), (960, 540), (960, 540), (960, 540), (960, 540), (960, 540), (960, 540), (960, 540), (960, 540), (960, 537), (960, 532), (956, 518), (955, 507), (953, 496), (952, 484), (949, 459), (946, 446), (945, 433), (944, 422), (941, 404), (939, 395), (939, 391), (939, 387), (937, 383), (937, 382), (936, 380), (936, 380), (936, 380), (936, 380), (936, 380), (936, 380), (936, 380), (936, 380), (935, 380), (933, 380), (929, 382), (925, 383), (922, 384), (919, 386), (912, 387), (908, 388), (905, 388), (903, 388), (898, 388), (897, 388), (894, 388), (892, 388), (888, 388), (886, 388), (882, 386), (873, 385), (855, 376), (846, 373), (839, 368), (830, 365), (811, 358), (800, 352), (790, 347), (779, 343), (752, 331), (740, 324), (726, 318), (707, 308), (665, 288), (645, 281)]",219.4278021960362,"[9, 7, 2, 5, 1, 6, 3, 8, 4]","(0, 0.25)",CHN006A,CHN,A,English,Tue Aug 21 12:35:36 2018,Mouse
1,1,1,0,68,4,1,0,-1579,859,720,133,0,500,200,8000,"[(960, 540), (960, 540), (960, 540), (960, 540), (960, 540), (960, 540), (960, 540), (960, 540), (960, 540), (960, 540), (960, 540), (960, 540), (960, 540), (960, 540), (960, 540), (960, 540), (960, 540), (960, 540), (960, 540), (960, 540), (960, 540), (960, 540), (960, 540), (960, 540), (960, 540), (960, 540), (960, 540), (960, 540), (960, 540), (960, 540), (960, 540), (960, 540), (960, 540), (960, 540), (960, 540), (960, 540), (960, 540), (960, 540), (960, 540), (960, 540), (960, 540), (960, 540), (960, 540), (960, 540), (960, 540), (960, 540), (960, 540), (960, 540), (960, 540), (960, 540), (960, 540), (960, 540), (960, 540), (960, 540), (960, 540), (960, 540), (960, 540), (960, 540), (960, 540), (960, 540), (960, 540), (960, 540), (960, 540), (960, 540), (960, 540), (960, 540), (960, 540), (960, 540), (960, 540), (960, 540), (960, 540), (960, 540), (960, 540), (960, 540), (960, 540), (960, 540), (960, 540), (960, 540), (960, 540), (960, 540), (960, 540), (960, 540), (960, 540), (960, 540), (960, 540), (959, 540), (957, 540), (954, 538), (953, 537), (948, 536), (947, 534), (945, 534), (942, 533), (937, 530), (935, 530), (931, 529), (931, 529), (929, 529), (929, 529), (928, 529), (926, 528), (921, 528), (915, 528), (911, 528), (905, 528), (892, 528), (884, 528), (875, 528), (864, 528), (839, 528), (826, 528), (813, 528), (798, 529), (769, 534), (755, 534), (740, 534), (728, 534), (706, 534), (695, 534), (683, 533), (668, 532), (646, 528), (635, 527), (623, 526), (612, 525), (590, 521), (581, 520), (574, 520), (570, 520), (564, 520), (563, 520), (561, 520), (561, 520), (561, 520), (561, 520), (561, 520), (561, 520), (561, 520), (561, 520), (561, 520), (561, 520), (561, 520), (561, 520), (561, 520), (561, 520), (561, 520), (561, 520), (561, 520), (563, 520), (579, 518), (584, 518), (585, 518), (586, 518), (586, 518), (586, 518), (584, 518), (573, 519), (541, 523)]",182.32337544862438,"[9, 7, 2, 5, 1, 6, 3, 8, 4]","(0, 0.25)",CHN006A,CHN,A,English,Tue Aug 21 12:35:36 2018,Mouse
1,1,1,0,69,6,6,1,501,191,310,134,0,500,200,8000,"[(960, 540), (960, 540), (960, 540), (960, 540), (960, 540), (960, 540), (960, 540), (960, 540), (960, 540), (960, 540), (960, 540), (960, 540), (960, 540), (960, 540), (960, 540), (960, 540), (960, 540), (960, 540), (960, 540), (960, 539), (961, 538), (961, 537), (961, 535), (961, 532), (961, 529), (961, 527), (961, 524), (961, 514), (960, 509), (959, 502), (955, 495), (947, 480), (942, 470), (935, 460), (924, 444), (910, 424), (903, 415), (898, 409), (890, 400), (875, 386), (864, 378), (854, 369), (841, 359), (814, 340), (797, 329), (778, 317), (762, 309), (730, 286), (716, 277), (699, 264), (676, 248)]",225.79572355273928,"[9, 7, 2, 5, 1, 6, 3, 8, 4]","(0, 0.25)",CHN006A,CHN,A,English,Tue Aug 21 12:35:36 2018,Mouse
1,1,1,0,70,3,4,0,-440,290,150,134,0,500,200,8000,"[(960, 540), (960, 540), (960, 540), (960, 540), (960, 540), (960, 540), (960, 540), (960, 540), (960, 540), (960, 540), (960, 540), (960, 540), (960, 540), (960, 540), (960, 540), (960, 540), (960, 540), (960, 540), (960, 540), (960, 540), (960, 540), (960, 540), (960, 540), (960, 540), (960, 540), (960, 540), (960, 540), (960, 540), (961, 539), (968, 537), (978, 534), (1001, 531), (1019, 525), (1041, 521), (1065, 517), (1128, 503), (1161, 494), (1189, 486), (1220, 477), (1278, 461), (1291, 454), (1314, 448), (1333, 442), (1364, 433)]",345.16572415520943,"[9, 7, 2, 5, 1, 6, 3, 8, 4]","(0, 0.25)",CHN006A,CHN,A,English,Tue Aug 21 12:35:36 2018,Mouse
1,1,1,0,71,9,6,0,-1150,890,260,135,0,500,200,8000,"[(960, 540), (960, 540), (960, 540), (960, 540), (960, 540), (960, 540), (960, 540), (960, 540), (960, 540), (960, 540), (960, 540), (960, 540), (960, 540), (960, 540), (960, 540), (960, 540), (960, 540), (960, 540), (960, 540), (960, 540), (960, 540), (960, 540), (960, 540), (960, 540), (960, 540), (960, 540), (960, 540), (960, 540), (960, 540), (960, 540), (960, 540), (960, 540), (960, 540), (960, 540), (960, 540), (960, 540), (960, 540), (960, 540), (960, 540), (960, 540), (960, 540), (960, 540), (960, 540), (960, 540), (960, 540), (960, 540), (960, 540), (960, 540), (960, 540), (960, 540), (960, 540), (960, 540), (960, 540), (960, 540), (960, 540), (960, 540), (960, 540), (960, 540), (960, 540), (960, 540), (960, 540), (960, 540), (960, 540), (960, 540), (960, 540), (960, 540), (960, 540), (960, 540), (960, 540), (960, 540), (960, 540), (960, 540), (960, 540), (960, 540), (960, 540), (960, 540), (960, 540), (960, 540), (960, 540), (960, 540), (960, 540), (960, 540), (960, 540), (960, 540), (960, 540), (960, 540), (960, 540), (960, 540), (959, 540), (955, 540), (932, 529), (922, 524), (909, 516), (899, 510), (878, 493), (860, 478), (847, 467), (829, 450), (806, 427), (795, 414), (782, 403), (773, 394), (757, 379), (749, 372), (740, 365), (731, 359), (714, 347), (705, 341), (698, 335), (692, 331), (681, 319), (674, 313), (669, 308), (664, 302), (646, 281)]",219.51720219272875,"[9, 7, 2, 5, 1, 6, 3, 8, 4]","(0, 0.25)",CHN006A,CHN,A,English,Tue Aug 21 12:35:36 2018,Mouse
1,1,1,0,72,1,5,0,-629,249,380,136,0,500,200,8000,"[(960, 540), (960, 540), (960, 540), (960, 540), (960, 540), (960, 540), (960, 540), (960, 540), (960, 540), (960, 540), (960, 540), (960, 540), (960, 540), (960, 540), (960, 540), (960, 540), (960, 540), (960, 540), (960, 540), (960, 540), (960, 540), (960, 540), (960, 540), (960, 540), (960, 541), (959, 542), (957, 544), (957, 544), (955, 546), (954, 547), (953, 547), (952, 548), (952, 548), (951, 549), (951, 549), (951, 549), (951, 549), (951, 549), (950, 549), (950, 549), (950, 549), (950, 549), (949, 550), (948, 552), (948, 552), (945, 555), (940, 561), (937, 565), (931, 571), (925, 580), (908, 599), (897, 611), (882, 629), (868, 644), (833, 688), (813, 709), (796, 730), (782, 745), (746, 776), (731, 787), (711, 802), (695, 812), (672, 824)]",135.40066325579215,"[9, 7, 2, 5, 1, 6, 3, 8, 4]","(0, 0.25)",CHN006A,CHN,A,English,Tue Aug 21 12:35:36 2018,Mouse
1,1,1,0,73,1,6,0,-991,821,170,137,0,500,200,8000,"[(960, 540), (960, 540), (960, 540), (960, 540), (960, 540), (960, 540), (960, 540), (960, 540), (960, 540), (960, 540), (960, 540), (960, 540), (960, 540), (960, 540), (960, 540), (960, 540), (960, 540), (960, 540), (960, 540), (960, 540), (960, 540), (960, 540), (960, 540), (960, 540), (960, 540), (960, 540), (960, 540), (960, 540), (960, 540), (960, 540), (960, 540), (960, 540), (960, 540), (960, 540), (960, 540), (960, 540), (960, 540), (960, 540), (960, 540), (960, 540), (960, 540), (960, 540), (960, 540), (960, 540), (960, 540), (960, 540), (960, 540), (960, 540), (960, 540), (960, 540), (960, 540), (960, 540), (960, 540), (960, 540), (960, 540), (960, 540), (960, 540), (960, 540), (960, 540), (960, 540), (960, 540), (960, 540), (960, 540), (960, 540), (960, 540), (960, 540), (960, 540), (960, 540), (960, 540), (960, 540), (960, 540), (960, 540), (960, 540), (960, 540), (960, 540), (960, 540), (960, 540), (960, 540), (960, 540), (960, 540), (960, 540), (960, 540), (960, 539), (957, 528), (952, 521), (944, 512), (937, 503), (913, 468), (892, 442), (875, 424), (859, 405), (822, 370), (794, 351), (771, 335), (748, 317), (710, 293), (696, 284), (684, 275), (674, 268), (656, 251)]",223.55100596687967,"[9, 7, 2, 5, 1, 6, 3, 8, 4]","(0, 0.25)",CHN006A,CHN,A,English,Tue Aug 21 12:35:36 2018,Mouse
1,1,1,0,74,1,7,0,-2270,819,1451,138,0,500,200,8000,"[(960, 540), (960, 540), (960, 540), (960, 540), (960, 540), (960, 540), (960, 540), (960, 540), (960, 540), (960, 540), (960, 540), (960, 540), (960, 540), (960, 540), (960, 540), (960, 540), (960, 540), (960, 540), (960, 540), (960, 540), (960, 540), (960, 540), (960, 540), (960, 540), (960, 540), (960, 540), (960, 540), (960, 540), (960, 540), (960, 540), (960, 540), (960, 540), (960, 540), (960, 540), (960, 540), (960, 540), (960, 540), (960, 540), (960, 540), (960, 540), (960, 540), (960, 540), (960, 540), (960, 540), (960, 540), (960, 540), (960, 540), (960, 540), (960, 540), (960, 540), (960, 540), (960, 540), (960, 540), (960, 540), (960, 540), (960, 540), (960, 540), (960, 540), (960, 540), (960, 540), (960, 540), (960, 540), (960, 540), (960, 540), (960, 540), (960, 540), (960, 540), (960, 540), (960, 540), (960, 540), (960, 540), (960, 540), (960, 540), (960, 540), (960, 540), (960, 540), (960, 540), (960, 540), (960, 540), (960, 540), (960, 540), (960, 541), (960, 541), (959, 542), (959, 542), (958, 542), (958, 542), (957, 543), (957, 543), (957, 543), (957, 543), (956, 543), (956, 544), (956, 544), (956, 544), (956, 544), (956, 544), (956, 544), (956, 544), (956, 544), (955, 544), (955, 545), (954, 545), (954, 545), (954, 546), (952, 547), (949, 550), (947, 552), (946, 555), (945, 556), (942, 562), (938, 565), (935, 570), (932, 575), (929, 582), (926, 586), (924, 589), (923, 593), (920, 599), (919, 603), (919, 604), (918, 606), (917, 608), (917, 609), (917, 609), (917, 609), (917, 609), (917, 610), (917, 610), (917, 611), (917, 612), (917, 612), (917, 612), (917, 612), (917, 613), (917, 614), (917, 614), (917, 615), (919, 616), (920, 616), (921, 616), (921, 617), (923, 617), (923, 617), (923, 617), (923, 617), (923, 617), (923, 617), (923, 617), (923, 617), (923, 617), (923, 617), (923, 617), (923, 617), (923, 617), (923, 617), (923, 617), (923, 617), (923, 617), (923, 617), (923, 617), (923, 617), (923, 617), (923, 617), (923, 617), (923, 617), (923, 617), (923, 617), (923, 617), (923, 617), (923, 617), (923, 617), (923, 617), (923, 617), (923, 617), (923, 617), (923, 617), (923, 617), (923, 617), (923, 617), (923, 617), (923, 617), (923, 617), (923, 618), (923, 621), (923, 622), (923, 625), (923, 628), (923, 630), (924, 632), (928, 640), (931, 645), (935, 649), (939, 654), (952, 664), (957, 669), (963, 675), (970, 681), (981, 690), (988, 695), (995, 702), (1001, 707), (1011, 717), (1015, 723), (1020, 729), (1023, 735), (1034, 748), (1039, 754), (1043, 759), (1048, 765), (1060, 780), (1067, 789), (1071, 796), (1076, 802), (1089, 818), (1096, 827), (1101, 833), (1107, 841), (1116, 853), (1119, 858), (1120, 862), (1126, 868), (1132, 876), (1137, 883), (1141, 888), (1146, 893), (1153, 900)]",61.80374645182951,"[9, 7, 2, 5, 1, 6, 3, 8, 4]","(0, 0.25)",CHN006A,CHN,A,English,Tue Aug 21 12:35:36 2018,Mouse
1,1,1,0,75,2,2,1,989,79,910,139,0,500,200,8000,"[(960, 540), (960, 540), (960, 540), (960, 540), (960, 540), (960, 540), (960, 540), (960, 538), (960, 537), (960, 535), (960, 531), (960, 531), (960, 529), (959, 528), (959, 527), (959, 527), (959, 526), (959, 526), (958, 525), (958, 525), (958, 524), (958, 524), (957, 522), (957, 522), (956, 520), (956, 520), (954, 518), (954, 516), (952, 514), (951, 512), (949, 510), (949, 509), (948, 508), (948, 507), (947, 505), (947, 505), (946, 504), (946, 504), (946, 504), (946, 504), (946, 504), (946, 504), (946, 504), (946, 504), (946, 504), (946, 504), (943, 504), (942, 504), (938, 505), (931, 509), (917, 518), (910, 522), (902, 529), (895, 533), (885, 545), (881, 554), (877, 563), (874, 570), (873, 585), (872, 594), (870, 601), (870, 610), (870, 625), (870, 632), (870, 640), (870, 646), (870, 655), (870, 658), (871, 660), (871, 661), (871, 664), (871, 665), (871, 668), (871, 670), (873, 675), (874, 676), (874, 679), (874, 683), (874, 686), (874, 689), (875, 690), (875, 693), (875, 702), (877, 708), (878, 713), (879, 723), (884, 744), (887, 758), (890, 769), (896, 787), (910, 825), (915, 844), (918, 860), (922, 873), (929, 902), (931, 915), (933, 928), (933, 939), (933, 957)]",93.70462744207713,"[9, 7, 2, 5, 1, 6, 3, 8, 4]","(0, 0.25)",CHN006A,CHN,A,English,Tue Aug 21 12:35:36 2018,Mouse
1,1,1,0,76,3,3,1,470,100,370,139,0,500,200,8000,"[(960, 540), (960, 540), (960, 540), (960, 540), (960, 540), (960, 540), (960, 540), (960, 540), (960, 540), (960, 539), (960, 536), (960, 536), (960, 534), (960, 532), (960, 529), (960, 526), (960, 525), (961, 522), (965, 515), (965, 513), (965, 508), (965, 502), (967, 491), (967, 485), (967, 477), (967, 472), (967, 455), (967, 446), (967, 440), (967, 434), (963, 417), (958, 405), (956, 392), (953, 380), (944, 350), (939, 334), (934, 319), (929, 299), (919, 263), (914, 249), (909, 229), (905, 217), (897, 191), (895, 183), (892, 172), (889, 162), (884, 145)]",259.10909305995676,"[9, 7, 2, 5, 1, 6, 3, 8, 4]","(0, 0.25)",CHN006A,CHN,A,English,Tue Aug 21 12:35:36 2018,Mouse
