NativeLangNumber,LanuageNumber,SessionNumber,Block,TrialNum,ConditionNumber,Response,Accuracy,RT,MovementOnsetTime,TimeInMotion,SignalContrast,SignalContrastNumber,StimDisplayTime,MaskTime,MaxResponseTime,MousePositionXY,MouseAngle,WheelOrder,NoiseMuSigma,ParticipantID,LanuageTested,SessionTested,NativeLanuage,Date,ResponseDevice
1,1,3,0,1,7,7,1,403,303,100,153,0,500,200,8000,"[(960, 540), (960, 540), (960, 540), (960, 540), (960, 540), (960, 540), (960, 540), (960, 540), (960, 540), (960, 540), (960, 540), (960, 540), (960, 540), (960, 540), (960, 540), (960, 540), (960, 540), (960, 540), (960, 540), (960, 540), (960, 540), (960, 540), (960, 540), (960, 540), (960, 540), (960, 540), (960, 540), (960, 540), (960, 540), (960, 540), (968, 537), (975, 532), (988, 525), (1000, 520), (1063, 494), (1100, 478), (1138, 461), (1178, 444), (1263, 409), (1303, 392), (1345, 374)]",336.67580039958165,"[9, 8, 4, 6, 5, 3, 1, 2, 7]","(0, 0.25)",CHN008C,CHN,C,English,Thu Aug 30 11:12:38 2018,Mouse
1,1,3,0,2,4,4,1,671,321,350,153,0,500,200,8000,"[(960, 540), (960, 540), (960, 540), (960, 540), (960, 540), (960, 540), (960, 540), (960, 540), (960, 540), (960, 540), (960, 540), (960, 540), (960, 540), (960, 540), (960, 540), (960, 540), (960, 540), (960, 540), (960, 540), (960, 540), (960, 540), (960, 540), (960, 540), (960, 540), (960, 540), (960, 540), (960, 540), (960, 540), (960, 540), (960, 540), (960, 540), (960, 540), (959, 542), (959, 543), (959, 544), (959, 545), (958, 546), (958, 546), (958, 547), (958, 548), (958, 549), (957, 551), (957, 553), (956, 556), (955, 559), (953, 566), (953, 569), (951, 573), (950, 576), (947, 587), (944, 594), (940, 605), (936, 614), (928, 639), (926, 650), (921, 668), (918, 689), (910, 724), (906, 743), (901, 760), (899, 773), (889, 800), (886, 817), (880, 836), (877, 857), (870, 903), (870, 925), (869, 943)]",102.72435568542238,"[9, 8, 4, 6, 5, 3, 1, 2, 7]","(0, 0.25)",CHN008C,CHN,C,English,Thu Aug 30 11:12:38 2018,Mouse
1,1,3,0,3,8,8,1,490,330,160,152,0,500,200,8000,"[(960, 540), (960, 540), (960, 540), (960, 540), (960, 540), (960, 540), (960, 540), (960, 540), (960, 540), (960, 540), (960, 540), (960, 540), (960, 540), (960, 540), (960, 540), (960, 540), (960, 540), (960, 540), (960, 540), (960, 540), (960, 540), (960, 540), (960, 540), (960, 540), (960, 540), (960, 540), (960, 540), (960, 540), (960, 540), (960, 540), (960, 540), (960, 540), (959, 543), (959, 548), (959, 558), (964, 569), (983, 601), (999, 626), (1015, 649), (1029, 668), (1058, 708), (1074, 731), (1089, 749), (1098, 763), (1121, 794), (1134, 812), (1147, 833), (1162, 860), (1189, 907)]",58.036735710705294,"[9, 8, 4, 6, 5, 3, 1, 2, 7]","(0, 0.25)",CHN008C,CHN,C,English,Thu Aug 30 11:12:38 2018,Mouse
1,1,3,0,4,8,8,1,290,20,270,151,0,500,200,8000,"[(960, 542), (960, 549), (960, 554), (960, 557), (962, 560), (965, 566), (966, 568), (966, 569), (967, 571), (969, 573), (969, 573), (969, 576), (970, 578), (977, 587), (977, 590), (981, 596), (984, 601), (989, 612), (993, 619), (997, 625), (1001, 633), (1014, 654), (1023, 669), (1041, 695), (1065, 726), (1114, 793), (1138, 829), (1157, 855), (1172, 880)]",58.0552472237966,"[9, 8, 4, 6, 5, 3, 1, 2, 7]","(0, 0.25)",CHN008C,CHN,C,English,Thu Aug 30 11:12:38 2018,Mouse
1,1,3,0,5,6,4,0,-309,129,180,150,0,500,200,8000,"[(960, 540), (960, 540), (960, 540), (960, 540), (960, 540), (960, 540), (960, 540), (960, 540), (960, 540), (960, 540), (960, 540), (960, 540), (958, 541), (958, 541), (958, 544), (957, 548), (956, 550), (955, 553), (954, 556), (952, 563), (950, 569), (948, 574), (945, 581), (939, 601), (933, 619), (930, 645), (922, 697), (902, 811), (883, 875), (869, 925), (857, 966)]",103.59234481602962,"[9, 8, 4, 6, 5, 3, 1, 2, 7]","(0, 0.25)",CHN008C,CHN,C,English,Thu Aug 30 11:12:38 2018,Mouse
1,1,3,0,6,1,1,1,399,279,120,151,0,500,200,8000,"[(960, 540), (960, 540), (960, 540), (960, 540), (960, 540), (960, 540), (960, 540), (960, 540), (960, 540), (960, 540), (960, 540), (960, 540), (960, 540), (960, 540), (960, 540), (960, 540), (960, 540), (960, 540), (960, 540), (960, 540), (960, 540), (960, 540), (960, 540), (960, 540), (960, 540), (960, 540), (960, 540), (960, 539), (959, 526), (957, 517), (952, 504), (948, 491), (933, 445), (919, 401), (904, 353), (892, 309), (873, 240), (864, 204), (856, 160), (849, 117)]",255.2964481762384,"[9, 8, 4, 6, 5, 3, 1, 2, 7]","(0, 0.25)",CHN008C,CHN,C,English,Thu Aug 30 11:12:38 2018,Mouse
1,1,3,0,7,3,3,1,881,761,120,151,0,500,200,8000,"[(960, 540), (960, 540), (960, 540), (960, 540), (960, 540), (960, 540), (960, 540), (960, 540), (960, 540), (960, 540), (960, 540), (960, 540), (960, 540), (960, 540), (960, 540), (960, 540), (960, 540), (960, 540), (960, 540), (960, 540), (960, 540), (960, 540), (960, 540), (960, 540), (960, 540), (960, 540), (960, 540), (960, 540), (960, 540), (960, 540), (960, 540), (960, 540), (960, 540), (960, 540), (960, 540), (960, 540), (960, 540), (960, 540), (960, 540), (960, 540), (960, 540), (960, 540), (960, 540), (960, 540), (960, 540), (960, 540), (960, 540), (960, 540), (960, 540), (960, 540), (960, 540), (960, 540), (960, 540), (960, 540), (960, 540), (960, 540), (960, 540), (960, 540), (960, 540), (960, 540), (960, 540), (960, 540), (960, 540), (960, 540), (960, 540), (960, 540), (960, 540), (960, 540), (960, 540), (960, 540), (960, 540), (960, 540), (960, 540), (960, 540), (960, 540), (960, 540), (960, 535), (950, 520), (934, 500), (913, 478), (874, 438), (852, 414), (836, 398), (813, 378), (769, 343), (746, 321), (721, 304), (695, 285), (650, 253)]",222.79371603704834,"[9, 8, 4, 6, 5, 3, 1, 2, 7]","(0, 0.25)",CHN008C,CHN,C,English,Thu Aug 30 11:12:38 2018,Mouse
1,1,3,0,8,4,4,1,451,61,390,150,0,500,200,8000,"[(960, 540), (960, 540), (960, 540), (960, 540), (960, 540), (960, 540), (960, 541), (960, 543), (960, 543), (960, 543), (960, 543), (960, 543), (960, 543), (960, 544), (960, 545), (960, 546), (960, 548), (960, 549), (960, 553), (959, 557), (958, 561), (957, 567), (956, 573), (952, 585), (951, 590), (948, 599), (945, 607), (940, 627), (937, 638), (933, 651), (931, 663), (930, 688), (930, 703), (930, 717), (930, 732), (930, 761), (930, 773), (929, 787), (929, 800), (925, 832), (924, 853), (924, 870), (924, 887), (921, 917), (918, 930), (917, 940)]",96.13573334018679,"[9, 8, 4, 6, 5, 3, 1, 2, 7]","(0, 0.25)",CHN008C,CHN,C,English,Thu Aug 30 11:12:38 2018,Mouse
1,1,3,0,9,3,3,1,801,361,440,149,0,500,200,8000,"[(960, 540), (960, 540), (960, 540), (960, 540), (960, 540), (960, 540), (960, 540), (960, 540), (960, 540), (960, 540), (960, 540), (960, 540), (960, 540), (960, 540), (960, 540), (960, 540), (960, 540), (960, 540), (960, 540), (960, 540), (960, 540), (960, 540), (960, 540), (960, 540), (960, 540), (960, 540), (960, 540), (960, 540), (960, 540), (960, 540), (960, 540), (960, 540), (960, 540), (960, 540), (960, 540), (960, 540), (961, 540), (964, 534), (966, 530), (968, 527), (974, 520), (980, 512), (983, 508), (985, 505), (985, 504), (987, 502), (987, 502), (987, 502), (987, 502), (987, 502), (987, 502), (987, 502), (987, 502), (987, 502), (987, 502), (987, 502), (987, 502), (987, 502), (987, 502), (987, 502), (987, 502), (987, 502), (985, 500), (977, 497), (967, 495), (947, 486), (937, 484), (927, 481), (914, 475), (896, 467), (886, 459), (877, 452), (859, 438), (812, 396), (785, 371), (765, 353), (743, 332), (702, 297), (681, 280), (670, 267), (660, 258)]",223.2285302599659,"[9, 8, 4, 6, 5, 3, 1, 2, 7]","(0, 0.25)",CHN008C,CHN,C,English,Thu Aug 30 11:12:38 2018,Mouse
1,1,3,0,10,9,9,1,590,270,320,148,0,500,200,8000,"[(960, 540), (960, 540), (960, 540), (960, 540), (960, 540), (960, 540), (960, 540), (960, 540), (960, 540), (960, 540), (960, 540), (960, 540), (960, 540), (960, 540), (960, 540), (960, 540), (960, 540), (960, 540), (960, 540), (960, 540), (960, 540), (960, 540), (960, 540), (960, 540), (960, 540), (960, 540), (962, 543), (966, 548), (966, 549), (969, 552), (969, 552), (970, 553), (971, 554), (971, 554), (971, 554), (971, 554), (971, 554), (971, 554), (972, 555), (972, 555), (972, 555), (972, 556), (973, 557), (974, 558), (975, 559), (976, 559), (981, 562), (986, 562), (994, 567), (1004, 569), (1037, 579), (1056, 583), (1086, 592), (1119, 597), (1195, 613), (1236, 623), (1286, 634), (1336, 638), (1391, 646)]",13.817080352899952,"[9, 8, 4, 6, 5, 3, 1, 2, 7]","(0, 0.25)",CHN008C,CHN,C,English,Thu Aug 30 11:12:38 2018,Mouse
1,1,3,0,11,4,4,1,490,110,380,147,0,500,200,8000,"[(960, 540), (960, 540), (960, 540), (960, 540), (960, 540), (960, 540), (960, 540), (960, 540), (960, 540), (960, 540), (960, 541), (960, 542), (960, 542), (960, 543), (960, 543), (960, 544), (960, 544), (960, 545), (960, 546), (960, 546), (960, 546), (959, 547), (958, 549), (958, 549), (957, 551), (956, 553), (955, 554), (955, 555), (954, 557), (954, 558), (953, 562), (953, 562), (953, 563), (953, 567), (952, 574), (950, 580), (948, 586), (946, 592), (939, 609), (934, 620), (928, 635), (921, 665), (899, 748), (889, 794), (885, 831), (880, 866), (875, 906), (875, 921), (875, 934)]",102.17418281648466,"[9, 8, 4, 6, 5, 3, 1, 2, 7]","(0, 0.25)",CHN008C,CHN,C,English,Thu Aug 30 11:12:38 2018,Mouse
1,1,3,0,12,2,2,1,688,568,120,146,0,500,200,8000,"[(960, 540), (960, 540), (960, 540), (960, 540), (960, 540), (960, 540), (960, 540), (960, 540), (960, 540), (960, 540), (960, 540), (960, 540), (960, 540), (960, 540), (960, 540), (960, 540), (960, 540), (960, 540), (960, 540), (960, 540), (960, 540), (960, 540), (960, 540), (960, 540), (960, 540), (960, 540), (960, 540), (960, 540), (960, 540), (960, 540), (960, 540), (960, 540), (960, 540), (960, 540), (960, 540), (960, 540), (960, 540), (960, 540), (960, 540), (960, 540), (960, 540), (960, 540), (960, 540), (960, 540), (960, 540), (960, 540), (960, 540), (960, 540), (960, 540), (960, 540), (960, 540), (960, 540), (960, 540), (960, 540), (960, 540), (960, 540), (961, 538), (965, 530), (968, 522), (973, 514), (979, 502), (1000, 467), (1009, 446), (1029, 413), (1052, 375), (1110, 289), (1138, 248), (1165, 211), (1194, 174)]",302.59258147259925,"[9, 8, 4, 6, 5, 3, 1, 2, 7]","(0, 0.25)",CHN008C,CHN,C,English,Thu Aug 30 11:12:38 2018,Mouse
1,1,3,0,13,6,6,1,442,22,420,145,0,500,200,8000,"[(958, 544), (958, 544), (956, 547), (956, 548), (954, 551), (953, 553), (953, 553), (951, 556), (950, 560), (949, 561), (947, 565), (946, 567), (943, 572), (941, 575), (941, 577), (940, 578), (938, 581), (935, 585), (934, 586), (932, 588), (928, 592), (927, 593), (925, 596), (922, 599), (910, 608), (901, 615), (890, 622), (880, 629), (860, 643), (850, 649), (840, 655), (830, 660), (812, 669), (802, 673), (792, 680), (782, 686), (763, 699), (754, 706), (745, 712), (736, 719), (717, 739), (702, 753), (689, 766), (673, 784), (635, 822)]",139.05207517303901,"[9, 8, 4, 6, 5, 3, 1, 2, 7]","(0, 0.25)",CHN008C,CHN,C,English,Thu Aug 30 11:12:38 2018,Mouse
1,1,3,0,14,9,7,0,-1880,1120,760,144,0,500,200,8000,"[(960, 540), (960, 540), (960, 540), (960, 540), (960, 540), (960, 540), (960, 540), (960, 540), (960, 540), (960, 540), (960, 540), (960, 540), (960, 540), (960, 540), (960, 540), (960, 540), (960, 540), (960, 540), (960, 540), (960, 540), (960, 540), (960, 540), (960, 540), (960, 540), (960, 540), (960, 540), (960, 540), (960, 540), (960, 540), (960, 540), (960, 540), (960, 540), (960, 540), (960, 540), (960, 540), (960, 540), (960, 540), (960, 540), (960, 540), (960, 540), (960, 540), (960, 540), (960, 540), (960, 540), (960, 540), (960, 540), (960, 540), (960, 540), (960, 540), (960, 540), (960, 540), (960, 540), (960, 540), (960, 540), (960, 540), (960, 540), (960, 540), (960, 540), (960, 540), (960, 540), (960, 540), (960, 540), (960, 540), (960, 540), (960, 540), (960, 540), (960, 540), (960, 540), (960, 540), (960, 540), (960, 540), (960, 540), (960, 540), (960, 540), (960, 540), (960, 540), (960, 540), (960, 540), (960, 540), (960, 540), (960, 540), (960, 540), (960, 540), (960, 540), (960, 540), (960, 540), (960, 540), (960, 540), (960, 540), (960, 540), (960, 540), (960, 540), (960, 540), (960, 540), (960, 540), (960, 540), (960, 540), (960, 540), (960, 540), (960, 540), (960, 540), (960, 540), (960, 540), (960, 540), (960, 540), (960, 540), (960, 540), (960, 540), (960, 540), (960, 540), (960, 540), (961, 540), (961, 540), (962, 540), (962, 540), (962, 540), (962, 540), (962, 540), (962, 540), (962, 540), (962, 540), (962, 540), (962, 540), (962, 540), (962, 540), (962, 540), (962, 540), (962, 540), (962, 540), (962, 540), (962, 540), (962, 540), (962, 540), (962, 540), (962, 540), (962, 540), (962, 540), (962, 540), (962, 540), (962, 540), (962, 540), (962, 540), (962, 540), (962, 540), (962, 540), (962, 540), (962, 540), (962, 540), (962, 540), (962, 540), (962, 540), (962, 540), (962, 540), (962, 540), (962, 540), (962, 540), (962, 540), (962, 540), (962, 540), (962, 540), (962, 540), (962, 540), (962, 540), (962, 540), (962, 540), (962, 540), (962, 540), (962, 540), (962, 540), (962, 540), (962, 540), (962, 540), (962, 540), (962, 540), (962, 540), (962, 540), (962, 540), (962, 540), (967, 538), (974, 535), (985, 533), (1001, 522), (1060, 493), (1103, 469), (1150, 445), (1204, 418), (1313, 381), (1365, 365)]",336.6308868365179,"[9, 8, 4, 6, 5, 3, 1, 2, 7]","(0, 0.25)",CHN008C,CHN,C,English,Thu Aug 30 11:12:38 2018,Mouse
1,1,3,0,15,9,9,1,611,231,380,145,0,500,200,8000,"[(960, 540), (960, 540), (960, 540), (960, 540), (960, 540), (960, 540), (960, 540), (960, 540), (960, 540), (960, 540), (960, 540), (960, 540), (960, 540), (960, 540), (960, 540), (960, 540), (960, 540), (960, 540), (960, 540), (960, 540), (960, 540), (960, 540), (960, 540), (960, 542), (961, 543), (964, 544), (970, 546), (973, 547), (975, 548), (976, 548), (980, 549), (980, 549), (981, 549), (982, 549), (982, 549), (982, 549), (982, 549), (982, 549), (982, 549), (982, 549), (982, 549), (982, 549), (982, 549), (984, 550), (986, 551), (988, 554), (997, 560), (1002, 565), (1011, 571), (1021, 578), (1044, 594), (1058, 601), (1074, 611), (1092, 619), (1130, 635), (1157, 646), (1192, 663), (1227, 681), (1281, 712), (1297, 720), (1308, 725), (1319, 730)]",27.889937640546986,"[9, 8, 4, 6, 5, 3, 1, 2, 7]","(0, 0.25)",CHN008C,CHN,C,English,Thu Aug 30 11:12:38 2018,Mouse
1,1,3,0,16,5,5,1,810,230,580,145,0,500,200,8000,"[(960, 540), (960, 540), (960, 540), (960, 540), (960, 540), (960, 540), (960, 540), (960, 540), (960, 540), (960, 540), (960, 540), (960, 540), (960, 540), (960, 540), (960, 540), (960, 540), (960, 540), (960, 540), (960, 540), (960, 540), (960, 540), (960, 540), (958, 541), (957, 541), (956, 543), (955, 543), (952, 543), (951, 543), (949, 544), (948, 544), (945, 544), (944, 544), (942, 544), (941, 544), (940, 544), (938, 544), (938, 544), (938, 544), (937, 544), (937, 544), (937, 544), (937, 544), (937, 544), (937, 544), (936, 544), (935, 544), (933, 544), (931, 544), (929, 544), (929, 544), (926, 544), (922, 544), (921, 544), (919, 544), (918, 544), (918, 544), (917, 544), (917, 544), (917, 544), (917, 544), (917, 544), (917, 544), (915, 544), (914, 544), (911, 544), (909, 544), (904, 544), (900, 544), (894, 544), (887, 544), (871, 544), (860, 544), (846, 544), (830, 544), (791, 544), (760, 544), (732, 544), (699, 544), (626, 544), (590, 544), (551, 544)]",179.43966794243232,"[9, 8, 4, 6, 5, 3, 1, 2, 7]","(0, 0.25)",CHN008C,CHN,C,English,Thu Aug 30 11:12:38 2018,Mouse
1,1,3,0,17,9,9,1,360,70,290,144,0,500,200,8000,"[(960, 540), (960, 540), (960, 540), (960, 540), (960, 540), (960, 540), (963, 541), (966, 544), (979, 550), (985, 553), (992, 554), (1001, 556), (1013, 559), (1017, 560), (1021, 560), (1026, 561), (1028, 561), (1029, 561), (1031, 561), (1031, 561), (1034, 562), (1035, 562), (1038, 562), (1042, 563), (1057, 566), (1065, 567), (1076, 568), (1096, 572), (1136, 581), (1161, 589), (1192, 597), (1223, 606), (1288, 630), (1317, 642), (1340, 651), (1372, 666)]",17.00495469619169,"[9, 8, 4, 6, 5, 3, 1, 2, 7]","(0, 0.25)",CHN008C,CHN,C,English,Thu Aug 30 11:12:38 2018,Mouse
1,1,3,0,18,5,5,1,528,358,170,143,0,500,200,8000,"[(960, 540), (960, 540), (960, 540), (960, 540), (960, 540), (960, 540), (960, 540), (960, 540), (960, 540), (960, 540), (960, 540), (960, 540), (960, 540), (960, 540), (960, 540), (960, 540), (960, 540), (960, 540), (960, 540), (960, 540), (960, 540), (960, 540), (960, 540), (960, 540), (960, 540), (960, 540), (960, 540), (960, 540), (960, 540), (960, 540), (960, 540), (960, 540), (960, 540), (960, 540), (960, 540), (958, 540), (952, 540), (945, 540), (939, 540), (932, 541), (916, 541), (904, 541), (890, 541), (874, 541), (826, 541), (798, 541), (768, 541), (731, 541), (662, 541), (628, 541), (601, 541), (578, 541), (552, 541)]",179.8595694490627,"[9, 8, 4, 6, 5, 3, 1, 2, 7]","(0, 0.25)",CHN008C,CHN,C,English,Thu Aug 30 11:12:38 2018,Mouse
1,1,3,0,19,1,1,1,421,21,400,142,0,500,200,8000,"[(960, 540), (960, 540), (959, 540), (958, 540), (958, 540), (958, 540), (958, 540), (958, 540), (958, 540), (958, 540), (958, 540), (958, 540), (958, 540), (958, 540), (958, 540), (958, 540), (958, 540), (958, 540), (958, 540), (958, 540), (958, 540), (958, 540), (958, 540), (958, 540), (958, 540), (958, 540), (958, 540), (958, 540), (958, 540), (958, 539), (958, 538), (958, 534), (958, 528), (958, 521), (958, 510), (952, 476), (944, 451), (935, 420), (921, 368), (877, 242), (859, 194), (850, 156), (845, 134)]",254.18516066237277,"[9, 8, 4, 6, 5, 3, 1, 2, 7]","(0, 0.25)",CHN008C,CHN,C,English,Thu Aug 30 11:12:38 2018,Mouse
1,1,3,0,20,2,2,1,480,210,270,141,0,500,200,8000,"[(960, 540), (960, 540), (960, 540), (960, 540), (960, 540), (960, 540), (960, 540), (960, 540), (960, 540), (960, 540), (960, 540), (960, 540), (960, 540), (960, 540), (960, 540), (960, 540), (960, 540), (960, 540), (960, 540), (960, 540), (961, 540), (964, 538), (967, 533), (971, 526), (972, 524), (977, 516), (985, 510), (996, 499), (1000, 496), (1006, 489), (1010, 484), (1023, 469), (1030, 462), (1038, 453), (1044, 444), (1056, 426), (1062, 415), (1070, 400), (1073, 383), (1082, 340), (1087, 313), (1090, 282), (1095, 257), (1096, 217), (1099, 199), (1099, 187), (1102, 177), (1104, 160)]",290.7540713187994,"[9, 8, 4, 6, 5, 3, 1, 2, 7]","(0, 0.25)",CHN008C,CHN,C,English,Thu Aug 30 11:12:38 2018,Mouse
1,1,3,0,21,9,9,1,450,150,300,140,0,500,200,8000,"[(960, 540), (960, 540), (960, 540), (960, 540), (960, 540), (960, 540), (960, 540), (960, 540), (960, 540), (960, 540), (960, 540), (960, 540), (960, 540), (960, 540), (961, 544), (962, 545), (962, 545), (963, 546), (966, 548), (968, 549), (970, 551), (973, 551), (980, 555), (983, 556), (986, 556), (991, 558), (998, 560), (1004, 563), (1009, 565), (1016, 569), (1035, 576), (1046, 581), (1053, 584), (1064, 590), (1092, 597), (1112, 606), (1131, 614), (1151, 621), (1183, 633), (1203, 639), (1229, 650), (1250, 661), (1292, 678), (1312, 686), (1331, 691)]",22.146720620071026,"[9, 8, 4, 6, 5, 3, 1, 2, 7]","(0, 0.25)",CHN008C,CHN,C,English,Thu Aug 30 11:12:38 2018,Mouse
1,1,3,0,22,1,1,1,380,150,230,139,0,500,200,8000,"[(960, 540), (960, 540), (960, 540), (960, 540), (960, 540), (960, 540), (960, 540), (960, 540), (960, 540), (960, 540), (960, 540), (960, 540), (960, 540), (960, 540), (959, 538), (959, 537), (959, 534), (959, 533), (958, 530), (957, 523), (957, 519), (955, 513), (954, 506), (953, 497), (950, 477), (949, 465), (948, 453), (941, 419), (933, 385), (922, 352), (909, 313), (892, 267), (885, 249), (876, 229), (870, 213), (856, 178), (851, 165), (849, 154)]",253.95662919540428,"[9, 8, 4, 6, 5, 3, 1, 2, 7]","(0, 0.25)",CHN008C,CHN,C,English,Thu Aug 30 11:12:38 2018,Mouse
1,1,3,0,23,2,2,1,451,261,190,138,0,500,200,8000,"[(960, 540), (960, 540), (960, 540), (960, 540), (960, 540), (960, 540), (960, 540), (960, 540), (960, 540), (960, 540), (960, 540), (960, 540), (960, 540), (960, 540), (960, 540), (960, 540), (960, 540), (960, 540), (960, 540), (960, 540), (960, 540), (960, 540), (960, 540), (960, 540), (960, 540), (960, 540), (960, 541), (962, 540), (964, 538), (971, 531), (976, 526), (979, 522), (984, 516), (993, 505), (999, 496), (1006, 486), (1011, 477), (1023, 450), (1034, 426), (1043, 403), (1061, 358), (1095, 283), (1107, 254), (1118, 228), (1128, 202), (1143, 156)]",295.4807179477895,"[9, 8, 4, 6, 5, 3, 1, 2, 7]","(0, 0.25)",CHN008C,CHN,C,English,Thu Aug 30 11:12:38 2018,Mouse
1,1,3,0,24,2,2,1,391,201,190,137,0,500,200,8000,"[(960, 540), (960, 540), (960, 540), (960, 540), (960, 540), (960, 540), (960, 540), (960, 540), (960, 540), (960, 540), (960, 540), (960, 540), (960, 540), (960, 540), (960, 540), (960, 540), (960, 540), (960, 540), (960, 540), (960, 540), (961, 540), (962, 540), (966, 535), (973, 526), (979, 518), (987, 507), (995, 498), (1021, 460), (1031, 446), (1044, 429), (1059, 411), (1086, 378), (1103, 360), (1115, 345), (1126, 333), (1149, 292), (1158, 269), (1164, 244), (1169, 220), (1174, 183)]",300.94014887806827,"[9, 8, 4, 6, 5, 3, 1, 2, 7]","(0, 0.25)",CHN008C,CHN,C,English,Thu Aug 30 11:12:38 2018,Mouse
1,1,3,0,25,7,7,1,640,240,400,136,0,500,200,8000,"[(960, 540), (960, 540), (960, 540), (960, 540), (960, 540), (960, 540), (960, 540), (960, 540), (960, 540), (960, 540), (960, 540), (960, 540), (960, 540), (960, 540), (960, 540), (960, 540), (960, 540), (960, 540), (960, 540), (960, 540), (960, 540), (960, 540), (960, 540), (959, 540), (959, 540), (959, 540), (959, 540), (959, 540), (959, 540), (959, 540), (959, 540), (959, 540), (959, 540), (959, 540), (959, 540), (959, 540), (959, 540), (959, 540), (959, 540), (959, 540), (959, 540), (959, 540), (959, 540), (958, 540), (959, 540), (964, 539), (970, 539), (988, 539), (1000, 539), (1011, 538), (1025, 536), (1056, 531), (1071, 529), (1090, 524), (1107, 519), (1140, 505), (1162, 492), (1188, 482), (1214, 471), (1263, 445), (1287, 432), (1306, 419), (1324, 406), (1350, 386)]",338.45233455673855,"[9, 8, 4, 6, 5, 3, 1, 2, 7]","(0, 0.25)",CHN008C,CHN,C,English,Thu Aug 30 11:12:38 2018,Mouse
1,1,3,0,26,6,6,1,779,289,490,135,0,500,200,8000,"[(960, 540), (960, 540), (960, 540), (960, 540), (960, 540), (960, 540), (960, 540), (960, 540), (960, 540), (960, 540), (960, 540), (960, 540), (960, 540), (960, 540), (960, 540), (960, 540), (960, 540), (960, 540), (960, 540), (960, 540), (960, 540), (960, 540), (960, 540), (960, 540), (960, 540), (960, 540), (960, 540), (960, 540), (960, 541), (959, 541), (958, 544), (958, 544), (957, 544), (957, 545), (956, 546), (956, 547), (956, 548), (955, 549), (955, 549), (955, 549), (955, 549), (955, 549), (955, 549), (955, 549), (955, 549), (955, 549), (955, 549), (955, 549), (955, 549), (954, 550), (953, 551), (953, 552), (952, 553), (951, 554), (950, 555), (947, 558), (944, 560), (939, 564), (928, 572), (918, 577), (912, 580), (901, 586), (885, 596), (875, 601), (859, 613), (840, 625), (814, 643), (804, 651), (794, 659), (780, 669), (747, 690), (730, 703), (708, 715), (693, 728), (666, 747), (654, 755), (644, 765), (635, 774)]",144.24611274556327,"[9, 8, 4, 6, 5, 3, 1, 2, 7]","(0, 0.25)",CHN008C,CHN,C,English,Thu Aug 30 11:12:38 2018,Mouse
1,1,3,0,27,6,6,1,570,370,200,134,0,500,200,8000,"[(960, 540), (960, 540), (960, 540), (960, 540), (960, 540), (960, 540), (960, 540), (960, 540), (960, 540), (960, 540), (960, 540), (960, 540), (960, 540), (960, 540), (960, 540), (960, 540), (960, 540), (960, 540), (960, 540), (960, 540), (960, 540), (960, 540), (960, 540), (960, 540), (960, 540), (960, 540), (960, 540), (960, 540), (960, 540), (960, 540), (960, 540), (960, 540), (960, 540), (960, 540), (960, 540), (960, 540), (959, 540), (957, 540), (954, 542), (948, 546), (946, 547), (943, 549), (938, 552), (926, 557), (920, 561), (912, 564), (902, 568), (885, 579), (872, 588), (857, 600), (823, 624), (758, 675), (729, 700), (706, 718), (688, 741), (649, 775), (631, 790)]",142.7695818781093,"[9, 8, 4, 6, 5, 3, 1, 2, 7]","(0, 0.25)",CHN008C,CHN,C,English,Thu Aug 30 11:12:38 2018,Mouse
1,1,3,0,28,4,4,1,350,160,190,133,0,500,200,8000,"[(960, 540), (960, 540), (960, 540), (960, 540), (960, 540), (960, 540), (960, 540), (960, 540), (960, 540), (960, 540), (960, 540), (960, 540), (960, 540), (960, 540), (960, 540), (960, 543), (960, 544), (960, 551), (960, 553), (960, 556), (959, 559), (958, 566), (958, 572), (957, 578), (955, 585), (953, 608), (944, 633), (936, 666), (927, 696), (904, 764), (901, 785), (898, 811), (896, 843), (896, 915), (896, 940)]",99.09027692082232,"[9, 8, 4, 6, 5, 3, 1, 2, 7]","(0, 0.25)",CHN008C,CHN,C,English,Thu Aug 30 11:12:38 2018,Mouse
1,1,3,0,29,1,1,1,290,130,160,132,0,500,200,8000,"[(960, 540), (960, 540), (960, 540), (960, 540), (960, 540), (960, 540), (960, 540), (960, 540), (960, 540), (960, 540), (960, 540), (960, 540), (960, 536), (960, 532), (960, 527), (960, 523), (957, 515), (956, 511), (954, 505), (954, 500), (952, 485), (951, 473), (947, 457), (947, 435), (935, 335), (928, 286), (920, 243), (916, 200), (905, 120)]",262.5394338738316,"[9, 8, 4, 6, 5, 3, 1, 2, 7]","(0, 0.25)",CHN008C,CHN,C,English,Thu Aug 30 11:12:38 2018,Mouse
1,1,3,0,30,8,1,0,-351,241,110,131,0,500,200,8000,"[(960, 540), (960, 540), (960, 540), (960, 540), (960, 540), (960, 540), (960, 540), (960, 540), (960, 540), (960, 540), (960, 540), (960, 540), (960, 540), (960, 540), (960, 540), (960, 540), (960, 540), (960, 540), (960, 540), (960, 540), (960, 540), (960, 540), (960, 540), (960, 540), (960, 539), (960, 532), (960, 524), (957, 503), (956, 491), (956, 477), (956, 459), (949, 387), (942, 325), (934, 252), (926, 193), (912, 85)]",263.97788438033564,"[9, 8, 4, 6, 5, 3, 1, 2, 7]","(0, 0.25)",CHN008C,CHN,C,English,Thu Aug 30 11:12:38 2018,Mouse
1,1,3,0,31,9,9,1,880,570,310,132,0,500,200,8000,"[(960, 540), (960, 540), (960, 540), (960, 540), (960, 540), (960, 540), (960, 540), (960, 540), (960, 540), (960, 540), (960, 540), (960, 540), (960, 540), (960, 540), (960, 540), (960, 540), (960, 540), (960, 540), (960, 540), (960, 540), (960, 540), (960, 540), (960, 540), (960, 540), (960, 540), (960, 540), (960, 540), (960, 540), (960, 540), (960, 540), (960, 540), (960, 540), (960, 540), (960, 540), (960, 540), (960, 540), (960, 540), (960, 540), (960, 540), (960, 540), (960, 540), (960, 540), (960, 540), (960, 540), (960, 540), (960, 540), (960, 540), (960, 540), (960, 540), (960, 540), (960, 540), (960, 540), (960, 540), (960, 540), (960, 540), (960, 540), (960, 541), (961, 547), (965, 551), (981, 562), (990, 567), (999, 573), (1006, 577), (1020, 582), (1023, 583), (1028, 586), (1031, 586), (1034, 588), (1035, 588), (1038, 590), (1039, 590), (1044, 592), (1046, 594), (1051, 596), (1059, 598), (1076, 601), (1084, 604), (1094, 605), (1107, 606), (1146, 617), (1164, 620), (1195, 629), (1225, 635), (1278, 651), (1300, 657), (1315, 662), (1331, 666), (1353, 671)]",18.43494882292201,"[9, 8, 4, 6, 5, 3, 1, 2, 7]","(0, 0.25)",CHN008C,CHN,C,English,Thu Aug 30 11:12:38 2018,Mouse
1,1,3,0,32,1,6,0,-801,11,790,132,0,500,200,8000,"[(960, 540), (960, 539), (960, 539), (960, 539), (960, 539), (960, 539), (960, 538), (960, 538), (960, 538), (960, 538), (960, 538), (960, 538), (960, 538), (960, 538), (960, 538), (960, 538), (960, 538), (960, 538), (960, 538), (960, 538), (960, 538), (960, 538), (960, 538), (960, 538), (960, 538), (960, 538), (960, 538), (960, 538), (960, 538), (960, 538), (960, 538), (960, 538), (960, 538), (960, 538), (960, 538), (960, 538), (960, 538), (960, 538), (960, 538), (960, 538), (960, 538), (960, 538), (960, 538), (960, 538), (960, 538), (960, 538), (960, 538), (960, 538), (960, 538), (960, 538), (959, 538), (957, 541), (955, 546), (953, 549), (950, 554), (942, 565), (941, 568), (937, 573), (936, 578), (931, 585), (928, 588), (927, 590), (924, 594), (921, 598), (918, 600), (916, 602), (914, 604), (909, 609), (904, 613), (899, 615), (892, 619), (873, 627), (860, 633), (848, 639), (833, 645), (791, 666), (767, 677), (736, 699), (701, 720), (642, 758), (619, 780)]",144.86164512283216,"[9, 8, 4, 6, 5, 3, 1, 2, 7]","(0, 0.25)",CHN008C,CHN,C,English,Thu Aug 30 11:12:38 2018,Mouse
1,1,3,0,33,5,3,0,-1110,20,1090,133,0,500,200,8000,"[(960, 540), (960, 539), (961, 539), (961, 539), (961, 539), (961, 538), (961, 538), (962, 537), (962, 537), (962, 537), (962, 537), (962, 537), (962, 537), (962, 537), (962, 537), (962, 537), (962, 537), (962, 537), (962, 537), (962, 537), (962, 537), (962, 537), (962, 537), (962, 537), (962, 537), (962, 537), (962, 537), (962, 537), (962, 537), (962, 537), (962, 537), (962, 537), (962, 537), (962, 537), (962, 537), (962, 537), (962, 535), (962, 534), (962, 533), (962, 532), (962, 532), (963, 528), (964, 527), (965, 524), (966, 519), (967, 516), (968, 513), (969, 510), (970, 509), (972, 504), (973, 502), (974, 498), (978, 492), (985, 477), (999, 461), (1016, 436), (1035, 415), (1068, 367), (1081, 348), (1100, 322), (1118, 299), (1137, 271), (1144, 259), (1150, 251), (1153, 246), (1154, 241), (1154, 241), (1154, 241), (1154, 241), (1154, 241), (1154, 241), (1154, 241), (1154, 241), (1154, 241), (1154, 241), (1154, 241), (1154, 242), (1143, 246), (1138, 250), (1132, 253), (1128, 256), (1113, 261), (1106, 265), (1101, 267), (1098, 268), (1090, 272), (1088, 273), (1087, 275), (1085, 275), (1082, 277), (1080, 278), (1078, 280), (1075, 282), (1064, 288), (1054, 294), (1045, 297), (1037, 300), (1017, 309), (1004, 311), (990, 316), (971, 320), (914, 323), (881, 323), (850, 323), (817, 323), (758, 323), (725, 323), (702, 323), (680, 323), (638, 323), (623, 323)]",212.77817018515216,"[9, 8, 4, 6, 5, 3, 1, 2, 7]","(0, 0.25)",CHN008C,CHN,C,English,Thu Aug 30 11:12:38 2018,Mouse
1,1,3,0,34,8,2,0,-741,381,360,134,0,500,200,8000,"[(960, 540), (960, 540), (960, 540), (960, 540), (960, 540), (960, 540), (960, 540), (960, 540), (960, 540), (960, 540), (960, 540), (960, 540), (960, 540), (960, 540), (960, 540), (960, 540), (960, 540), (960, 540), (960, 540), (960, 540), (960, 540), (960, 540), (960, 540), (960, 540), (960, 540), (960, 540), (960, 540), (960, 540), (960, 540), (960, 540), (960, 540), (960, 540), (960, 540), (960, 540), (960, 540), (960, 540), (960, 540), (960, 540), (960, 538), (961, 537), (962, 537), (963, 537), (964, 535), (965, 535), (965, 535), (966, 535), (966, 535), (966, 535), (966, 535), (966, 535), (966, 535), (966, 535), (966, 535), (966, 535), (966, 535), (966, 535), (966, 535), (966, 535), (966, 535), (966, 535), (968, 533), (969, 531), (974, 524), (978, 519), (985, 510), (995, 497), (1019, 467), (1035, 447), (1056, 418), (1075, 390), (1118, 329), (1140, 298), (1159, 273), (1176, 248), (1198, 210)]",305.79959953092964,"[9, 8, 4, 6, 5, 3, 1, 2, 7]","(0, 0.25)",CHN008C,CHN,C,English,Thu Aug 30 11:12:38 2018,Mouse
1,1,3,0,35,2,2,1,600,500,100,135,0,500,200,8000,"[(960, 540), (960, 540), (960, 540), (960, 540), (960, 540), (960, 540), (960, 540), (960, 540), (960, 540), (960, 540), (960, 540), (960, 540), (960, 540), (960, 540), (960, 540), (960, 540), (960, 540), (960, 540), (960, 540), (960, 540), (960, 540), (960, 540), (960, 540), (960, 540), (960, 540), (960, 540), (960, 540), (960, 540), (960, 540), (960, 540), (960, 540), (960, 540), (960, 540), (960, 540), (960, 540), (960, 540), (960, 540), (960, 540), (960, 540), (960, 540), (960, 540), (960, 540), (960, 540), (960, 540), (960, 540), (960, 540), (960, 540), (960, 540), (960, 540), (963, 538), (966, 533), (973, 525), (978, 518), (996, 488), (1006, 469), (1015, 446), (1029, 419), (1077, 301), (1107, 239), (1135, 177)]",295.738421373457,"[9, 8, 4, 6, 5, 3, 1, 2, 7]","(0, 0.25)",CHN008C,CHN,C,English,Thu Aug 30 11:12:38 2018,Mouse
1,1,3,0,36,4,4,1,530,300,230,135,0,500,200,8000,"[(960, 540), (960, 540), (960, 540), (960, 540), (960, 540), (960, 540), (960, 540), (960, 540), (960, 540), (960, 540), (960, 540), (960, 540), (960, 540), (960, 540), (960, 540), (960, 540), (960, 540), (960, 540), (960, 540), (960, 540), (960, 540), (960, 540), (960, 540), (960, 540), (960, 540), (960, 540), (960, 540), (960, 540), (960, 540), (961, 541), (961, 541), (960, 543), (960, 550), (959, 553), (958, 557), (957, 563), (956, 573), (954, 588), (949, 608), (944, 623), (931, 668), (926, 692), (921, 721), (918, 745), (910, 801), (908, 819), (905, 838), (901, 857), (899, 883), (895, 896), (893, 908), (890, 919), (883, 937)]",100.97649814210016,"[9, 8, 4, 6, 5, 3, 1, 2, 7]","(0, 0.25)",CHN008C,CHN,C,English,Thu Aug 30 11:12:38 2018,Mouse
1,1,3,0,37,5,3,0,-749,388,361,134,0,500,200,8000,"[(960, 540), (960, 540), (960, 540), (960, 540), (960, 540), (960, 540), (960, 540), (960, 540), (960, 540), (960, 540), (960, 540), (960, 540), (960, 540), (960, 540), (960, 540), (960, 540), (960, 540), (960, 540), (960, 540), (960, 540), (960, 540), (960, 540), (960, 540), (960, 540), (960, 540), (960, 540), (960, 540), (960, 540), (960, 540), (960, 540), (960, 540), (960, 540), (960, 540), (960, 540), (960, 540), (960, 540), (960, 540), (960, 540), (964, 535), (975, 527), (981, 523), (986, 519), (991, 517), (993, 515), (993, 515), (994, 514), (994, 514), (994, 514), (994, 514), (994, 514), (994, 514), (994, 514), (994, 514), (992, 515), (987, 515), (969, 515), (958, 515), (947, 514), (933, 509), (901, 497), (886, 491), (867, 483), (856, 478), (839, 469), (831, 464), (822, 455), (816, 446), (801, 427), (795, 416), (788, 403), (776, 381), (737, 325), (718, 300), (693, 271), (669, 247)]",225.19621765589392,"[9, 8, 4, 6, 5, 3, 1, 2, 7]","(0, 0.25)",CHN008C,CHN,C,English,Thu Aug 30 11:12:38 2018,Mouse
1,1,3,0,38,7,7,1,681,411,270,135,0,500,200,8000,"[(960, 540), (960, 540), (960, 540), (960, 540), (960, 540), (960, 540), (960, 540), (960, 540), (960, 540), (960, 540), (960, 540), (960, 540), (960, 540), (960, 540), (960, 540), (960, 540), (960, 540), (960, 540), (960, 540), (960, 540), (960, 540), (960, 540), (960, 540), (960, 540), (960, 540), (960, 540), (960, 540), (960, 540), (960, 540), (960, 540), (960, 540), (960, 540), (960, 540), (960, 540), (960, 540), (960, 540), (960, 540), (960, 540), (960, 540), (960, 540), (960, 540), (967, 540), (976, 540), (988, 540), (1010, 540), (1020, 540), (1031, 540), (1038, 541), (1053, 541), (1057, 541), (1061, 540), (1063, 540), (1067, 536), (1069, 533), (1073, 531), (1078, 528), (1084, 524), (1091, 522), (1096, 520), (1104, 519), (1124, 517), (1135, 515), (1151, 511), (1168, 506), (1214, 487), (1239, 473), (1271, 455), (1309, 434), (1346, 417)]",342.3253720802859,"[9, 8, 4, 6, 5, 3, 1, 2, 7]","(0, 0.25)",CHN008C,CHN,C,English,Thu Aug 30 11:12:38 2018,Mouse
1,1,3,0,39,2,2,1,590,230,360,135,0,500,200,8000,"[(960, 540), (960, 540), (960, 540), (960, 540), (960, 540), (960, 540), (960, 540), (960, 540), (960, 540), (960, 540), (960, 540), (960, 540), (960, 540), (960, 540), (960, 540), (960, 540), (960, 540), (960, 540), (960, 540), (960, 540), (960, 540), (960, 540), (960, 514), (960, 495), (960, 475), (958, 454), (951, 417), (946, 402), (945, 394), (945, 391), (945, 389), (945, 389), (945, 389), (945, 389), (945, 389), (945, 389), (945, 389), (945, 388), (951, 387), (954, 386), (959, 386), (967, 385), (982, 381), (991, 379), (1002, 373), (1012, 367), (1032, 354), (1043, 346), (1052, 339), (1061, 330), (1079, 313), (1087, 303), (1097, 288), (1104, 276), (1119, 239), (1124, 222), (1130, 197), (1132, 182), (1136, 156)]",294.6235647861636,"[9, 8, 4, 6, 5, 3, 1, 2, 7]","(0, 0.25)",CHN008C,CHN,C,English,Thu Aug 30 11:12:38 2018,Mouse
1,1,3,0,40,5,5,1,860,470,390,134,0,500,200,8000,"[(960, 540), (960, 540), (960, 540), (960, 540), (960, 540), (960, 540), (960, 540), (960, 540), (960, 540), (960, 540), (960, 540), (960, 540), (960, 540), (960, 540), (960, 540), (960, 540), (960, 540), (960, 540), (960, 540), (960, 540), (960, 540), (960, 540), (960, 540), (960, 540), (960, 540), (960, 540), (960, 540), (960, 540), (960, 540), (960, 540), (960, 540), (960, 540), (960, 540), (960, 540), (960, 540), (960, 540), (960, 540), (960, 540), (960, 540), (960, 540), (960, 540), (960, 540), (960, 540), (960, 540), (960, 540), (960, 540), (960, 542), (960, 542), (960, 542), (960, 543), (960, 544), (960, 544), (960, 544), (959, 545), (959, 546), (959, 546), (957, 548), (957, 548), (954, 552), (953, 553), (950, 554), (949, 555), (940, 560), (933, 562), (921, 565), (908, 566), (877, 571), (850, 574), (822, 576), (796, 577), (743, 577), (723, 577), (708, 577), (694, 577), (673, 577), (666, 577), (661, 577), (656, 577), (637, 575), (627, 573), (619, 572), (609, 571), (590, 568), (579, 567), (566, 566), (557, 565)]",176.4502201323767,"[9, 8, 4, 6, 5, 3, 1, 2, 7]","(0, 0.25)",CHN008C,CHN,C,English,Thu Aug 30 11:12:38 2018,Mouse
1,1,3,0,41,2,4,0,-1590,350,1240,133,0,500,200,8000,"[(960, 540), (960, 540), (960, 540), (960, 540), (960, 540), (960, 540), (960, 540), (960, 540), (960, 540), (960, 540), (960, 540), (960, 540), (960, 540), (960, 540), (960, 540), (960, 540), (960, 540), (960, 540), (960, 540), (960, 540), (960, 540), (960, 540), (960, 540), (960, 540), (960, 540), (960, 540), (960, 540), (960, 540), (960, 540), (960, 540), (960, 540), (960, 540), (960, 540), (960, 540), (961, 540), (961, 540), (961, 540), (960, 541), (960, 543), (960, 543), (960, 544), (959, 545), (959, 545), (959, 545), (959, 546), (958, 546), (958, 547), (958, 547), (957, 549), (957, 549), (955, 552), (955, 552), (955, 554), (955, 555), (953, 558), (953, 558), (953, 559), (953, 559), (952, 562), (951, 563), (951, 564), (950, 566), (949, 572), (947, 575), (946, 578), (946, 578), (946, 580), (944, 581), (944, 581), (944, 581), (944, 581), (944, 581), (944, 582), (944, 582), (944, 582), (944, 582), (944, 582), (944, 582), (944, 582), (944, 582), (944, 582), (944, 582), (944, 582), (944, 582), (944, 582), (944, 582), (944, 582), (944, 582), (944, 582), (944, 582), (944, 582), (944, 582), (944, 582), (944, 582), (944, 582), (944, 582), (944, 582), (944, 582), (944, 582), (944, 582), (944, 582), (944, 582), (944, 582), (944, 582), (944, 582), (944, 582), (944, 582), (944, 582), (944, 582), (944, 582), (944, 582), (944, 582), (944, 582), (944, 582), (944, 582), (944, 582), (944, 582), (944, 582), (944, 583), (944, 583), (944, 583), (944, 583), (944, 584), (944, 584), (945, 585), (945, 585), (945, 585), (945, 585), (945, 585), (945, 585), (945, 586), (945, 586), (945, 586), (945, 587), (945, 587), (945, 587), (945, 588), (945, 588), (945, 590), (945, 590), (945, 591), (945, 592), (945, 594), (945, 595), (945, 597), (945, 599), (943, 604), (942, 605), (941, 609), (938, 616), (933, 646), (932, 672), (925, 702), (916, 737), (897, 817), (894, 846), (889, 876), (886, 905), (881, 941)]",101.14497387170591,"[9, 8, 4, 6, 5, 3, 1, 2, 7]","(0, 0.25)",CHN008C,CHN,C,English,Thu Aug 30 11:12:38 2018,Mouse
1,1,3,0,42,7,2,0,-411,211,200,134,0,500,200,8000,"[(960, 540), (960, 540), (960, 540), (960, 540), (960, 540), (960, 540), (960, 540), (960, 540), (960, 540), (960, 540), (960, 540), (960, 540), (960, 540), (960, 540), (960, 540), (960, 540), (960, 540), (960, 540), (960, 540), (960, 540), (960, 540), (961, 536), (963, 535), (972, 528), (983, 521), (990, 516), (999, 509), (1014, 494), (1022, 486), (1038, 475), (1055, 463), (1072, 444), (1086, 428), (1095, 414), (1108, 397), (1140, 345), (1157, 320), (1170, 293), (1183, 266), (1198, 233), (1202, 222), (1206, 212)]",306.86989764584405,"[9, 8, 4, 6, 5, 3, 1, 2, 7]","(0, 0.25)",CHN008C,CHN,C,English,Thu Aug 30 11:12:38 2018,Mouse
1,1,3,0,43,3,3,1,530,280,250,135,0,500,200,8000,"[(960, 540), (960, 540), (960, 540), (960, 540), (960, 540), (960, 540), (960, 540), (960, 540), (960, 540), (960, 540), (960, 540), (960, 540), (960, 540), (960, 540), (960, 540), (960, 540), (960, 540), (960, 540), (960, 540), (960, 540), (960, 540), (960, 540), (960, 540), (960, 540), (960, 540), (960, 540), (960, 540), (955, 540), (948, 540), (933, 535), (923, 531), (916, 528), (909, 523), (903, 518), (902, 516), (899, 513), (897, 509), (887, 497), (882, 492), (877, 487), (871, 481), (852, 469), (838, 458), (818, 442), (802, 422), (749, 375), (724, 356), (701, 340), (684, 327), (661, 311), (652, 304), (645, 299), (637, 293)]",217.40535663140855,"[9, 8, 4, 6, 5, 3, 1, 2, 7]","(0, 0.25)",CHN008C,CHN,C,English,Thu Aug 30 11:12:38 2018,Mouse
1,1,3,0,44,8,9,0,-620,270,350,135,0,500,200,8000,"[(960, 540), (960, 540), (960, 540), (960, 540), (960, 540), (960, 540), (960, 540), (960, 540), (960, 540), (960, 540), (960, 540), (960, 540), (960, 540), (960, 540), (960, 540), (960, 540), (960, 540), (960, 540), (960, 540), (960, 540), (960, 540), (960, 540), (960, 540), (960, 540), (960, 540), (960, 540), (961, 543), (963, 546), (966, 548), (968, 551), (973, 554), (981, 557), (987, 560), (994, 564), (1002, 567), (1016, 573), (1022, 575), (1025, 576), (1030, 576), (1036, 580), (1039, 582), (1044, 585), (1046, 586), (1054, 590), (1058, 593), (1062, 595), (1068, 599), (1079, 605), (1084, 608), (1091, 611), (1097, 614), (1119, 622), (1130, 625), (1144, 630), (1158, 635), (1194, 644), (1214, 650), (1237, 657), (1262, 663), (1307, 679), (1332, 687), (1351, 691)]",21.116025233917306,"[9, 8, 4, 6, 5, 3, 1, 2, 7]","(0, 0.25)",CHN008C,CHN,C,English,Thu Aug 30 11:12:38 2018,Mouse
1,1,3,0,45,6,6,1,460,20,440,136,0,500,200,8000,"[(953, 540), (947, 540), (944, 540), (942, 540), (936, 542), (935, 543), (934, 543), (933, 543), (933, 543), (933, 543), (933, 543), (933, 543), (933, 543), (933, 543), (933, 543), (933, 543), (933, 543), (933, 543), (932, 543), (930, 544), (924, 548), (920, 550), (915, 552), (912, 552), (900, 557), (893, 560), (885, 564), (879, 567), (867, 572), (862, 574), (855, 577), (849, 580), (835, 584), (829, 587), (820, 590), (813, 593), (797, 602), (788, 606), (777, 612), (767, 618), (745, 632), (731, 644), (710, 663), (680, 690), (630, 746), (612, 771)]",146.4240673420011,"[9, 8, 4, 6, 5, 3, 1, 2, 7]","(0, 0.25)",CHN008C,CHN,C,English,Thu Aug 30 11:12:38 2018,Mouse
1,1,3,0,46,1,1,1,371,181,190,136,0,500,200,8000,"[(960, 540), (960, 540), (960, 540), (960, 540), (960, 540), (960, 540), (960, 540), (960, 540), (960, 540), (960, 540), (960, 540), (960, 540), (960, 540), (960, 540), (960, 540), (960, 540), (960, 540), (960, 540), (959, 540), (959, 536), (958, 531), (954, 523), (948, 510), (943, 501), (937, 490), (931, 480), (918, 443), (910, 417), (906, 398), (903, 382), (903, 349), (903, 321), (903, 293), (903, 254), (903, 204), (903, 176), (903, 148), (903, 123)]",262.2164404735346,"[9, 8, 4, 6, 5, 3, 1, 2, 7]","(0, 0.25)",CHN008C,CHN,C,English,Thu Aug 30 11:12:38 2018,Mouse
1,1,3,0,47,6,6,1,1090,240,850,135,0,500,200,8000,"[(960, 540), (960, 540), (960, 540), (960, 540), (960, 540), (960, 540), (960, 540), (960, 540), (960, 540), (960, 540), (960, 540), (960, 540), (960, 540), (960, 540), (960, 540), (960, 540), (960, 540), (960, 540), (960, 540), (960, 540), (960, 540), (960, 540), (960, 540), (960, 541), (960, 541), (960, 541), (960, 542), (960, 542), (960, 542), (960, 543), (960, 544), (960, 544), (960, 545), (960, 545), (959, 546), (959, 547), (958, 547), (958, 547), (955, 548), (954, 549), (953, 550), (952, 550), (948, 551), (944, 553), (942, 554), (938, 554), (932, 554), (929, 554), (926, 555), (923, 555), (916, 555), (915, 555), (910, 557), (907, 558), (895, 563), (890, 565), (882, 568), (876, 572), (868, 575), (853, 583), (846, 585), (840, 586), (828, 590), (826, 590), (824, 591), (823, 592), (822, 593), (822, 593), (820, 595), (819, 596), (816, 600), (811, 605), (805, 614), (800, 623), (789, 643), (780, 656), (770, 671), (759, 688), (749, 700), (724, 729), (717, 740), (710, 747), (699, 761), (697, 764), (695, 768), (693, 771), (688, 777), (687, 779), (685, 782), (685, 783), (684, 783), (684, 783), (684, 783), (684, 783), (684, 783), (684, 783), (684, 783), (684, 783), (684, 783), (684, 783), (684, 783), (684, 783), (684, 783), (684, 783), (684, 783), (684, 783), (676, 785), (663, 791), (644, 799)]",140.6612597765956,"[9, 8, 4, 6, 5, 3, 1, 2, 7]","(0, 0.25)",CHN008C,CHN,C,English,Thu Aug 30 11:12:38 2018,Mouse
1,1,3,0,48,1,3,0,-530,250,280,134,0,500,200,8000,"[(960, 540), (960, 540), (960, 540), (960, 540), (960, 540), (960, 540), (960, 540), (960, 540), (960, 540), (960, 540), (960, 540), (960, 540), (960, 540), (960, 540), (960, 540), (960, 540), (960, 540), (960, 540), (960, 540), (960, 540), (960, 540), (960, 540), (960, 540), (960, 540), (963, 537), (968, 532), (972, 530), (974, 527), (977, 524), (977, 524), (978, 523), (978, 522), (979, 522), (979, 522), (979, 521), (979, 521), (979, 518), (978, 517), (973, 515), (969, 513), (947, 503), (927, 493), (906, 484), (890, 475), (836, 446), (818, 433), (800, 416), (785, 399), (754, 349), (738, 319), (720, 284), (703, 256), (678, 220)]",228.611885009223,"[9, 8, 4, 6, 5, 3, 1, 2, 7]","(0, 0.25)",CHN008C,CHN,C,English,Thu Aug 30 11:12:38 2018,Mouse
1,1,3,0,49,3,5,0,-529,109,420,135,0,500,200,8000,"[(960, 540), (960, 540), (960, 540), (960, 540), (960, 540), (960, 540), (960, 540), (960, 540), (960, 540), (960, 540), (959, 540), (955, 540), (955, 540), (953, 540), (953, 540), (952, 540), (952, 540), (952, 540), (952, 540), (952, 540), (952, 540), (952, 540), (952, 540), (952, 540), (952, 540), (952, 540), (952, 540), (952, 540), (952, 540), (952, 540), (952, 540), (952, 540), (952, 540), (952, 540), (948, 540), (936, 540), (930, 540), (922, 539), (912, 537), (895, 536), (884, 536), (873, 536), (860, 536), (837, 537), (822, 538), (804, 542), (775, 543), (717, 550), (689, 550), (656, 550), (625, 550), (570, 550), (550, 550)]",178.60281897270363,"[9, 8, 4, 6, 5, 3, 1, 2, 7]","(0, 0.25)",CHN008C,CHN,C,English,Thu Aug 30 11:12:38 2018,Mouse
1,1,3,0,50,7,7,1,461,301,160,136,0,500,200,8000,"[(960, 540), (960, 540), (960, 540), (960, 540), (960, 540), (960, 540), (960, 540), (960, 540), (960, 540), (960, 540), (960, 540), (960, 540), (960, 540), (960, 540), (960, 540), (960, 540), (960, 540), (960, 540), (960, 540), (960, 540), (960, 540), (960, 540), (960, 540), (960, 540), (960, 540), (960, 540), (960, 540), (960, 540), (960, 540), (960, 540), (963, 540), (968, 539), (977, 539), (985, 539), (1005, 539), (1019, 538), (1031, 536), (1045, 533), (1085, 529), (1112, 524), (1134, 517), (1160, 509), (1210, 495), (1235, 487), (1266, 475), (1297, 464), (1357, 433)]",344.9159859318878,"[9, 8, 4, 6, 5, 3, 1, 2, 7]","(0, 0.25)",CHN008C,CHN,C,English,Thu Aug 30 11:12:38 2018,Mouse
1,1,3,0,51,6,6,1,660,80,580,136,0,500,200,8000,"[(960, 540), (960, 540), (960, 540), (960, 540), (960, 540), (960, 540), (960, 540), (960, 541), (958, 543), (958, 544), (955, 547), (954, 547), (954, 548), (953, 549), (952, 551), (952, 551), (952, 551), (951, 552), (951, 553), (950, 553), (949, 554), (947, 554), (944, 558), (940, 561), (938, 562), (931, 565), (918, 572), (911, 574), (902, 579), (893, 585), (869, 601), (854, 613), (845, 620), (825, 635), (760, 681), (745, 695), (738, 703), (737, 704), (736, 706), (736, 706), (736, 706), (736, 706), (736, 706), (736, 706), (736, 706), (736, 706), (736, 706), (736, 706), (736, 706), (736, 706), (736, 706), (736, 706), (736, 706), (736, 706), (736, 706), (736, 706), (736, 706), (736, 706), (735, 709), (732, 712), (726, 716), (719, 722), (694, 739), (675, 750), (652, 766), (621, 787)]",143.92241122064303,"[9, 8, 4, 6, 5, 3, 1, 2, 7]","(0, 0.25)",CHN008C,CHN,C,English,Thu Aug 30 11:12:38 2018,Mouse
1,1,3,0,52,3,5,0,-520,290,230,135,0,500,200,8000,"[(960, 540), (960, 540), (960, 540), (960, 540), (960, 540), (960, 540), (960, 540), (960, 540), (960, 540), (960, 540), (960, 540), (960, 540), (960, 540), (960, 540), (960, 540), (960, 540), (960, 540), (960, 540), (960, 540), (960, 540), (960, 540), (960, 540), (960, 540), (960, 540), (960, 540), (960, 540), (960, 540), (960, 540), (959, 539), (954, 539), (947, 539), (933, 537), (926, 536), (921, 534), (917, 534), (907, 531), (907, 531), (904, 530), (904, 530), (895, 528), (887, 525), (880, 524), (866, 523), (843, 519), (822, 518), (797, 514), (766, 512), (705, 512), (671, 510), (632, 510), (601, 509), (531, 509)]",184.13307061997176,"[9, 8, 4, 6, 5, 3, 1, 2, 7]","(0, 0.25)",CHN008C,CHN,C,English,Thu Aug 30 11:12:38 2018,Mouse
1,1,3,0,53,6,6,1,410,20,390,136,0,500,200,8000,"[(960, 540), (955, 543), (950, 547), (944, 552), (937, 557), (931, 564), (921, 579), (916, 588), (912, 594), (910, 599), (903, 610), (902, 612), (900, 615), (898, 620), (898, 621), (897, 622), (897, 623), (897, 623), (897, 625), (895, 626), (895, 627), (892, 633), (889, 635), (886, 640), (885, 642), (873, 654), (865, 661), (858, 665), (849, 672), (833, 687), (823, 695), (809, 706), (792, 719), (758, 742), (742, 751), (729, 758), (713, 766), (681, 785), (667, 793), (656, 798), (646, 803)]",140.05114498132608,"[9, 8, 4, 6, 5, 3, 1, 2, 7]","(0, 0.25)",CHN008C,CHN,C,English,Thu Aug 30 11:12:38 2018,Mouse
1,1,3,0,54,1,1,1,390,240,150,136,0,500,200,8000,"[(960, 540), (960, 540), (960, 540), (960, 540), (960, 540), (960, 540), (960, 540), (960, 540), (960, 540), (960, 540), (960, 540), (960, 540), (960, 540), (960, 540), (960, 540), (960, 540), (960, 540), (960, 540), (960, 540), (960, 540), (960, 540), (960, 540), (960, 540), (960, 532), (960, 523), (960, 518), (960, 509), (958, 489), (958, 477), (956, 457), (952, 428), (948, 382), (942, 328), (938, 280), (938, 246), (938, 193), (938, 171), (938, 146), (938, 123)]",266.9800009439966,"[9, 8, 4, 6, 5, 3, 1, 2, 7]","(0, 0.25)",CHN008C,CHN,C,English,Thu Aug 30 11:12:38 2018,Mouse
1,1,3,0,55,6,6,1,329,19,310,135,0,500,200,8000,"[(960, 540), (961, 540), (963, 541), (963, 544), (962, 549), (962, 551), (961, 553), (959, 555), (957, 558), (955, 561), (954, 562), (953, 563), (949, 568), (948, 569), (947, 570), (946, 572), (942, 575), (941, 576), (938, 579), (936, 580), (929, 584), (923, 588), (916, 593), (907, 595), (888, 605), (877, 610), (860, 618), (839, 629), (797, 657), (769, 678), (740, 703), (700, 737), (639, 795)]",141.53663364879708,"[9, 8, 4, 6, 5, 3, 1, 2, 7]","(0, 0.25)",CHN008C,CHN,C,English,Thu Aug 30 11:12:38 2018,Mouse
1,1,3,0,56,5,5,1,361,281,80,134,0,500,200,8000,"[(960, 540), (960, 540), (960, 540), (960, 540), (960, 540), (960, 540), (960, 540), (960, 540), (960, 540), (960, 540), (960, 540), (960, 540), (960, 540), (960, 540), (960, 540), (960, 540), (960, 540), (960, 540), (960, 540), (960, 540), (960, 540), (960, 540), (960, 540), (960, 540), (960, 540), (960, 540), (960, 540), (960, 540), (954, 540), (937, 539), (916, 537), (843, 534), (793, 534), (740, 534), (690, 534), (593, 534), (543, 534)]",180.82434282084515,"[9, 8, 4, 6, 5, 3, 1, 2, 7]","(0, 0.25)",CHN008C,CHN,C,English,Thu Aug 30 11:12:38 2018,Mouse
1,1,3,0,57,4,4,1,401,221,180,133,0,500,200,8000,"[(960, 540), (960, 540), (960, 540), (960, 540), (960, 540), (960, 540), (960, 540), (960, 540), (960, 540), (960, 540), (960, 540), (960, 540), (960, 540), (960, 540), (960, 540), (960, 540), (960, 540), (960, 540), (960, 540), (960, 540), (960, 540), (960, 540), (961, 542), (961, 545), (961, 548), (961, 553), (959, 564), (958, 572), (957, 579), (957, 588), (957, 617), (957, 635), (957, 663), (957, 689), (957, 736), (957, 769), (957, 811), (957, 847), (957, 909), (956, 929), (956, 949)]",90.5603320575677,"[9, 8, 4, 6, 5, 3, 1, 2, 7]","(0, 0.25)",CHN008C,CHN,C,English,Thu Aug 30 11:12:38 2018,Mouse
1,1,3,0,58,3,7,0,-2560,2390,170,132,0,500,200,8000,"[(960, 540), (960, 540), (960, 540), (960, 540), (960, 540), (960, 540), (960, 540), (960, 540), (960, 540), (960, 540), (960, 540), (960, 540), (960, 540), (960, 540), (960, 540), (960, 540), (960, 540), (960, 540), (960, 540), (960, 540), (960, 540), (960, 540), (960, 540), (960, 540), (960, 540), (960, 540), (960, 540), (960, 540), (960, 540), (960, 540), (960, 540), (960, 540), (960, 540), (960, 540), (960, 540), (960, 540), (960, 540), (960, 540), (960, 540), (960, 540), (960, 540), (960, 540), (960, 540), (960, 540), (960, 540), (960, 540), (960, 540), (960, 540), (960, 540), (960, 540), (960, 540), (960, 540), (960, 540), (960, 540), (960, 540), (960, 540), (960, 540), (960, 540), (960, 540), (960, 540), (960, 540), (960, 540), (960, 540), (960, 540), (960, 540), (960, 540), (960, 540), (960, 540), (960, 540), (960, 540), (960, 540), (960, 540), (960, 540), (960, 540), (960, 540), (960, 540), (960, 540), (960, 540), (960, 540), (960, 540), (960, 540), (960, 540), (960, 540), (960, 540), (960, 540), (960, 540), (960, 540), (960, 540), (960, 540), (960, 540), (960, 540), (960, 540), (960, 540), (960, 540), (960, 540), (960, 540), (960, 540), (960, 540), (960, 540), (960, 540), (960, 540), (960, 540), (960, 540), (960, 540), (960, 540), (960, 540), (960, 540), (960, 540), (960, 540), (960, 540), (960, 540), (960, 540), (960, 540), (960, 540), (960, 540), (960, 540), (960, 540), (960, 540), (960, 540), (960, 540), (960, 540), (960, 540), (960, 540), (960, 540), (960, 540), (960, 540), (960, 540), (960, 540), (960, 540), (960, 540), (960, 540), (960, 540), (960, 540), (960, 540), (960, 540), (960, 540), (960, 540), (960, 540), (960, 540), (960, 540), (960, 540), (960, 540), (960, 540), (960, 540), (960, 540), (960, 540), (960, 540), (960, 540), (960, 540), (960, 540), (960, 540), (960, 540), (960, 540), (960, 540), (960, 540), (960, 540), (960, 540), (960, 540), (960, 540), (960, 540), (960, 540), (960, 540), (960, 540), (960, 540), (960, 540), (960, 540), (960, 540), (960, 540), (960, 540), (960, 540), (960, 540), (960, 540), (960, 540), (960, 540), (960, 540), (960, 540), (960, 540), (960, 540), (960, 540), (960, 540), (960, 540), (960, 540), (960, 540), (960, 540), (960, 540), (960, 540), (960, 540), (960, 540), (960, 540), (960, 540), (960, 540), (960, 540), (960, 540), (960, 540), (960, 540), (960, 540), (960, 540), (960, 540), (960, 540), (960, 540), (960, 540), (960, 540), (960, 540), (960, 540), (960, 540), (960, 540), (960, 540), (960, 540), (960, 540), (960, 540), (960, 540), (960, 540), (960, 540), (960, 540), (960, 540), (960, 540), (960, 540), (960, 540), (960, 540), (960, 540), (960, 540), (960, 540), (960, 540), (960, 540), (960, 540), (960, 540), (960, 540), (960, 540), (960, 540), (960, 540), (960, 540), (960, 540), (960, 540), (960, 540), (960, 540), (960, 540), (960, 540), (960, 540), (961, 540), (968, 540), (984, 540), (994, 539), (1008, 537), (1025, 535), (1067, 528), (1088, 521), (1110, 513), (1135, 507), (1182, 487), (1203, 478), (1227, 463), (1249, 453), (1286, 432), (1304, 424), (1322, 417), (1342, 412)]",341.475104972297,"[9, 8, 4, 6, 5, 3, 1, 2, 7]","(0, 0.25)",CHN008C,CHN,C,English,Thu Aug 30 11:12:38 2018,Mouse
1,1,3,0,59,4,5,0,-1411,11,1400,133,0,500,200,8000,"[(960, 540), (959, 541), (959, 542), (959, 542), (959, 542), (959, 542), (959, 542), (959, 542), (959, 542), (959, 542), (959, 542), (959, 542), (959, 542), (959, 542), (959, 542), (959, 542), (959, 542), (959, 542), (959, 542), (959, 542), (959, 542), (959, 542), (959, 542), (959, 543), (959, 546), (960, 550), (962, 552), (966, 557), (976, 564), (979, 566), (984, 569), (986, 570), (988, 573), (989, 573), (990, 574), (990, 574), (990, 575), (990, 576), (990, 576), (990, 578), (990, 579), (990, 579), (990, 580), (990, 582), (990, 584), (990, 586), (990, 589), (989, 591), (987, 597), (986, 600), (984, 604), (980, 612), (977, 620), (975, 625), (973, 629), (968, 639), (966, 644), (965, 646), (965, 649), (964, 650), (964, 650), (964, 650), (964, 650), (964, 650), (964, 650), (964, 650), (964, 650), (963, 651), (963, 651), (963, 651), (963, 651), (963, 651), (963, 651), (963, 651), (963, 651), (963, 651), (963, 651), (963, 651), (963, 651), (963, 651), (963, 651), (963, 651), (963, 651), (963, 651), (963, 651), (963, 651), (963, 651), (963, 651), (962, 650), (962, 650), (962, 650), (962, 650), (962, 650), (961, 650), (961, 650), (960, 649), (960, 649), (960, 649), (960, 649), (960, 648), (960, 648), (960, 648), (960, 648), (960, 648), (960, 648), (960, 648), (960, 648), (960, 648), (960, 648), (960, 648), (960, 648), (960, 648), (960, 648), (960, 648), (960, 648), (960, 648), (960, 648), (960, 648), (960, 648), (960, 648), (960, 648), (960, 647), (959, 646), (958, 645), (956, 644), (956, 644), (956, 644), (956, 644), (956, 644), (956, 644), (956, 644), (952, 644), (944, 643), (932, 641), (915, 640), (868, 637), (837, 634), (792, 632), (743, 624), (632, 608), (570, 599), (513, 589)]",173.74423222960212,"[9, 8, 4, 6, 5, 3, 1, 2, 7]","(0, 0.25)",CHN008C,CHN,C,English,Thu Aug 30 11:12:38 2018,Mouse
1,1,3,0,60,7,7,1,488,279,209,134,0,500,200,8000,"[(960, 540), (960, 540), (960, 540), (960, 540), (960, 540), (960, 540), (960, 540), (960, 540), (960, 540), (960, 540), (960, 540), (960, 540), (960, 540), (960, 540), (960, 540), (960, 540), (960, 540), (960, 540), (960, 540), (960, 540), (960, 540), (960, 540), (960, 540), (960, 540), (960, 540), (960, 540), (960, 540), (965, 539), (992, 529), (1010, 522), (1028, 513), (1043, 507), (1063, 501), (1126, 484), (1157, 476), (1182, 470), (1197, 467), (1221, 463), (1230, 458), (1238, 456), (1247, 452), (1266, 437), (1274, 429), (1283, 420), (1289, 414), (1307, 398), (1316, 394), (1323, 390), (1332, 387)]",337.6431086707057,"[9, 8, 4, 6, 5, 3, 1, 2, 7]","(0, 0.25)",CHN008C,CHN,C,English,Thu Aug 30 11:12:38 2018,Mouse
1,1,3,0,61,5,9,0,-1041,71,970,134,0,500,200,8000,"[(960, 540), (960, 540), (960, 540), (960, 540), (960, 540), (960, 540), (960, 540), (960, 539), (960, 539), (960, 539), (960, 539), (960, 539), (960, 539), (960, 539), (960, 539), (960, 539), (960, 539), (960, 539), (960, 539), (960, 539), (960, 539), (960, 539), (960, 539), (960, 539), (960, 539), (960, 539), (960, 539), (960, 539), (960, 539), (960, 539), (960, 539), (960, 539), (960, 539), (960, 539), (960, 539), (960, 539), (960, 539), (960, 539), (960, 539), (960, 539), (960, 539), (960, 539), (960, 539), (960, 539), (960, 539), (960, 539), (960, 539), (960, 539), (960, 539), (960, 539), (960, 539), (960, 539), (960, 539), (960, 539), (960, 539), (960, 539), (960, 539), (960, 539), (960, 539), (960, 539), (960, 539), (960, 539), (960, 539), (960, 539), (960, 539), (960, 539), (960, 539), (960, 539), (960, 539), (960, 539), (960, 539), (960, 539), (960, 539), (960, 539), (960, 539), (960, 539), (960, 539), (960, 539), (961, 539), (962, 540), (966, 543), (970, 547), (975, 551), (982, 554), (999, 564), (1011, 569), (1025, 575), (1040, 581), (1083, 594), (1104, 598), (1127, 606), (1144, 611), (1183, 622), (1206, 628), (1222, 632), (1236, 637), (1265, 645), (1275, 648), (1283, 653), (1292, 656), (1308, 664), (1314, 669), (1320, 671), (1329, 675), (1340, 680)]",20.224859431168078,"[9, 8, 4, 6, 5, 3, 1, 2, 7]","(0, 0.25)",CHN008C,CHN,C,English,Thu Aug 30 11:12:38 2018,Mouse
1,1,3,0,62,8,4,0,-379,219,160,135,0,500,200,8000,"[(960, 540), (960, 540), (960, 540), (960, 540), (960, 540), (960, 540), (960, 540), (960, 540), (960, 540), (960, 540), (960, 540), (960, 540), (960, 540), (960, 540), (960, 540), (960, 540), (960, 540), (960, 540), (960, 540), (960, 540), (960, 540), (959, 539), (953, 541), (948, 545), (944, 550), (939, 555), (929, 573), (918, 587), (910, 599), (901, 612), (890, 651), (883, 682), (883, 718), (883, 770), (883, 856), (883, 890), (882, 924), (879, 947)]",101.2557776890948,"[9, 8, 4, 6, 5, 3, 1, 2, 7]","(0, 0.25)",CHN008C,CHN,C,English,Thu Aug 30 11:12:38 2018,Mouse
1,1,3,0,63,2,2,1,481,341,140,136,0,500,200,8000,"[(960, 540), (960, 540), (960, 540), (960, 540), (960, 540), (960, 540), (960, 540), (960, 540), (960, 540), (960, 540), (960, 540), (960, 540), (960, 540), (960, 540), (960, 540), (960, 540), (960, 540), (960, 540), (960, 540), (960, 540), (960, 540), (960, 540), (960, 540), (960, 540), (960, 540), (960, 540), (960, 540), (960, 540), (960, 540), (960, 540), (960, 540), (960, 540), (960, 540), (960, 540), (962, 536), (967, 532), (981, 520), (990, 510), (998, 499), (1008, 488), (1029, 460), (1036, 443), (1050, 424), (1058, 408), (1079, 363), (1096, 305), (1111, 263), (1124, 229), (1149, 173)]",297.2478504606664,"[9, 8, 4, 6, 5, 3, 1, 2, 7]","(0, 0.25)",CHN008C,CHN,C,English,Thu Aug 30 11:12:38 2018,Mouse
1,1,3,0,64,6,6,1,309,19,290,136,0,500,200,8000,"[(960, 541), (959, 542), (957, 544), (956, 547), (955, 549), (953, 550), (948, 555), (948, 556), (945, 559), (943, 562), (938, 567), (935, 569), (933, 571), (932, 573), (929, 577), (927, 579), (926, 581), (923, 584), (914, 592), (912, 595), (908, 598), (902, 605), (889, 620), (875, 638), (851, 662), (820, 688), (758, 731), (730, 752), (712, 767), (689, 783), (650, 812)]",138.73565912661766,"[9, 8, 4, 6, 5, 3, 1, 2, 7]","(0, 0.25)",CHN008C,CHN,C,English,Thu Aug 30 11:12:38 2018,Mouse
1,1,3,0,65,5,5,1,300,50,250,135,0,500,200,8000,"[(960, 540), (960, 540), (960, 540), (960, 540), (959, 541), (958, 542), (958, 542), (957, 543), (956, 544), (953, 547), (951, 548), (949, 549), (947, 549), (940, 551), (937, 551), (933, 551), (928, 551), (911, 551), (902, 551), (891, 551), (877, 551), (844, 551), (824, 551), (805, 551), (777, 551), (699, 551), (657, 551), (615, 551), (568, 551), (524, 551)]",178.5547708656297,"[9, 8, 4, 6, 5, 3, 1, 2, 7]","(0, 0.25)",CHN008C,CHN,C,English,Thu Aug 30 11:12:38 2018,Mouse
1,1,3,0,66,1,6,0,-889,699,190,134,0,500,200,8000,"[(960, 540), (960, 540), (960, 540), (960, 540), (960, 540), (960, 540), (960, 540), (960, 540), (960, 540), (960, 540), (960, 540), (960, 540), (960, 540), (960, 540), (960, 540), (960, 540), (960, 540), (960, 540), (960, 540), (960, 540), (960, 540), (960, 540), (960, 540), (960, 540), (960, 540), (960, 540), (960, 540), (960, 540), (960, 540), (960, 540), (960, 540), (960, 540), (960, 540), (960, 540), (960, 540), (960, 540), (960, 540), (960, 540), (960, 540), (960, 540), (960, 540), (960, 540), (960, 540), (960, 540), (960, 540), (960, 540), (960, 540), (960, 540), (960, 540), (960, 540), (960, 540), (960, 540), (960, 540), (960, 540), (960, 540), (960, 540), (960, 540), (960, 540), (960, 540), (960, 540), (960, 540), (960, 540), (960, 540), (960, 540), (960, 540), (960, 540), (960, 540), (960, 540), (960, 540), (960, 542), (960, 543), (960, 543), (960, 545), (960, 545), (959, 546), (958, 547), (957, 548), (957, 549), (951, 557), (945, 563), (939, 568), (932, 574), (919, 583), (909, 590), (902, 595), (884, 609), (801, 682), (726, 741), (647, 810)]",139.2182941553465,"[9, 8, 4, 6, 5, 3, 1, 2, 7]","(0, 0.25)",CHN008C,CHN,C,English,Thu Aug 30 11:12:38 2018,Mouse
1,1,3,0,67,7,7,1,420,220,200,135,0,500,200,8000,"[(960, 540), (960, 540), (960, 540), (960, 540), (960, 540), (960, 540), (960, 540), (960, 540), (960, 540), (960, 540), (960, 540), (960, 540), (960, 540), (960, 540), (960, 540), (960, 540), (960, 540), (960, 540), (960, 540), (960, 540), (960, 540), (963, 536), (966, 535), (969, 535), (976, 533), (984, 531), (993, 531), (1001, 530), (1007, 528), (1020, 526), (1027, 525), (1034, 522), (1045, 520), (1069, 512), (1085, 508), (1100, 502), (1121, 491), (1182, 465), (1213, 453), (1252, 442), (1286, 431), (1363, 411)]",342.2501698461452,"[9, 8, 4, 6, 5, 3, 1, 2, 7]","(0, 0.25)",CHN008C,CHN,C,English,Thu Aug 30 11:12:38 2018,Mouse
1,1,3,0,68,8,8,1,1350,350,1000,135,0,500,200,8000,"[(960, 540), (960, 540), (960, 540), (960, 540), (960, 540), (960, 540), (960, 540), (960, 540), (960, 540), (960, 540), (960, 540), (960, 540), (960, 540), (960, 540), (960, 540), (960, 540), (960, 540), (960, 540), (960, 540), (960, 540), (960, 540), (960, 540), (960, 540), (960, 540), (960, 540), (960, 540), (960, 540), (960, 540), (960, 540), (960, 540), (960, 540), (960, 540), (960, 540), (960, 540), (957, 540), (956, 540), (955, 541), (953, 542), (953, 543), (951, 543), (951, 544), (950, 544), (950, 544), (950, 544), (950, 544), (950, 544), (948, 544), (948, 544), (948, 544), (948, 544), (948, 544), (948, 544), (948, 544), (948, 544), (948, 544), (948, 544), (948, 544), (948, 544), (948, 545), (948, 545), (948, 545), (948, 545), (948, 545), (948, 545), (948, 545), (948, 546), (948, 546), (948, 546), (948, 546), (948, 546), (947, 547), (947, 547), (947, 547), (947, 547), (947, 548), (947, 548), (947, 548), (947, 549), (947, 549), (947, 549), (947, 551), (947, 551), (947, 551), (947, 551), (947, 552), (947, 552), (948, 554), (949, 554), (949, 554), (949, 555), (949, 556), (950, 557), (951, 557), (951, 557), (951, 558), (952, 560), (954, 562), (955, 563), (957, 566), (958, 568), (959, 568), (960, 570), (961, 570), (961, 570), (961, 570), (961, 570), (961, 570), (961, 570), (961, 570), (961, 570), (961, 570), (961, 570), (961, 570), (961, 571), (961, 572), (961, 572), (961, 573), (961, 574), (961, 575), (961, 575), (961, 576), (961, 577), (963, 580), (965, 583), (971, 590), (976, 597), (997, 629), (1014, 651), (1035, 680), (1050, 709), (1083, 764), (1104, 790), (1125, 818), (1141, 841), (1176, 891)]",58.3924977537511,"[9, 8, 4, 6, 5, 3, 1, 2, 7]","(0, 0.25)",CHN008C,CHN,C,English,Thu Aug 30 11:12:38 2018,Mouse
1,1,3,0,69,8,6,0,-430,310,120,134,0,500,200,8000,"[(960, 540), (960, 540), (960, 540), (960, 540), (960, 540), (960, 540), (960, 540), (960, 540), (960, 540), (960, 540), (960, 540), (960, 540), (960, 540), (960, 540), (960, 540), (960, 540), (960, 540), (960, 540), (960, 540), (960, 540), (960, 540), (960, 540), (960, 540), (960, 540), (960, 540), (960, 540), (960, 540), (960, 540), (960, 540), (960, 540), (954, 542), (944, 546), (931, 551), (920, 556), (894, 569), (879, 577), (867, 587), (856, 593), (824, 616), (800, 640), (774, 672), (737, 719), (652, 823)]",137.42223525050684,"[9, 8, 4, 6, 5, 3, 1, 2, 7]","(0, 0.25)",CHN008C,CHN,C,English,Thu Aug 30 11:12:38 2018,Mouse
1,1,3,0,70,5,5,1,350,200,150,135,0,500,200,8000,"[(960, 540), (960, 540), (960, 540), (960, 540), (960, 540), (960, 540), (960, 540), (960, 540), (960, 540), (960, 540), (960, 540), (960, 540), (960, 540), (960, 540), (960, 540), (960, 540), (960, 540), (960, 540), (960, 540), (959, 540), (955, 540), (946, 540), (926, 540), (912, 540), (899, 540), (882, 540), (843, 540), (818, 540), (787, 540), (754, 540), (676, 540), (643, 540), (604, 540), (570, 540), (517, 540)]",180.0,"[9, 8, 4, 6, 5, 3, 1, 2, 7]","(0, 0.25)",CHN008C,CHN,C,English,Thu Aug 30 11:12:38 2018,Mouse
1,1,3,0,71,1,7,0,-1160,590,570,135,0,500,200,8000,"[(960, 540), (960, 540), (960, 540), (960, 540), (960, 540), (960, 540), (960, 540), (960, 540), (960, 540), (960, 540), (960, 540), (960, 540), (960, 540), (960, 540), (960, 540), (960, 540), (960, 540), (960, 540), (960, 540), (960, 540), (960, 540), (960, 540), (960, 540), (960, 540), (960, 540), (960, 540), (960, 540), (960, 540), (960, 540), (960, 540), (960, 540), (960, 540), (960, 540), (960, 540), (960, 540), (960, 540), (960, 540), (960, 540), (960, 540), (960, 540), (960, 540), (960, 540), (960, 540), (960, 540), (960, 540), (960, 540), (960, 540), (960, 540), (960, 540), (960, 540), (960, 540), (960, 540), (960, 540), (960, 540), (960, 540), (960, 540), (960, 540), (960, 540), (962, 540), (964, 540), (968, 540), (980, 540), (987, 540), (995, 540), (1002, 540), (1018, 543), (1025, 544), (1029, 544), (1035, 544), (1041, 544), (1044, 544), (1047, 544), (1051, 543), (1058, 539), (1064, 536), (1070, 530), (1079, 525), (1098, 514), (1108, 509), (1118, 504), (1127, 498), (1144, 489), (1150, 488), (1155, 485), (1160, 483), (1163, 481), (1164, 481), (1165, 480), (1165, 480), (1165, 480), (1165, 480), (1165, 480), (1165, 480), (1165, 480), (1165, 480), (1165, 480), (1165, 480), (1165, 480), (1165, 480), (1165, 480), (1165, 480), (1165, 480), (1165, 480), (1165, 480), (1165, 480), (1167, 480), (1168, 480), (1172, 478), (1179, 477), (1197, 470), (1209, 464), (1226, 455), (1248, 442), (1288, 420), (1313, 407), (1339, 395)]",339.06386144401824,"[9, 8, 4, 6, 5, 3, 1, 2, 7]","(0, 0.25)",CHN008C,CHN,C,English,Thu Aug 30 11:12:38 2018,Mouse
1,1,3,0,72,1,1,1,370,130,240,136,0,500,200,8000,"[(960, 540), (960, 540), (960, 540), (960, 540), (960, 540), (960, 540), (960, 540), (960, 540), (960, 540), (960, 540), (960, 540), (960, 540), (959, 540), (958, 540), (957, 540), (955, 540), (952, 537), (950, 535), (947, 533), (943, 529), (939, 525), (935, 520), (933, 517), (929, 512), (923, 501), (919, 492), (914, 481), (906, 462), (888, 406), (879, 373), (872, 343), (868, 316), (864, 264), (864, 231), (858, 198), (854, 169), (843, 104)]",254.97864945184983,"[9, 8, 4, 6, 5, 3, 1, 2, 7]","(0, 0.25)",CHN008C,CHN,C,English,Thu Aug 30 11:12:38 2018,Mouse
1,1,3,0,73,6,6,1,371,11,360,136,0,500,200,8000,"[(960, 540), (959, 540), (958, 542), (957, 542), (956, 543), (955, 544), (955, 545), (954, 545), (953, 546), (953, 546), (953, 546), (953, 546), (953, 546), (953, 546), (952, 546), (952, 547), (951, 548), (949, 549), (949, 549), (947, 551), (942, 555), (941, 555), (939, 557), (934, 561), (922, 567), (914, 571), (905, 576), (895, 582), (876, 594), (867, 601), (858, 610), (844, 623), (778, 679), (747, 701), (724, 721), (701, 739), (656, 770), (634, 786)]",142.9617508910081,"[9, 8, 4, 6, 5, 3, 1, 2, 7]","(0, 0.25)",CHN008C,CHN,C,English,Thu Aug 30 11:12:38 2018,Mouse
1,1,3,0,74,4,5,0,-671,581,90,135,0,500,200,8000,"[(960, 540), (960, 540), (960, 540), (960, 540), (960, 540), (960, 540), (960, 540), (960, 540), (960, 540), (960, 540), (960, 540), (960, 540), (960, 540), (960, 540), (960, 540), (960, 540), (960, 540), (960, 540), (960, 540), (960, 540), (960, 540), (960, 540), (960, 540), (960, 540), (960, 540), (960, 540), (960, 540), (960, 540), (960, 540), (960, 540), (960, 540), (960, 540), (960, 540), (960, 540), (960, 540), (960, 540), (960, 540), (960, 540), (960, 540), (960, 540), (960, 540), (960, 540), (960, 540), (960, 540), (960, 540), (960, 540), (960, 540), (960, 540), (960, 540), (960, 540), (960, 540), (960, 540), (960, 540), (960, 540), (960, 540), (960, 540), (960, 540), (960, 540), (950, 539), (937, 540), (920, 541), (891, 545), (818, 545), (774, 545), (724, 545), (677, 545), (585, 545), (541, 545)]",179.31631193205965,"[9, 8, 4, 6, 5, 3, 1, 2, 7]","(0, 0.25)",CHN008C,CHN,C,English,Thu Aug 30 11:12:38 2018,Mouse
1,1,3,0,75,6,6,1,280,50,230,136,0,500,200,8000,"[(960, 540), (960, 540), (960, 540), (960, 540), (959, 540), (957, 541), (956, 542), (955, 542), (953, 544), (949, 547), (945, 551), (941, 554), (935, 558), (924, 565), (915, 570), (911, 574), (902, 579), (884, 591), (873, 598), (864, 603), (846, 615), (780, 660), (746, 682), (721, 700), (695, 719), (663, 746), (644, 765), (626, 788)]",143.40556071029124,"[9, 8, 4, 6, 5, 3, 1, 2, 7]","(0, 0.25)",CHN008C,CHN,C,English,Thu Aug 30 11:12:38 2018,Mouse
1,1,3,0,76,9,9,1,491,221,270,136,0,500,200,8000,"[(960, 540), (960, 540), (960, 540), (960, 540), (960, 540), (960, 540), (960, 540), (960, 540), (960, 540), (960, 540), (960, 540), (960, 540), (960, 540), (960, 540), (960, 540), (960, 540), (960, 540), (960, 540), (960, 540), (960, 540), (960, 540), (960, 540), (961, 539), (963, 539), (965, 539), (970, 539), (973, 540), (978, 540), (981, 541), (985, 541), (989, 542), (993, 544), (995, 545), (1002, 548), (1006, 550), (1010, 551), (1014, 553), (1028, 559), (1038, 563), (1047, 566), (1057, 572), (1081, 582), (1093, 587), (1105, 592), (1122, 600), (1166, 617), (1200, 631), (1247, 643), (1288, 654), (1383, 682)]",18.55676815639698,"[9, 8, 4, 6, 5, 3, 1, 2, 7]","(0, 0.25)",CHN008C,CHN,C,English,Thu Aug 30 11:12:38 2018,Mouse
1,1,3,0,77,6,6,1,400,20,380,135,0,500,200,8000,"[(960, 542), (958, 543), (955, 548), (953, 550), (950, 552), (949, 553), (946, 555), (944, 557), (943, 558), (943, 558), (940, 559), (939, 560), (939, 561), (938, 561), (935, 563), (933, 564), (932, 565), (928, 566), (922, 570), (917, 572), (913, 574), (907, 577), (893, 586), (883, 591), (874, 596), (864, 601), (844, 612), (834, 619), (826, 625), (820, 631), (801, 650), (792, 660), (780, 672), (766, 688), (745, 713), (732, 727), (716, 741), (696, 756), (655, 791), (640, 803)]",140.5840696241729,"[9, 8, 4, 6, 5, 3, 1, 2, 7]","(0, 0.25)",CHN008C,CHN,C,English,Thu Aug 30 11:12:38 2018,Mouse
1,1,3,0,78,1,7,0,-560,460,100,134,0,500,200,8000,"[(960, 540), (960, 540), (960, 540), (960, 540), (960, 540), (960, 540), (960, 540), (960, 540), (960, 540), (960, 540), (960, 540), (960, 540), (960, 540), (960, 540), (960, 540), (960, 540), (960, 540), (960, 540), (960, 540), (960, 540), (960, 540), (960, 540), (960, 540), (960, 540), (960, 540), (960, 540), (960, 540), (960, 540), (960, 540), (960, 540), (960, 540), (960, 540), (960, 540), (960, 540), (960, 540), (960, 540), (960, 540), (960, 540), (960, 540), (960, 540), (960, 540), (960, 540), (960, 540), (960, 540), (960, 540), (962, 540), (971, 539), (982, 536), (1016, 526), (1043, 522), (1076, 513), (1121, 499), (1168, 486), (1270, 458), (1320, 444), (1359, 430)]",344.58704208324036,"[9, 8, 4, 6, 5, 3, 1, 2, 7]","(0, 0.25)",CHN008C,CHN,C,English,Thu Aug 30 11:12:38 2018,Mouse
1,1,3,0,79,5,5,1,680,580,100,135,0,500,200,8000,"[(960, 540), (960, 540), (960, 540), (960, 540), (960, 540), (960, 540), (960, 540), (960, 540), (960, 540), (960, 540), (960, 540), (960, 540), (960, 540), (960, 540), (960, 540), (960, 540), (960, 540), (960, 540), (960, 540), (960, 540), (960, 540), (960, 540), (960, 540), (960, 540), (960, 540), (960, 540), (960, 540), (960, 540), (960, 540), (960, 540), (960, 540), (960, 540), (960, 540), (960, 540), (960, 540), (960, 540), (960, 540), (960, 540), (960, 540), (960, 540), (960, 540), (960, 540), (960, 540), (960, 540), (960, 540), (960, 540), (960, 540), (960, 540), (960, 540), (960, 540), (960, 540), (960, 540), (960, 540), (960, 540), (960, 540), (960, 540), (960, 540), (958, 541), (951, 542), (943, 542), (904, 542), (870, 542), (823, 542), (779, 542), (684, 542), (634, 542), (593, 542), (554, 542)]",179.71775706372915,"[9, 8, 4, 6, 5, 3, 1, 2, 7]","(0, 0.25)",CHN008C,CHN,C,English,Thu Aug 30 11:12:38 2018,Mouse
1,1,3,0,80,5,5,1,281,171,110,135,0,500,200,8000,"[(960, 540), (960, 540), (960, 540), (960, 540), (960, 540), (960, 540), (960, 540), (960, 540), (960, 540), (960, 540), (960, 540), (960, 540), (960, 540), (960, 540), (960, 540), (960, 540), (960, 540), (961, 540), (960, 542), (951, 545), (916, 550), (885, 552), (852, 552), (807, 552), (721, 552), (677, 552), (630, 552), (582, 552), (491, 552)]",178.5343296893434,"[9, 8, 4, 6, 5, 3, 1, 2, 7]","(0, 0.25)",CHN008C,CHN,C,English,Thu Aug 30 11:12:38 2018,Mouse
1,1,3,0,81,4,6,0,-640,450,190,134,0,500,200,8000,"[(960, 540), (960, 540), (960, 540), (960, 540), (960, 540), (960, 540), (960, 540), (960, 540), (960, 540), (960, 540), (960, 540), (960, 540), (960, 540), (960, 540), (960, 540), (960, 540), (960, 540), (960, 540), (960, 540), (960, 540), (960, 540), (960, 540), (960, 540), (960, 540), (960, 540), (960, 540), (960, 540), (960, 540), (960, 540), (960, 540), (960, 540), (960, 540), (960, 540), (960, 540), (960, 540), (960, 540), (960, 540), (960, 540), (960, 540), (960, 540), (960, 540), (960, 540), (960, 540), (960, 540), (961, 540), (961, 540), (961, 542), (961, 544), (961, 545), (961, 545), (959, 548), (958, 550), (955, 552), (953, 554), (946, 559), (939, 563), (930, 568), (917, 576), (870, 603), (835, 623), (794, 649), (743, 684), (660, 746), (622, 777)]",144.96249794593155,"[9, 8, 4, 6, 5, 3, 1, 2, 7]","(0, 0.25)",CHN008C,CHN,C,English,Thu Aug 30 11:12:38 2018,Mouse
1,1,3,0,82,8,7,0,-2818,2238,580,135,0,500,200,8000,"[(960, 540), (960, 540), (960, 540), (960, 540), (960, 540), (960, 540), (960, 540), (960, 540), (960, 540), (960, 540), (960, 540), (960, 540), (960, 540), (960, 540), (960, 540), (960, 540), (960, 540), (960, 540), (960, 540), (960, 540), (960, 540), (960, 540), (960, 540), (960, 540), (960, 540), (960, 540), (960, 540), (960, 540), (960, 540), (960, 540), (960, 540), (960, 540), (960, 540), (960, 540), (960, 540), (960, 540), (960, 540), (960, 540), (960, 540), (960, 540), (960, 540), (960, 540), (960, 540), (960, 540), (960, 540), (960, 540), (960, 540), (960, 540), (960, 540), (960, 540), (960, 540), (960, 540), (960, 540), (960, 540), (960, 540), (960, 540), (960, 540), (960, 540), (960, 540), (960, 540), (960, 540), (960, 540), (960, 540), (960, 540), (960, 540), (960, 540), (960, 540), (960, 540), (960, 540), (960, 540), (960, 540), (960, 540), (960, 540), (960, 540), (960, 540), (960, 540), (960, 540), (960, 540), (960, 540), (960, 540), (960, 540), (960, 540), (960, 540), (960, 540), (960, 540), (960, 540), (960, 540), (960, 540), (960, 540), (960, 540), (960, 540), (960, 540), (960, 540), (960, 540), (960, 540), (960, 540), (960, 540), (960, 540), (960, 540), (960, 540), (960, 540), (960, 540), (960, 540), (960, 540), (960, 540), (960, 540), (960, 540), (960, 540), (960, 540), (960, 540), (960, 540), (960, 540), (960, 540), (960, 540), (960, 540), (960, 540), (960, 540), (960, 540), (960, 540), (960, 540), (960, 540), (960, 540), (960, 540), (960, 540), (960, 540), (960, 540), (960, 540), (960, 540), (960, 540), (960, 540), (960, 540), (960, 540), (960, 540), (960, 540), (960, 540), (960, 540), (960, 540), (960, 540), (960, 540), (960, 540), (960, 540), (960, 540), (960, 540), (960, 540), (960, 540), (960, 540), (960, 540), (960, 540), (960, 540), (960, 540), (960, 540), (960, 540), (960, 540), (960, 540), (960, 540), (960, 540), (960, 540), (960, 540), (960, 540), (960, 540), (960, 540), (960, 540), (960, 540), (960, 540), (960, 540), (960, 540), (960, 540), (960, 540), (960, 540), (960, 540), (960, 540), (960, 540), (960, 540), (960, 540), (960, 540), (960, 540), (960, 540), (960, 540), (960, 540), (960, 540), (960, 540), (960, 540), (960, 540), (960, 540), (960, 540), (960, 540), (960, 540), (960, 540), (960, 540), (960, 540), (960, 540), (960, 540), (960, 540), (960, 540), (960, 540), (960, 540), (960, 540), (960, 540), (960, 540), (960, 540), (960, 540), (960, 540), (960, 540), (960, 540), (960, 540), (960, 540), (960, 540), (960, 540), (960, 540), (960, 540), (960, 540), (960, 540), (960, 540), (960, 540), (960, 540), (960, 540), (960, 540), (960, 540), (960, 540), (960, 540), (960, 540), (960, 540), (960, 540), (961, 540), (962, 540), (967, 540), (971, 540), (973, 540), (976, 540), (980, 541), (981, 542), (981, 542), (981, 542), (981, 542), (981, 542), (981, 542), (981, 542), (981, 542), (981, 542), (981, 542), (981, 542), (981, 542), (981, 542), (981, 542), (981, 542), (981, 542), (981, 542), (981, 542), (981, 542), (981, 542), (981, 542), (981, 542), (981, 542), (984, 542), (985, 542), (987, 542), (988, 543), (992, 543), (995, 543), (997, 543), (999, 543), (1006, 543), (1009, 543), (1011, 543), (1015, 543), (1027, 541), (1033, 538), (1038, 536), (1045, 532), (1061, 525), (1071, 521), (1080, 519), (1089, 516), (1110, 510), (1123, 506), (1136, 503), (1150, 499), (1193, 485), (1227, 473), (1269, 457), (1307, 448), (1376, 433)]",345.5755358475947,"[9, 8, 4, 6, 5, 3, 1, 2, 7]","(0, 0.25)",CHN008C,CHN,C,English,Thu Aug 30 11:12:38 2018,Mouse
1,1,3,0,83,4,5,0,-3409,3280,129,136,0,500,200,8000,"[(960, 540), (960, 540), (960, 540), (960, 540), (960, 540), (960, 540), (960, 540), (960, 540), (960, 540), (960, 540), (960, 540), (960, 540), (960, 540), (960, 540), (960, 540), (960, 540), (960, 540), (960, 540), (960, 540), (960, 540), (960, 540), (960, 540), (960, 540), (960, 540), (960, 540), (960, 540), (960, 540), (960, 540), (960, 540), (960, 540), (960, 540), (960, 540), (960, 540), (960, 540), (960, 540), (960, 540), (960, 540), (960, 540), (960, 540), (960, 540), (960, 540), (960, 540), (960, 540), (960, 540), (960, 540), (960, 540), (960, 540), (960, 540), (960, 540), (960, 540), (960, 540), (960, 540), (960, 540), (960, 540), (960, 540), (960, 540), (960, 540), (960, 540), (960, 540), (960, 540), (960, 540), (960, 540), (960, 540), (960, 540), (960, 540), (960, 540), (960, 540), (960, 540), (960, 540), (960, 540), (960, 540), (960, 540), (960, 540), (960, 540), (960, 540), (960, 540), (960, 540), (960, 540), (960, 540), (960, 540), (960, 540), (960, 540), (960, 540), (960, 540), (960, 540), (960, 540), (960, 540), (960, 540), (960, 540), (960, 540), (960, 540), (960, 540), (960, 540), (960, 540), (960, 540), (960, 540), (960, 540), (960, 540), (960, 540), (960, 540), (960, 540), (960, 540), (960, 540), (960, 540), (960, 540), (960, 540), (960, 540), (960, 540), (960, 540), (960, 540), (960, 540), (960, 540), (960, 540), (960, 540), (960, 540), (960, 540), (960, 540), (960, 540), (960, 540), (960, 540), (960, 540), (960, 540), (960, 540), (960, 540), (960, 540), (960, 540), (960, 540), (960, 540), (960, 540), (960, 540), (960, 540), (960, 540), (960, 540), (960, 540), (960, 540), (960, 540), (960, 540), (960, 540), (960, 540), (960, 540), (960, 540), (960, 540), (960, 540), (960, 540), (960, 540), (960, 540), (960, 540), (960, 540), (960, 540), (960, 540), (960, 540), (960, 540), (960, 540), (960, 540), (960, 540), (960, 540), (960, 540), (960, 540), (960, 540), (960, 540), (960, 540), (960, 540), (960, 540), (960, 540), (960, 540), (960, 540), (960, 540), (960, 540), (960, 540), (960, 540), (960, 540), (960, 540), (960, 540), (960, 540), (960, 540), (960, 540), (960, 540), (960, 540), (960, 540), (960, 540), (960, 540), (960, 540), (960, 540), (960, 540), (960, 540), (960, 540), (960, 540), (960, 540), (960, 540), (960, 540), (960, 540), (960, 540), (960, 540), (960, 540), (960, 540), (960, 540), (960, 540), (960, 540), (960, 540), (960, 540), (960, 540), (960, 540), (960, 540), (960, 540), (960, 540), (960, 540), (960, 540), (960, 540), (960, 540), (960, 540), (960, 540), (960, 540), (960, 540), (960, 540), (960, 540), (960, 540), (960, 540), (960, 540), (960, 540), (960, 540), (960, 540), (960, 540), (960, 540), (960, 540), (960, 540), (960, 540), (960, 540), (960, 540), (960, 540), (960, 540), (960, 540), (960, 540), (960, 540), (960, 540), (960, 540), (960, 540), (960, 540), (960, 540), (960, 540), (960, 540), (960, 540), (960, 540), (960, 540), (960, 540), (960, 540), (960, 540), (960, 540), (960, 540), (960, 540), (960, 540), (960, 540), (960, 540), (960, 540), (960, 540), (960, 540), (960, 540), (960, 540), (960, 540), (960, 540), (960, 540), (960, 540), (960, 540), (960, 540), (960, 540), (960, 540), (960, 540), (960, 540), (960, 540), (960, 540), (960, 540), (960, 540), (960, 540), (960, 540), (960, 540), (960, 540), (960, 540), (960, 540), (960, 540), (960, 540), (960, 540), (960, 540), (960, 540), (960, 540), (960, 540), (960, 540), (960, 540), (960, 540), (960, 540), (960, 540), (960, 540), (960, 540), (960, 540), (960, 540), (960, 540), (960, 540), (960, 540), (960, 540), (960, 540), (960, 540), (960, 540), (960, 540), (960, 540), (960, 540), (960, 540), (960, 540), (960, 540), (960, 540), (960, 540), (960, 540), (960, 540), (960, 540), (960, 540), (960, 540), (960, 540), (960, 540), (960, 540), (960, 540), (960, 540), (960, 540), (960, 540), (960, 540), (960, 540), (960, 540), (960, 540), (960, 540), (960, 540), (960, 540), (956, 541), (951, 543), (934, 547), (922, 548), (907, 548), (889, 548), (841, 548), (813, 548), (782, 548), (749, 548), (707, 548), (619, 548), (571, 548), (521, 548)]",178.9560011226287,"[9, 8, 4, 6, 5, 3, 1, 2, 7]","(0, 0.25)",CHN008C,CHN,C,English,Thu Aug 30 11:12:38 2018,Mouse
1,1,3,0,84,2,2,1,531,381,150,137,0,500,200,8000,"[(960, 540), (960, 540), (960, 540), (960, 540), (960, 540), (960, 540), (960, 540), (960, 540), (960, 540), (960, 540), (960, 540), (960, 540), (960, 540), (960, 540), (960, 540), (960, 540), (960, 540), (960, 540), (960, 540), (960, 540), (960, 540), (960, 540), (960, 540), (960, 540), (960, 540), (960, 540), (960, 540), (960, 540), (960, 540), (960, 540), (960, 540), (960, 540), (960, 540), (960, 540), (960, 540), (960, 540), (960, 540), (960, 540), (961, 540), (964, 539), (966, 535), (972, 524), (979, 517), (984, 509), (988, 503), (1001, 489), (1010, 482), (1021, 470), (1035, 455), (1076, 406), (1096, 370), (1117, 332), (1144, 280), (1186, 189)]",302.77645811553197,"[9, 8, 4, 6, 5, 3, 1, 2, 7]","(0, 0.25)",CHN008C,CHN,C,English,Thu Aug 30 11:12:38 2018,Mouse
1,1,3,0,85,8,8,1,311,41,270,137,0,500,200,8000,"[(960, 540), (960, 540), (960, 540), (960, 540), (959, 540), (959, 543), (959, 545), (959, 547), (959, 549), (959, 550), (960, 551), (962, 553), (962, 555), (963, 556), (965, 558), (969, 563), (971, 565), (974, 571), (982, 580), (998, 597), (1004, 604), (1015, 615), (1025, 624), (1040, 638), (1049, 647), (1063, 663), (1081, 688), (1134, 766), (1156, 799), (1174, 829), (1188, 854), (1204, 886)]",54.80842100482706,"[9, 8, 4, 6, 5, 3, 1, 2, 7]","(0, 0.25)",CHN008C,CHN,C,English,Thu Aug 30 11:12:38 2018,Mouse
1,1,3,0,86,4,4,1,280,70,210,136,0,500,200,8000,"[(960, 540), (960, 540), (960, 540), (960, 540), (960, 540), (960, 540), (959, 540), (959, 540), (959, 540), (957, 541), (956, 541), (956, 543), (953, 546), (953, 548), (951, 558), (948, 568), (945, 583), (941, 599), (934, 650), (926, 673), (918, 698), (906, 727), (883, 782), (871, 811), (860, 835), (853, 857), (843, 906), (839, 933)]",107.11297316338504,"[9, 8, 4, 6, 5, 3, 1, 2, 7]","(0, 0.25)",CHN008C,CHN,C,English,Thu Aug 30 11:12:38 2018,Mouse
1,1,3,0,87,2,2,1,581,461,120,135,0,500,200,8000,"[(960, 540), (960, 540), (960, 540), (960, 540), (960, 540), (960, 540), (960, 540), (960, 540), (960, 540), (960, 540), (960, 540), (960, 540), (960, 540), (960, 540), (960, 540), (960, 540), (960, 540), (960, 540), (960, 540), (960, 540), (960, 540), (960, 540), (960, 540), (960, 540), (960, 540), (960, 540), (960, 540), (960, 540), (960, 540), (960, 540), (960, 540), (960, 540), (960, 540), (960, 540), (960, 540), (960, 540), (960, 540), (960, 540), (960, 540), (960, 540), (960, 540), (960, 540), (960, 540), (960, 540), (960, 540), (960, 540), (966, 532), (967, 531), (970, 527), (973, 522), (980, 513), (982, 508), (988, 500), (992, 489), (1016, 415), (1031, 360), (1047, 307), (1061, 255), (1096, 149)]",289.17900802581073,"[9, 8, 4, 6, 5, 3, 1, 2, 7]","(0, 0.25)",CHN008C,CHN,C,English,Thu Aug 30 11:12:38 2018,Mouse
1,1,3,0,88,7,1,0,-431,291,140,134,0,500,200,8000,"[(960, 540), (960, 540), (960, 540), (960, 540), (960, 540), (960, 540), (960, 540), (960, 540), (960, 540), (960, 540), (960, 540), (960, 540), (960, 540), (960, 540), (960, 540), (960, 540), (960, 540), (960, 540), (960, 540), (960, 540), (960, 540), (960, 540), (960, 540), (960, 540), (960, 540), (960, 540), (960, 540), (960, 540), (960, 540), (958, 540), (955, 535), (948, 520), (945, 513), (944, 505), (941, 495), (932, 466), (924, 436), (918, 395), (914, 347), (904, 283), (900, 243), (895, 211), (890, 173), (879, 106)]",259.428177560524,"[9, 8, 4, 6, 5, 3, 1, 2, 7]","(0, 0.25)",CHN008C,CHN,C,English,Thu Aug 30 11:12:38 2018,Mouse
1,1,3,0,89,9,9,1,901,341,560,135,0,500,200,8000,"[(960, 540), (960, 540), (960, 540), (960, 540), (960, 540), (960, 540), (960, 540), (960, 540), (960, 540), (960, 540), (960, 540), (960, 540), (960, 540), (960, 540), (960, 540), (960, 540), (960, 540), (960, 540), (960, 540), (960, 540), (960, 540), (960, 540), (960, 540), (960, 540), (960, 540), (960, 540), (960, 540), (960, 540), (960, 540), (960, 540), (960, 540), (960, 540), (960, 540), (960, 540), (963, 543), (967, 549), (972, 551), (979, 556), (995, 562), (1005, 565), (1019, 571), (1029, 575), (1055, 583), (1065, 585), (1079, 592), (1092, 597), (1124, 608), (1138, 613), (1154, 615), (1166, 620), (1195, 628), (1207, 632), (1220, 635), (1230, 638), (1251, 644), (1260, 647), (1268, 649), (1275, 650), (1283, 652), (1285, 652), (1286, 653), (1286, 653), (1286, 653), (1286, 653), (1286, 653), (1286, 653), (1286, 653), (1286, 653), (1286, 653), (1286, 653), (1286, 653), (1286, 653), (1286, 653), (1286, 653), (1286, 653), (1286, 653), (1286, 653), (1286, 653), (1286, 653), (1286, 653), (1286, 653), (1286, 653), (1286, 653), (1288, 654), (1291, 656), (1294, 656), (1306, 658), (1312, 660), (1321, 662), (1331, 664), (1352, 670)]",18.347206503283775,"[9, 8, 4, 6, 5, 3, 1, 2, 7]","(0, 0.25)",CHN008C,CHN,C,English,Thu Aug 30 11:12:38 2018,Mouse
1,1,3,0,90,3,5,0,-640,389,251,135,0,500,200,8000,"[(960, 540), (960, 540), (960, 540), (960, 540), (960, 540), (960, 540), (960, 540), (960, 540), (960, 540), (960, 540), (960, 540), (960, 540), (960, 540), (960, 540), (960, 540), (960, 540), (960, 540), (960, 540), (960, 540), (960, 540), (960, 540), (960, 540), (960, 540), (960, 540), (960, 540), (960, 540), (960, 540), (960, 540), (960, 540), (960, 540), (960, 540), (960, 540), (960, 540), (960, 540), (960, 540), (960, 540), (960, 540), (960, 540), (959, 540), (958, 540), (955, 540), (954, 540), (951, 540), (942, 541), (938, 541), (934, 541), (930, 541), (916, 541), (909, 541), (901, 541), (893, 541), (868, 541), (855, 541), (836, 541), (816, 541), (772, 541), (749, 541), (724, 541), (696, 541), (640, 541), (610, 541), (587, 541), (568, 541), (537, 541)]",179.86454923693842,"[9, 8, 4, 6, 5, 3, 1, 2, 7]","(0, 0.25)",CHN008C,CHN,C,English,Thu Aug 30 11:12:38 2018,Mouse
1,1,3,0,91,7,7,1,441,211,230,136,0,500,200,8000,"[(960, 540), (960, 540), (960, 540), (960, 540), (960, 540), (960, 540), (960, 540), (960, 540), (960, 540), (960, 540), (960, 540), (960, 540), (960, 540), (960, 540), (960, 540), (960, 540), (960, 540), (960, 540), (960, 540), (960, 540), (960, 540), (963, 540), (967, 540), (979, 540), (986, 540), (996, 541), (1006, 542), (1025, 542), (1034, 542), (1044, 542), (1051, 542), (1069, 542), (1081, 538), (1091, 534), (1100, 528), (1125, 512), (1135, 506), (1145, 499), (1157, 494), (1191, 476), (1215, 463), (1235, 456), (1255, 450), (1330, 428), (1360, 423)]",343.6958019961677,"[9, 8, 4, 6, 5, 3, 1, 2, 7]","(0, 0.25)",CHN008C,CHN,C,English,Thu Aug 30 11:12:38 2018,Mouse
1,1,3,0,92,8,7,0,-1141,291,850,136,0,500,200,8000,"[(960, 540), (960, 540), (960, 540), (960, 540), (960, 540), (960, 540), (960, 540), (960, 540), (960, 540), (960, 540), (960, 540), (960, 540), (960, 540), (960, 540), (960, 540), (960, 540), (960, 540), (960, 540), (960, 540), (960, 540), (960, 540), (960, 540), (960, 540), (960, 540), (960, 540), (960, 540), (960, 540), (960, 540), (960, 540), (962, 540), (967, 540), (970, 540), (972, 540), (975, 540), (980, 540), (982, 540), (984, 540), (985, 540), (987, 540), (988, 540), (988, 540), (989, 540), (992, 540), (996, 540), (1000, 541), (1003, 543), (1013, 546), (1019, 547), (1028, 549), (1035, 552), (1053, 558), (1063, 560), (1079, 565), (1092, 568), (1126, 577), (1143, 582), (1163, 588), (1185, 592), (1221, 603), (1244, 611), (1258, 613), (1269, 616), (1285, 621), (1289, 621), (1290, 622), (1290, 622), (1290, 622), (1290, 622), (1290, 622), (1290, 622), (1290, 622), (1290, 622), (1290, 622), (1290, 622), (1290, 622), (1290, 622), (1290, 622), (1290, 622), (1290, 622), (1290, 622), (1290, 622), (1290, 622), (1290, 622), (1290, 622), (1290, 622), (1290, 622), (1290, 622), (1290, 622), (1290, 622), (1290, 622), (1290, 622), (1290, 622), (1290, 622), (1290, 622), (1290, 622), (1290, 622), (1290, 622), (1290, 622), (1296, 615), (1300, 603), (1306, 591), (1311, 578), (1318, 552), (1322, 541), (1328, 529), (1332, 518), (1338, 506), (1341, 500), (1344, 497), (1346, 494), (1350, 491), (1352, 489), (1354, 489), (1355, 488), (1359, 488)]",352.5747310815751,"[9, 8, 4, 6, 5, 3, 1, 2, 7]","(0, 0.25)",CHN008C,CHN,C,English,Thu Aug 30 11:12:38 2018,Mouse
1,1,3,0,93,3,3,1,660,200,460,137,0,500,200,8000,"[(960, 540), (960, 540), (960, 540), (960, 540), (960, 540), (960, 540), (960, 540), (960, 540), (960, 540), (960, 540), (960, 540), (960, 540), (960, 540), (960, 540), (960, 540), (960, 540), (960, 540), (960, 540), (960, 540), (959, 539), (958, 537), (958, 534), (956, 530), (956, 528), (955, 527), (955, 525), (955, 524), (955, 523), (955, 523), (955, 523), (955, 523), (955, 523), (955, 523), (955, 523), (955, 523), (955, 523), (955, 523), (955, 523), (955, 523), (955, 523), (955, 523), (955, 523), (955, 523), (955, 522), (954, 521), (952, 521), (946, 520), (940, 517), (934, 514), (930, 511), (911, 501), (902, 496), (892, 490), (880, 482), (842, 454), (822, 438), (795, 411), (770, 385), (737, 354), (719, 339), (702, 326), (684, 313), (665, 299), (658, 293), (653, 288), (646, 281)]",219.51720219272875,"[9, 8, 4, 6, 5, 3, 1, 2, 7]","(0, 0.25)",CHN008C,CHN,C,English,Thu Aug 30 11:12:38 2018,Mouse
1,1,3,0,94,8,8,1,521,291,230,137,0,500,200,8000,"[(960, 540), (960, 540), (960, 540), (960, 540), (960, 540), (960, 540), (960, 540), (960, 540), (960, 540), (960, 540), (960, 540), (960, 540), (960, 540), (960, 540), (960, 540), (960, 540), (960, 540), (960, 540), (960, 540), (960, 540), (960, 540), (960, 540), (960, 540), (960, 540), (960, 540), (960, 540), (960, 540), (960, 540), (960, 540), (960, 542), (960, 545), (961, 546), (964, 550), (966, 551), (968, 553), (969, 554), (972, 557), (975, 560), (979, 565), (981, 569), (989, 579), (993, 584), (996, 590), (1000, 596), (1012, 617), (1019, 629), (1027, 642), (1034, 653), (1063, 699), (1095, 753), (1129, 811), (1161, 868), (1210, 953)]",58.812353461972705,"[9, 8, 4, 6, 5, 3, 1, 2, 7]","(0, 0.25)",CHN008C,CHN,C,English,Thu Aug 30 11:12:38 2018,Mouse
1,1,3,0,95,5,5,1,510,30,480,136,0,500,200,8000,"[(960, 540), (960, 540), (958, 539), (953, 539), (945, 539), (935, 539), (912, 536), (898, 533), (886, 532), (869, 530), (865, 530), (864, 530), (862, 530), (862, 530), (862, 530), (862, 530), (862, 530), (862, 530), (862, 530), (862, 530), (862, 530), (862, 530), (862, 530), (862, 530), (862, 530), (862, 530), (861, 530), (861, 530), (861, 530), (861, 530), (861, 530), (861, 530), (861, 530), (861, 530), (861, 530), (861, 530), (859, 530), (858, 530), (856, 530), (854, 530), (850, 530), (838, 530), (830, 530), (819, 530), (803, 530), (760, 530), (733, 530), (699, 530), (666, 530), (580, 530), (534, 527)]",181.74792030465113,"[9, 8, 4, 6, 5, 3, 1, 2, 7]","(0, 0.25)",CHN008C,CHN,C,English,Thu Aug 30 11:12:38 2018,Mouse
1,1,3,0,96,9,6,0,-721,400,321,135,0,500,200,8000,"[(960, 540), (960, 540), (960, 540), (960, 540), (960, 540), (960, 540), (960, 540), (960, 540), (960, 540), (960, 540), (960, 540), (960, 540), (960, 540), (960, 540), (960, 540), (960, 540), (960, 540), (960, 540), (960, 540), (960, 540), (960, 540), (960, 540), (960, 540), (960, 540), (960, 540), (960, 540), (960, 540), (960, 540), (960, 540), (960, 540), (960, 540), (960, 540), (960, 540), (960, 540), (960, 540), (960, 540), (960, 540), (960, 540), (960, 540), (960, 541), (960, 541), (960, 542), (960, 545), (960, 546), (960, 548), (959, 549), (957, 554), (954, 556), (951, 560), (948, 562), (934, 573), (930, 575), (921, 580), (912, 585), (895, 595), (886, 601), (875, 606), (861, 615), (799, 651), (776, 665), (759, 678), (749, 686), (725, 708), (716, 715), (708, 724), (701, 733), (687, 755), (681, 766), (676, 775), (672, 786), (662, 802), (658, 806)]",138.62657178387963,"[9, 8, 4, 6, 5, 3, 1, 2, 7]","(0, 0.25)",CHN008C,CHN,C,English,Thu Aug 30 11:12:38 2018,Mouse
1,1,3,0,97,7,7,1,410,250,160,136,0,500,200,8000,"[(960, 540), (960, 540), (960, 540), (960, 540), (960, 540), (960, 540), (960, 540), (960, 540), (960, 540), (960, 540), (960, 540), (960, 540), (960, 540), (960, 540), (960, 540), (960, 540), (960, 540), (960, 540), (960, 540), (960, 540), (960, 540), (960, 540), (960, 540), (960, 540), (962, 540), (976, 538), (986, 537), (996, 535), (1010, 531), (1041, 525), (1058, 524), (1083, 519), (1112, 516), (1160, 508), (1175, 507), (1194, 503), (1216, 497), (1272, 481), (1304, 469), (1338, 452), (1368, 437)]",345.8316627499404,"[9, 8, 4, 6, 5, 3, 1, 2, 7]","(0, 0.25)",CHN008C,CHN,C,English,Thu Aug 30 11:12:38 2018,Mouse
1,1,3,0,98,9,9,1,570,340,230,136,0,500,200,8000,"[(960, 540), (960, 540), (960, 540), (960, 540), (960, 540), (960, 540), (960, 540), (960, 540), (960, 540), (960, 540), (960, 540), (960, 540), (960, 540), (960, 540), (960, 540), (960, 540), (960, 540), (960, 540), (960, 540), (960, 540), (960, 540), (960, 540), (960, 540), (960, 540), (960, 540), (960, 540), (960, 540), (960, 540), (960, 540), (960, 540), (960, 540), (960, 540), (960, 540), (959, 541), (959, 541), (959, 542), (960, 542), (961, 543), (962, 543), (966, 545), (967, 545), (970, 546), (972, 548), (978, 550), (983, 553), (991, 558), (1000, 564), (1023, 576), (1036, 583), (1058, 598), (1091, 616), (1159, 652), (1194, 671), (1223, 683), (1255, 697), (1319, 716), (1351, 723)]",25.081036501415884,"[9, 8, 4, 6, 5, 3, 1, 2, 7]","(0, 0.25)",CHN008C,CHN,C,English,Thu Aug 30 11:12:38 2018,Mouse
1,1,3,0,99,9,6,0,-691,371,320,135,0,500,200,8000,"[(960, 540), (960, 540), (960, 540), (960, 540), (960, 540), (960, 540), (960, 540), (960, 540), (960, 540), (960, 540), (960, 540), (960, 540), (960, 540), (960, 540), (960, 540), (960, 540), (960, 540), (960, 540), (960, 540), (960, 540), (960, 540), (960, 540), (960, 540), (960, 540), (960, 540), (960, 540), (960, 540), (960, 540), (960, 540), (960, 540), (960, 540), (960, 540), (960, 540), (960, 540), (960, 540), (960, 540), (960, 540), (959, 541), (956, 547), (956, 549), (955, 552), (953, 554), (953, 557), (952, 558), (951, 560), (950, 560), (946, 564), (942, 566), (938, 568), (934, 571), (927, 574), (923, 576), (920, 577), (914, 579), (901, 582), (895, 584), (890, 586), (883, 591), (861, 607), (848, 620), (834, 636), (822, 648), (793, 684), (769, 704), (751, 719), (726, 739), (692, 763), (672, 777), (652, 791), (633, 801)]",141.40435272638416,"[9, 8, 4, 6, 5, 3, 1, 2, 7]","(0, 0.25)",CHN008C,CHN,C,English,Thu Aug 30 11:12:38 2018,Mouse
1,1,3,0,100,9,9,1,300,70,230,136,0,500,200,8000,"[(960, 540), (960, 540), (960, 540), (960, 540), (960, 540), (960, 540), (960, 539), (962, 539), (962, 539), (963, 539), (966, 539), (970, 539), (973, 539), (976, 539), (980, 539), (993, 539), (1001, 539), (1008, 539), (1019, 539), (1046, 539), (1061, 539), (1076, 539), (1090, 539), (1129, 539), (1154, 539), (1190, 539), (1230, 543), (1305, 563), (1355, 577), (1394, 588)]",6.311210575132623,"[9, 8, 4, 6, 5, 3, 1, 2, 7]","(0, 0.25)",CHN008C,CHN,C,English,Thu Aug 30 11:12:38 2018,Mouse
1,1,3,0,101,3,3,1,529,349,180,136,0,500,200,8000,"[(960, 540), (960, 540), (960, 540), (960, 540), (960, 540), (960, 540), (960, 540), (960, 540), (960, 540), (960, 540), (960, 540), (960, 540), (960, 540), (960, 540), (960, 540), (960, 540), (960, 540), (960, 540), (960, 540), (960, 540), (960, 540), (960, 540), (960, 540), (960, 540), (960, 540), (960, 540), (960, 540), (960, 540), (960, 540), (960, 540), (960, 540), (960, 540), (960, 540), (960, 540), (960, 539), (960, 537), (960, 536), (960, 535), (960, 534), (959, 530), (959, 530), (958, 529), (955, 526), (942, 520), (929, 514), (908, 506), (882, 494), (807, 456), (766, 433), (733, 413), (697, 390), (632, 342), (604, 323)]",211.36441978786567,"[9, 8, 4, 6, 5, 3, 1, 2, 7]","(0, 0.25)",CHN008C,CHN,C,English,Thu Aug 30 11:12:38 2018,Mouse
1,1,3,0,102,3,3,1,429,249,180,135,0,500,200,8000,"[(960, 540), (960, 540), (960, 540), (960, 540), (960, 540), (960, 540), (960, 540), (960, 540), (960, 540), (960, 540), (960, 540), (960, 540), (960, 540), (960, 540), (960, 540), (960, 540), (960, 540), (960, 540), (960, 540), (960, 540), (960, 540), (960, 540), (960, 540), (960, 540), (957, 539), (952, 536), (940, 529), (930, 523), (917, 516), (907, 511), (881, 491), (866, 479), (845, 461), (833, 450), (810, 425), (798, 410), (784, 394), (771, 377), (737, 332), (720, 307), (704, 288), (686, 265), (664, 234)]",225.9516696081786,"[9, 8, 4, 6, 5, 3, 1, 2, 7]","(0, 0.25)",CHN008C,CHN,C,English,Thu Aug 30 11:12:38 2018,Mouse
