NativeLangNumber,LanuageNumber,SessionNumber,Block,TrialNum,ConditionNumber,Response,Accuracy,RT,MovementOnsetTime,TimeInMotion,SignalContrast,SignalContrastNumber,StimDisplayTime,MaskTime,MaxResponseTime,MousePositionXY,MouseAngle,WheelOrder,NoiseMuSigma,ParticipantID,LanuageTested,SessionTested,NativeLanuage,Date,ResponseDevice
1,1,2,0,1,6,6,1,1415,1175,240,153,0,500,200,8000,"[(960, 540), (960, 540), (960, 540), (960, 540), (960, 540), (960, 540), (960, 540), (960, 540), (960, 540), (960, 540), (960, 540), (960, 540), (960, 540), (960, 540), (960, 540), (960, 540), (960, 540), (960, 540), (960, 540), (960, 540), (960, 540), (960, 540), (960, 540), (960, 540), (960, 540), (960, 540), (960, 540), (960, 540), (960, 540), (960, 540), (960, 540), (960, 540), (960, 540), (960, 540), (960, 540), (960, 540), (960, 540), (960, 540), (960, 540), (960, 540), (960, 540), (960, 540), (960, 540), (960, 540), (960, 540), (960, 540), (960, 540), (960, 540), (960, 540), (960, 540), (960, 540), (960, 540), (960, 540), (960, 540), (960, 540), (960, 540), (960, 540), (960, 540), (960, 540), (960, 540), (960, 540), (960, 540), (960, 540), (960, 540), (960, 540), (960, 540), (960, 540), (960, 540), (960, 540), (960, 540), (960, 540), (960, 540), (960, 540), (960, 540), (960, 540), (960, 540), (960, 540), (960, 540), (960, 540), (960, 540), (960, 540), (960, 540), (960, 540), (960, 540), (960, 540), (960, 540), (960, 540), (960, 540), (960, 540), (960, 540), (960, 540), (960, 540), (960, 540), (960, 540), (960, 540), (960, 540), (960, 540), (960, 540), (960, 540), (960, 540), (960, 540), (960, 540), (960, 540), (960, 540), (960, 540), (960, 540), (960, 540), (960, 540), (960, 540), (960, 540), (960, 540), (960, 540), (960, 540), (960, 540), (960, 540), (960, 540), (960, 540), (960, 539), (960, 539), (960, 540), (960, 544), (960, 548), (960, 554), (962, 569), (964, 576), (967, 585), (973, 598), (985, 624), (990, 637), (998, 648), (1005, 661), (1031, 698), (1048, 721), (1060, 742), (1076, 762), (1095, 795), (1102, 811), (1111, 825), (1120, 838), (1140, 869), (1151, 883), (1158, 894)]",60.7807533095154,"[4, 6, 7, 9, 8, 5, 3, 1, 2]","(0, 0.25)",CHN004B,CHN,B,English,Thu Aug 09 14:59:39 2018,Mouse
1,1,2,0,2,7,7,1,1749,460,1289,153,0,500,200,8000,"[(960, 540), (960, 540), (960, 540), (960, 540), (960, 540), (960, 540), (960, 540), (960, 540), (960, 540), (960, 540), (960, 540), (960, 540), (960, 540), (960, 540), (960, 540), (960, 540), (960, 540), (960, 540), (960, 540), (960, 540), (960, 540), (960, 540), (960, 540), (960, 540), (960, 540), (960, 540), (960, 540), (960, 540), (960, 540), (960, 540), (960, 540), (960, 540), (960, 540), (960, 540), (960, 540), (960, 540), (960, 540), (960, 540), (960, 540), (960, 540), (960, 540), (960, 540), (960, 540), (960, 540), (960, 540), (960, 539), (960, 539), (959, 538), (959, 538), (959, 538), (959, 538), (959, 538), (959, 538), (959, 538), (959, 538), (958, 538), (958, 538), (958, 538), (958, 538), (958, 538), (958, 538), (958, 538), (958, 538), (958, 538), (958, 538), (958, 538), (958, 538), (958, 538), (958, 538), (958, 538), (958, 538), (958, 538), (958, 538), (958, 538), (958, 538), (958, 538), (958, 538), (958, 538), (958, 538), (958, 538), (958, 538), (958, 538), (958, 538), (958, 538), (958, 538), (958, 538), (958, 538), (958, 538), (958, 538), (958, 538), (958, 538), (958, 538), (958, 538), (958, 538), (958, 538), (958, 538), (958, 538), (958, 538), (958, 538), (958, 538), (958, 538), (958, 538), (958, 538), (958, 538), (958, 538), (958, 538), (958, 538), (958, 538), (958, 538), (958, 538), (958, 538), (958, 538), (958, 538), (958, 538), (958, 538), (958, 538), (958, 538), (958, 538), (956, 538), (955, 540), (955, 542), (954, 547), (954, 550), (952, 555), (952, 557), (952, 560), (952, 561), (952, 562), (952, 562), (952, 562), (952, 562), (952, 562), (952, 562), (952, 562), (952, 562), (952, 562), (952, 564), (951, 569), (950, 576), (949, 583), (949, 594), (947, 617), (946, 631), (944, 644), (941, 657), (938, 684), (934, 700), (932, 716), (928, 735), (923, 766), (921, 782), (918, 795), (915, 806), (911, 822), (910, 825), (910, 828), (910, 828), (910, 828), (910, 828), (910, 828), (910, 828), (908, 830), (908, 832), (907, 833), (906, 836), (903, 841), (902, 844), (900, 847), (899, 849), (896, 856), (894, 862), (891, 874), (888, 886), (876, 924), (870, 949)]",102.41009090517461,"[4, 6, 7, 9, 8, 5, 3, 1, 2]","(0, 0.25)",CHN004B,CHN,B,English,Thu Aug 09 14:59:39 2018,Mouse
1,1,2,0,3,5,5,1,2180,2080,100,152,0,500,200,8000,"[(960, 540), (960, 540), (960, 540), (960, 540), (960, 540), (960, 540), (960, 540), (960, 540), (960, 540), (960, 540), (960, 540), (960, 540), (960, 540), (960, 540), (960, 540), (960, 540), (960, 540), (960, 540), (960, 540), (960, 540), (960, 540), (960, 540), (960, 540), (960, 540), (960, 540), (960, 540), (960, 540), (960, 540), (960, 540), (960, 540), (960, 540), (960, 540), (960, 540), (960, 540), (960, 540), (960, 540), (960, 540), (960, 540), (960, 540), (960, 540), (960, 540), (960, 540), (960, 540), (960, 540), (960, 540), (960, 540), (960, 540), (960, 540), (960, 540), (960, 540), (960, 540), (960, 540), (960, 540), (960, 540), (960, 540), (960, 540), (960, 540), (960, 540), (960, 540), (960, 540), (960, 540), (960, 540), (960, 540), (960, 540), (960, 540), (960, 540), (960, 540), (960, 540), (960, 540), (960, 540), (960, 540), (960, 540), (960, 540), (960, 540), (960, 540), (960, 540), (960, 540), (960, 540), (960, 540), (960, 540), (960, 540), (960, 540), (960, 540), (960, 540), (960, 540), (960, 540), (960, 540), (960, 540), (960, 540), (960, 540), (960, 540), (960, 540), (960, 540), (960, 540), (960, 540), (960, 540), (960, 540), (960, 540), (960, 540), (960, 540), (960, 540), (960, 540), (960, 540), (960, 540), (960, 540), (960, 540), (960, 540), (960, 540), (960, 540), (960, 540), (960, 540), (960, 540), (960, 540), (960, 540), (960, 540), (960, 540), (960, 540), (960, 540), (960, 540), (960, 540), (960, 540), (960, 540), (960, 540), (960, 540), (960, 540), (960, 540), (960, 540), (960, 540), (960, 540), (960, 540), (960, 540), (960, 540), (960, 540), (960, 540), (960, 540), (960, 540), (960, 540), (960, 540), (960, 540), (960, 540), (960, 540), (960, 540), (960, 540), (960, 540), (960, 540), (960, 540), (960, 540), (960, 540), (960, 540), (960, 540), (960, 540), (960, 540), (960, 540), (960, 540), (960, 540), (960, 540), (960, 540), (960, 540), (960, 540), (960, 540), (960, 540), (960, 540), (960, 540), (960, 540), (960, 540), (960, 540), (960, 540), (960, 540), (960, 540), (960, 540), (960, 540), (960, 540), (960, 540), (960, 540), (960, 540), (960, 540), (960, 540), (960, 540), (960, 540), (960, 540), (960, 540), (960, 540), (960, 540), (960, 540), (960, 540), (960, 540), (960, 540), (960, 540), (960, 540), (960, 540), (960, 540), (960, 540), (960, 540), (960, 540), (960, 540), (960, 540), (960, 540), (960, 540), (960, 540), (960, 540), (960, 540), (960, 540), (960, 540), (960, 540), (960, 540), (960, 540), (960, 540), (956, 539), (945, 529), (935, 520), (924, 511), (910, 498), (851, 453), (812, 425), (775, 392), (737, 359), (681, 295), (663, 265)]",222.79740183823418,"[4, 6, 7, 9, 8, 5, 3, 1, 2]","(0, 0.25)",CHN004B,CHN,B,English,Thu Aug 09 14:59:39 2018,Mouse
1,1,2,0,4,9,9,1,580,500,80,151,0,500,200,8000,"[(960, 540), (960, 540), (960, 540), (960, 540), (960, 540), (960, 540), (960, 540), (960, 540), (960, 540), (960, 540), (960, 540), (960, 540), (960, 540), (960, 540), (960, 540), (960, 540), (960, 540), (960, 540), (960, 540), (960, 540), (960, 540), (960, 540), (960, 540), (960, 540), (960, 540), (960, 540), (960, 540), (960, 540), (960, 540), (960, 540), (960, 540), (960, 540), (960, 540), (960, 540), (960, 540), (960, 540), (960, 540), (960, 540), (960, 540), (960, 540), (960, 540), (960, 540), (960, 540), (960, 540), (960, 540), (960, 540), (960, 540), (960, 540), (960, 540), (951, 547), (940, 556), (924, 571), (898, 593), (834, 654), (786, 691), (727, 739), (670, 789), (558, 884)]",139.4456883534957,"[4, 6, 7, 9, 8, 5, 3, 1, 2]","(0, 0.25)",CHN004B,CHN,B,English,Thu Aug 09 14:59:39 2018,Mouse
1,1,2,0,5,1,1,1,1112,892,220,150,0,500,200,8000,"[(960, 540), (960, 540), (960, 540), (960, 540), (960, 540), (960, 540), (960, 540), (960, 540), (960, 540), (960, 540), (960, 540), (960, 540), (960, 540), (960, 540), (960, 540), (960, 540), (960, 540), (960, 540), (960, 540), (960, 540), (960, 540), (960, 540), (960, 540), (960, 540), (960, 540), (960, 540), (960, 540), (960, 540), (960, 540), (960, 540), (960, 540), (960, 540), (960, 540), (960, 540), (960, 540), (960, 540), (960, 540), (960, 540), (960, 540), (960, 540), (960, 540), (960, 540), (960, 540), (960, 540), (960, 540), (960, 540), (960, 540), (960, 540), (960, 540), (960, 540), (960, 540), (960, 540), (960, 540), (960, 540), (960, 540), (960, 540), (960, 540), (960, 540), (960, 540), (960, 540), (960, 540), (960, 540), (960, 540), (960, 540), (960, 540), (960, 540), (960, 540), (960, 540), (960, 540), (960, 540), (960, 540), (960, 540), (960, 540), (960, 540), (960, 540), (960, 540), (960, 540), (960, 540), (960, 540), (960, 540), (960, 540), (960, 540), (960, 540), (960, 540), (960, 540), (960, 540), (960, 540), (960, 540), (960, 540), (961, 539), (962, 536), (965, 523), (969, 515), (971, 501), (980, 486), (995, 450), (1004, 429), (1010, 414), (1013, 403), (1022, 382), (1027, 372), (1030, 363), (1033, 352), (1039, 331), (1042, 318), (1047, 304), (1051, 290), (1062, 259), (1074, 238), (1085, 221), (1097, 202), (1128, 168)]",294.3045492659367,"[4, 6, 7, 9, 8, 5, 3, 1, 2]","(0, 0.25)",CHN004B,CHN,B,English,Thu Aug 09 14:59:39 2018,Mouse
1,1,2,0,6,5,5,1,1479,639,840,149,0,500,200,8000,"[(960, 540), (960, 540), (960, 540), (960, 540), (960, 540), (960, 540), (960, 540), (960, 540), (960, 540), (960, 540), (960, 540), (960, 540), (960, 540), (960, 540), (960, 540), (960, 540), (960, 540), (960, 540), (960, 540), (960, 540), (960, 540), (960, 540), (960, 540), (960, 540), (960, 540), (960, 540), (960, 540), (960, 540), (960, 540), (960, 540), (960, 540), (960, 540), (960, 540), (960, 540), (960, 540), (960, 540), (960, 540), (960, 540), (960, 540), (960, 540), (960, 540), (960, 540), (960, 540), (960, 540), (960, 540), (960, 540), (960, 540), (960, 540), (960, 540), (960, 540), (960, 540), (960, 540), (960, 540), (960, 540), (960, 540), (960, 540), (960, 540), (960, 540), (960, 540), (960, 540), (960, 540), (960, 540), (960, 540), (959, 539), (959, 535), (959, 532), (959, 529), (959, 528), (959, 528), (959, 528), (959, 528), (959, 528), (959, 528), (959, 528), (959, 528), (959, 528), (959, 528), (959, 528), (959, 528), (959, 528), (959, 528), (959, 528), (959, 527), (958, 527), (958, 527), (958, 527), (958, 527), (957, 527), (957, 527), (957, 527), (956, 527), (956, 527), (956, 527), (956, 527), (956, 527), (956, 527), (956, 527), (956, 527), (956, 527), (956, 527), (956, 527), (956, 527), (956, 527), (956, 527), (956, 527), (956, 527), (956, 527), (956, 527), (956, 527), (956, 527), (956, 527), (956, 527), (956, 527), (956, 527), (956, 527), (956, 527), (956, 525), (956, 522), (956, 515), (956, 511), (956, 508), (956, 504), (954, 497), (953, 495), (952, 492), (949, 488), (939, 478), (932, 472), (923, 467), (911, 461), (884, 451), (871, 448), (851, 444), (833, 442), (788, 442), (761, 439), (733, 439), (707, 434), (658, 425), (641, 420), (632, 414), (622, 410), (611, 401), (607, 397), (604, 391), (602, 388), (594, 379), (589, 374)]",204.10562077654214,"[4, 6, 7, 9, 8, 5, 3, 1, 2]","(0, 0.25)",CHN004B,CHN,B,English,Thu Aug 09 14:59:39 2018,Mouse
1,1,2,0,7,7,7,1,739,509,230,148,0,500,200,8000,"[(960, 540), (960, 540), (960, 540), (960, 540), (960, 540), (960, 540), (960, 540), (960, 540), (960, 540), (960, 540), (960, 540), (960, 540), (960, 540), (960, 540), (960, 540), (960, 540), (960, 540), (960, 540), (960, 540), (960, 540), (960, 540), (960, 540), (960, 540), (960, 540), (960, 540), (960, 540), (960, 540), (960, 540), (960, 540), (960, 540), (960, 540), (960, 540), (960, 540), (960, 540), (960, 540), (960, 540), (960, 540), (960, 540), (960, 540), (960, 540), (960, 540), (960, 540), (960, 540), (960, 540), (960, 540), (960, 540), (960, 540), (960, 540), (960, 540), (960, 540), (959, 540), (957, 540), (955, 542), (953, 544), (949, 548), (948, 549), (947, 549), (946, 550), (945, 551), (943, 553), (942, 555), (940, 560), (939, 595), (945, 641), (958, 695), (974, 748), (993, 838), (993, 866), (992, 880), (990, 890), (985, 909), (984, 922), (981, 937), (980, 948)]",87.19362974821176,"[4, 6, 7, 9, 8, 5, 3, 1, 2]","(0, 0.25)",CHN004B,CHN,B,English,Thu Aug 09 14:59:39 2018,Mouse
1,1,2,0,8,2,9,0,-1070,990,80,147,0,500,200,8000,"[(960, 540), (960, 540), (960, 540), (960, 540), (960, 540), (960, 540), (960, 540), (960, 540), (960, 540), (960, 540), (960, 540), (960, 540), (960, 540), (960, 540), (960, 540), (960, 540), (960, 540), (960, 540), (960, 540), (960, 540), (960, 540), (960, 540), (960, 540), (960, 540), (960, 540), (960, 540), (960, 540), (960, 540), (960, 540), (960, 540), (960, 540), (960, 540), (960, 540), (960, 540), (960, 540), (960, 540), (960, 540), (960, 540), (960, 540), (960, 540), (960, 540), (960, 540), (960, 540), (960, 540), (960, 540), (960, 540), (960, 540), (960, 540), (960, 540), (960, 540), (960, 540), (960, 540), (960, 540), (960, 540), (960, 540), (960, 540), (960, 540), (960, 540), (960, 540), (960, 540), (960, 540), (960, 540), (960, 540), (960, 540), (960, 540), (960, 540), (960, 540), (960, 540), (960, 540), (960, 540), (960, 540), (960, 540), (960, 540), (960, 540), (960, 540), (960, 540), (960, 540), (960, 540), (960, 540), (960, 540), (960, 540), (960, 540), (960, 540), (960, 540), (960, 540), (960, 540), (960, 540), (960, 540), (960, 540), (960, 540), (960, 540), (960, 540), (960, 540), (960, 540), (960, 540), (960, 540), (960, 540), (960, 540), (959, 540), (953, 540), (945, 546), (933, 554), (896, 587), (851, 619), (787, 663), (724, 705), (574, 814)]",144.63116979246,"[4, 6, 7, 9, 8, 5, 3, 1, 2]","(0, 0.25)",CHN004B,CHN,B,English,Thu Aug 09 14:59:39 2018,Mouse
1,1,2,0,9,3,3,1,850,390,460,148,0,500,200,8000,"[(960, 540), (960, 540), (960, 540), (960, 540), (960, 540), (960, 540), (960, 540), (960, 540), (960, 540), (960, 540), (960, 540), (960, 540), (960, 540), (960, 540), (960, 540), (960, 540), (960, 540), (960, 540), (960, 540), (960, 540), (960, 540), (960, 540), (960, 540), (960, 540), (960, 540), (960, 540), (960, 540), (960, 540), (960, 540), (960, 540), (960, 540), (960, 540), (960, 540), (960, 540), (960, 540), (960, 540), (960, 540), (960, 540), (961, 540), (964, 540), (965, 540), (967, 541), (968, 541), (968, 541), (968, 541), (968, 541), (968, 541), (968, 541), (968, 541), (968, 541), (968, 541), (968, 541), (968, 541), (968, 541), (969, 541), (971, 541), (975, 541), (980, 540), (984, 538), (985, 538), (985, 538), (985, 538), (985, 538), (985, 538), (985, 538), (985, 538), (985, 538), (985, 538), (985, 538), (985, 538), (985, 538), (987, 534), (988, 530), (989, 523), (989, 508), (989, 495), (989, 482), (989, 470), (986, 432), (979, 397), (975, 360), (973, 304), (973, 212), (973, 171), (973, 132)]",271.8249833895494,"[4, 6, 7, 9, 8, 5, 3, 1, 2]","(0, 0.25)",CHN004B,CHN,B,English,Thu Aug 09 14:59:39 2018,Mouse
1,1,2,0,10,5,5,1,599,289,310,148,0,500,200,8000,"[(960, 540), (960, 540), (960, 540), (960, 540), (960, 540), (960, 540), (960, 540), (960, 540), (960, 540), (960, 540), (960, 540), (960, 540), (960, 540), (960, 540), (960, 540), (960, 540), (960, 540), (960, 540), (960, 540), (960, 540), (960, 540), (960, 540), (960, 540), (960, 540), (960, 540), (960, 540), (960, 540), (960, 540), (958, 540), (957, 540), (957, 540), (957, 540), (957, 540), (957, 540), (957, 540), (957, 540), (957, 540), (957, 540), (957, 540), (957, 540), (957, 540), (957, 540), (957, 540), (957, 540), (957, 540), (957, 540), (956, 540), (956, 537), (956, 528), (955, 522), (951, 513), (945, 504), (926, 483), (906, 468), (875, 444), (839, 417), (749, 352), (697, 318), (657, 287), (617, 251)]",220.11633590402434,"[4, 6, 7, 9, 8, 5, 3, 1, 2]","(0, 0.25)",CHN004B,CHN,B,English,Thu Aug 09 14:59:39 2018,Mouse
1,1,2,0,11,6,6,1,1001,301,700,147,0,500,200,8000,"[(960, 540), (960, 540), (960, 540), (960, 540), (960, 540), (960, 540), (960, 540), (960, 540), (960, 540), (960, 540), (960, 540), (960, 540), (960, 540), (960, 540), (960, 540), (960, 540), (960, 540), (960, 540), (960, 540), (960, 540), (960, 540), (960, 540), (960, 540), (960, 540), (960, 540), (960, 540), (960, 540), (960, 540), (960, 540), (960, 540), (960, 539), (960, 539), (960, 539), (960, 539), (960, 539), (960, 539), (960, 539), (960, 539), (960, 539), (960, 539), (960, 539), (960, 539), (960, 539), (960, 539), (961, 539), (961, 539), (962, 540), (964, 540), (967, 540), (970, 539), (971, 538), (972, 538), (978, 538), (980, 538), (982, 538), (983, 538), (986, 540), (987, 542), (991, 548), (997, 563), (1019, 608), (1029, 629), (1042, 653), (1049, 671), (1062, 702), (1068, 713), (1072, 722), (1074, 728), (1079, 739), (1080, 745), (1083, 754), (1085, 762), (1091, 778), (1094, 788), (1096, 798), (1099, 801), (1100, 803), (1100, 803), (1100, 803), (1100, 803), (1100, 803), (1100, 803), (1100, 803), (1100, 803), (1100, 803), (1100, 803), (1100, 803), (1100, 803), (1100, 803), (1100, 803), (1100, 803), (1100, 803), (1100, 803), (1100, 803), (1100, 803), (1100, 803), (1105, 808), (1114, 817), (1135, 834), (1169, 863), (1227, 918)]",54.764557879888415,"[4, 6, 7, 9, 8, 5, 3, 1, 2]","(0, 0.25)",CHN004B,CHN,B,English,Thu Aug 09 14:59:39 2018,Mouse
1,1,2,0,12,2,2,1,960,230,730,146,0,500,200,8000,"[(960, 540), (960, 540), (960, 540), (960, 540), (960, 540), (960, 540), (960, 540), (960, 540), (960, 540), (960, 540), (960, 540), (960, 540), (960, 540), (960, 540), (960, 540), (960, 540), (960, 540), (960, 540), (960, 540), (960, 540), (960, 540), (960, 540), (959, 540), (959, 540), (958, 540), (957, 540), (954, 540), (953, 540), (953, 540), (953, 540), (953, 540), (953, 540), (953, 540), (953, 540), (953, 540), (953, 540), (953, 540), (953, 540), (953, 540), (953, 540), (953, 540), (953, 540), (953, 540), (953, 540), (953, 540), (953, 540), (953, 540), (953, 540), (953, 540), (953, 540), (953, 540), (953, 540), (953, 540), (953, 540), (953, 540), (953, 540), (953, 540), (953, 540), (953, 540), (953, 540), (953, 540), (953, 540), (953, 540), (953, 540), (953, 540), (953, 540), (953, 540), (953, 540), (953, 540), (953, 540), (953, 540), (953, 540), (953, 540), (953, 540), (953, 540), (953, 540), (953, 540), (953, 540), (953, 540), (953, 540), (953, 540), (953, 540), (953, 540), (953, 540), (953, 540), (953, 540), (975, 534), (997, 528), (1024, 522), (1055, 513), (1114, 493), (1159, 481), (1201, 462), (1239, 445), (1322, 409), (1351, 393)]",339.3957935873495,"[4, 6, 7, 9, 8, 5, 3, 1, 2]","(0, 0.25)",CHN004B,CHN,B,English,Thu Aug 09 14:59:39 2018,Mouse
1,1,2,0,13,2,2,1,480,380,100,145,0,500,200,8000,"[(960, 540), (960, 540), (960, 540), (960, 540), (960, 540), (960, 540), (960, 540), (960, 540), (960, 540), (960, 540), (960, 540), (960, 540), (960, 540), (960, 540), (960, 540), (960, 540), (960, 540), (960, 540), (960, 540), (960, 540), (960, 540), (960, 540), (960, 540), (960, 540), (960, 540), (960, 540), (960, 540), (960, 540), (960, 540), (960, 540), (960, 540), (960, 540), (960, 540), (960, 540), (960, 540), (960, 540), (960, 540), (966, 540), (988, 540), (1004, 540), (1019, 540), (1093, 528), (1134, 520), (1180, 512), (1221, 501), (1263, 490), (1341, 466), (1372, 455)]",348.34282462889405,"[4, 6, 7, 9, 8, 5, 3, 1, 2]","(0, 0.25)",CHN004B,CHN,B,English,Thu Aug 09 14:59:39 2018,Mouse
1,1,2,0,14,6,6,1,599,39,560,144,0,500,200,8000,"[(960, 539), (960, 539), (960, 539), (959, 539), (958, 539), (957, 539), (957, 539), (957, 538), (957, 538), (957, 538), (957, 538), (956, 538), (955, 538), (955, 538), (954, 537), (954, 537), (954, 537), (954, 537), (954, 537), (954, 537), (954, 537), (954, 537), (954, 537), (954, 537), (954, 537), (954, 537), (954, 537), (954, 537), (954, 537), (954, 537), (954, 537), (954, 537), (954, 537), (954, 537), (954, 537), (955, 538), (961, 542), (962, 543), (965, 546), (969, 548), (976, 555), (981, 561), (988, 569), (995, 579), (1019, 614), (1040, 643), (1061, 671), (1080, 697), (1118, 740), (1126, 754), (1134, 768), (1138, 774), (1147, 790), (1152, 799), (1160, 808), (1166, 817), (1183, 835), (1195, 848), (1201, 857), (1208, 867)]",52.822964177889546,"[4, 6, 7, 9, 8, 5, 3, 1, 2]","(0, 0.25)",CHN004B,CHN,B,English,Thu Aug 09 14:59:39 2018,Mouse
1,1,2,0,15,8,8,1,439,79,360,143,0,500,200,8000,"[(960, 540), (960, 540), (960, 540), (960, 540), (960, 540), (960, 540), (960, 540), (957, 541), (955, 541), (954, 541), (953, 541), (951, 541), (950, 541), (950, 541), (949, 541), (948, 541), (947, 541), (946, 541), (946, 541), (945, 541), (945, 541), (945, 541), (943, 541), (937, 540), (935, 539), (935, 539), (933, 539), (933, 539), (933, 539), (933, 539), (933, 539), (931, 539), (929, 539), (927, 539), (923, 539), (911, 539), (901, 539), (888, 539), (867, 539), (781, 548), (725, 556), (662, 564), (600, 574), (492, 588)]",174.14398641457106,"[4, 6, 7, 9, 8, 5, 3, 1, 2]","(0, 0.25)",CHN004B,CHN,B,English,Thu Aug 09 14:59:39 2018,Mouse
1,1,2,0,16,6,6,1,2692,2402,290,142,0,500,200,8000,"[(960, 540), (960, 540), (960, 540), (960, 540), (960, 540), (960, 540), (960, 540), (960, 540), (960, 540), (960, 540), (960, 540), (960, 540), (960, 540), (960, 540), (960, 540), (960, 540), (960, 540), (960, 540), (960, 540), (960, 540), (960, 540), (960, 540), (960, 540), (960, 540), (960, 540), (960, 540), (960, 540), (960, 540), (960, 540), (960, 540), (960, 540), (960, 540), (960, 540), (960, 540), (960, 540), (960, 540), (960, 540), (960, 540), (960, 540), (960, 540), (960, 540), (960, 540), (960, 540), (960, 540), (960, 540), (960, 540), (960, 540), (960, 540), (960, 540), (960, 540), (960, 540), (960, 540), (960, 540), (960, 540), (960, 540), (960, 540), (960, 540), (960, 540), (960, 540), (960, 540), (960, 540), (960, 540), (960, 540), (960, 540), (960, 540), (960, 540), (960, 540), (960, 540), (960, 540), (960, 540), (960, 540), (960, 540), (960, 540), (960, 540), (960, 540), (960, 540), (960, 540), (960, 540), (960, 540), (960, 540), (960, 540), (960, 540), (960, 540), (960, 540), (960, 540), (960, 540), (960, 540), (960, 540), (960, 540), (960, 540), (960, 540), (960, 540), (960, 540), (960, 540), (960, 540), (960, 540), (960, 540), (960, 540), (960, 540), (960, 540), (960, 540), (960, 540), (960, 540), (960, 540), (960, 540), (960, 540), (960, 540), (960, 540), (960, 540), (960, 540), (960, 540), (960, 540), (960, 540), (960, 540), (960, 540), (960, 540), (960, 540), (960, 540), (960, 540), (960, 540), (960, 540), (960, 540), (960, 540), (960, 540), (960, 540), (960, 540), (960, 540), (960, 540), (960, 540), (960, 540), (960, 540), (960, 540), (960, 540), (960, 540), (960, 540), (960, 540), (960, 540), (960, 540), (960, 540), (960, 540), (960, 540), (960, 540), (960, 540), (960, 540), (960, 540), (960, 540), (960, 540), (960, 540), (960, 540), (960, 540), (960, 540), (960, 540), (960, 540), (960, 540), (960, 540), (960, 540), (960, 540), (960, 540), (960, 540), (960, 540), (960, 540), (960, 540), (960, 540), (960, 540), (960, 540), (960, 540), (960, 540), (960, 540), (960, 540), (960, 540), (960, 540), (960, 540), (960, 540), (960, 540), (960, 540), (960, 540), (960, 540), (960, 540), (960, 540), (960, 540), (960, 540), (960, 540), (960, 540), (960, 540), (960, 540), (960, 540), (960, 540), (960, 540), (960, 540), (960, 540), (960, 540), (960, 540), (960, 540), (960, 540), (960, 540), (960, 540), (960, 540), (960, 540), (960, 540), (960, 540), (960, 540), (960, 540), (960, 540), (960, 540), (960, 540), (960, 540), (960, 540), (960, 540), (960, 540), (960, 540), (960, 540), (960, 540), (960, 540), (960, 540), (960, 540), (960, 540), (960, 540), (960, 540), (960, 540), (960, 540), (960, 540), (960, 540), (960, 540), (960, 540), (960, 540), (960, 540), (960, 540), (960, 540), (960, 540), (960, 540), (960, 540), (960, 540), (960, 540), (960, 540), (960, 540), (960, 540), (960, 540), (960, 540), (960, 540), (960, 540), (961, 540), (963, 536), (964, 532), (964, 532), (964, 532), (967, 535), (970, 545), (981, 565), (987, 578), (990, 589), (992, 598), (1000, 619), (1002, 631), (1007, 643), (1012, 659), (1021, 695), (1030, 718), (1036, 740), (1046, 769), (1062, 817), (1069, 839), (1077, 860), (1086, 876), (1097, 893), (1100, 898), (1102, 901), (1104, 903), (1107, 907), (1109, 910), (1114, 915)]",67.67367822305172,"[4, 6, 7, 9, 8, 5, 3, 1, 2]","(0, 0.25)",CHN004B,CHN,B,English,Thu Aug 09 14:59:39 2018,Mouse
1,1,2,0,17,8,8,1,451,91,360,141,0,500,200,8000,"[(960, 540), (960, 540), (960, 540), (960, 540), (960, 540), (960, 540), (960, 540), (960, 540), (960, 540), (960, 539), (960, 539), (960, 539), (960, 539), (960, 539), (960, 539), (960, 539), (960, 539), (959, 539), (959, 539), (959, 539), (959, 539), (959, 539), (959, 539), (959, 539), (959, 539), (959, 539), (959, 539), (959, 539), (959, 539), (959, 539), (959, 539), (959, 539), (959, 539), (952, 537), (943, 537), (930, 537), (915, 537), (882, 537), (851, 537), (818, 537), (776, 537), (690, 537), (649, 537), (612, 537), (582, 531), (530, 516)]",183.19458946511043,"[4, 6, 7, 9, 8, 5, 3, 1, 2]","(0, 0.25)",CHN004B,CHN,B,English,Thu Aug 09 14:59:39 2018,Mouse
1,1,2,0,18,7,7,1,749,629,120,140,0,500,200,8000,"[(960, 540), (960, 540), (960, 540), (960, 540), (960, 540), (960, 540), (960, 540), (960, 540), (960, 540), (960, 540), (960, 540), (960, 540), (960, 540), (960, 540), (960, 540), (960, 540), (960, 540), (960, 540), (960, 540), (960, 540), (960, 540), (960, 540), (960, 540), (960, 540), (960, 540), (960, 540), (960, 540), (960, 540), (960, 540), (960, 540), (960, 540), (960, 540), (960, 540), (960, 540), (960, 540), (960, 540), (960, 540), (960, 540), (960, 540), (960, 540), (960, 540), (960, 540), (960, 540), (960, 540), (960, 540), (960, 540), (960, 540), (960, 540), (960, 540), (960, 540), (960, 540), (960, 540), (960, 540), (960, 540), (960, 540), (960, 540), (960, 540), (960, 540), (960, 540), (960, 540), (960, 540), (960, 540), (961, 546), (961, 576), (961, 596), (961, 627), (961, 666), (961, 722), (961, 747), (966, 774), (967, 802), (972, 863), (972, 890), (972, 916), (972, 941)]",88.28592462088339,"[4, 6, 7, 9, 8, 5, 3, 1, 2]","(0, 0.25)",CHN004B,CHN,B,English,Thu Aug 09 14:59:39 2018,Mouse
1,1,2,0,19,1,1,1,810,80,730,139,0,500,200,8000,"[(960, 540), (960, 540), (960, 540), (960, 540), (960, 540), (960, 540), (960, 540), (960, 538), (960, 537), (959, 533), (954, 529), (952, 528), (951, 526), (950, 526), (947, 524), (944, 522), (941, 521), (940, 521), (938, 520), (935, 518), (933, 517), (933, 517), (930, 516), (929, 515), (929, 515), (929, 515), (929, 515), (929, 515), (929, 515), (929, 515), (929, 515), (929, 515), (929, 515), (929, 515), (929, 515), (929, 515), (929, 515), (929, 515), (929, 515), (929, 515), (929, 511), (930, 508), (931, 485), (931, 474), (931, 466), (931, 464), (931, 458), (931, 457), (931, 457), (932, 456), (932, 455), (932, 455), (932, 455), (932, 455), (932, 455), (932, 455), (932, 455), (932, 455), (932, 455), (932, 455), (932, 455), (932, 455), (932, 455), (932, 455), (932, 455), (932, 455), (932, 455), (932, 455), (932, 455), (932, 455), (935, 453), (940, 451), (946, 445), (954, 438), (981, 407), (997, 385), (1017, 357), (1036, 329), (1080, 262), (1106, 221), (1130, 172)]",294.79488411715903,"[4, 6, 7, 9, 8, 5, 3, 1, 2]","(0, 0.25)",CHN004B,CHN,B,English,Thu Aug 09 14:59:39 2018,Mouse
1,1,2,0,20,1,1,1,850,90,760,138,0,500,200,8000,"[(960, 540), (960, 540), (960, 540), (960, 540), (960, 540), (960, 540), (960, 540), (960, 540), (958, 540), (958, 540), (958, 540), (958, 540), (957, 540), (957, 540), (957, 540), (957, 540), (957, 540), (955, 540), (955, 540), (955, 540), (955, 540), (955, 540), (955, 540), (955, 540), (955, 540), (955, 540), (955, 540), (955, 540), (955, 540), (955, 540), (955, 540), (955, 540), (955, 540), (955, 540), (955, 540), (955, 540), (955, 540), (955, 540), (955, 540), (955, 540), (955, 540), (955, 540), (955, 540), (954, 539), (956, 537), (958, 535), (960, 534), (961, 533), (965, 531), (966, 531), (968, 530), (970, 529), (975, 527), (976, 526), (978, 525), (978, 525), (978, 525), (978, 525), (978, 525), (978, 525), (978, 525), (978, 525), (978, 525), (978, 525), (978, 525), (978, 525), (980, 525), (980, 522), (982, 514), (983, 509), (985, 500), (994, 486), (1014, 449), (1031, 424), (1052, 395), (1071, 370), (1114, 308), (1128, 286), (1136, 271), (1142, 258), (1152, 234), (1154, 223), (1156, 213), (1159, 202), (1161, 175)]",298.8409145369142,"[4, 6, 7, 9, 8, 5, 3, 1, 2]","(0, 0.25)",CHN004B,CHN,B,English,Thu Aug 09 14:59:39 2018,Mouse
1,1,2,0,21,9,6,0,-4151,70,4081,137,0,500,200,8000,"[(960, 540), (960, 540), (960, 540), (960, 540), (960, 540), (960, 540), (960, 542), (960, 542), (961, 543), (961, 545), (961, 545), (961, 545), (961, 545), (963, 547), (963, 547), (964, 547), (965, 548), (965, 548), (966, 548), (966, 548), (966, 548), (967, 548), (968, 548), (968, 548), (968, 548), (968, 548), (968, 548), (968, 548), (968, 548), (968, 548), (969, 547), (969, 546), (970, 545), (970, 545), (971, 545), (971, 545), (971, 545), (971, 545), (971, 545), (971, 545), (971, 545), (971, 545), (971, 545), (971, 545), (971, 545), (971, 545), (971, 543), (971, 543), (971, 543), (971, 543), (971, 543), (971, 543), (971, 543), (971, 543), (971, 543), (971, 543), (971, 543), (971, 543), (971, 543), (971, 543), (971, 543), (971, 543), (971, 543), (971, 543), (971, 543), (971, 543), (971, 543), (971, 543), (971, 543), (971, 543), (971, 543), (971, 543), (971, 543), (971, 543), (971, 543), (971, 543), (971, 543), (971, 543), (971, 543), (971, 543), (971, 543), (971, 543), (971, 543), (971, 543), (971, 543), (971, 543), (971, 543), (971, 543), (971, 543), (971, 543), (971, 543), (971, 543), (971, 543), (971, 543), (971, 543), (971, 543), (971, 543), (971, 543), (971, 543), (971, 543), (971, 543), (971, 543), (971, 543), (971, 543), (971, 543), (971, 543), (971, 543), (971, 543), (971, 543), (971, 543), (971, 543), (971, 543), (971, 543), (971, 543), (971, 543), (971, 543), (971, 543), (971, 543), (971, 543), (971, 543), (971, 543), (971, 543), (971, 543), (971, 543), (971, 543), (971, 543), (971, 543), (971, 543), (971, 543), (971, 543), (971, 543), (971, 543), (971, 543), (971, 543), (971, 543), (971, 543), (971, 543), (971, 543), (971, 543), (971, 543), (971, 543), (971, 543), (971, 543), (971, 543), (971, 543), (971, 543), (971, 543), (971, 543), (971, 543), (971, 543), (971, 543), (971, 543), (971, 543), (971, 543), (971, 543), (971, 543), (971, 543), (971, 543), (971, 543), (971, 543), (971, 543), (971, 543), (971, 543), (971, 543), (971, 543), (971, 543), (971, 543), (971, 543), (971, 543), (971, 543), (971, 543), (971, 543), (971, 543), (971, 543), (971, 543), (971, 543), (971, 543), (971, 543), (971, 543), (971, 543), (971, 543), (971, 543), (971, 543), (971, 543), (971, 543), (971, 543), (971, 543), (971, 543), (971, 543), (971, 543), (971, 543), (971, 543), (971, 543), (971, 543), (971, 543), (971, 543), (971, 543), (971, 543), (971, 543), (971, 543), (971, 543), (971, 543), (971, 543), (971, 543), (971, 543), (971, 543), (971, 543), (971, 543), (971, 543), (971, 543), (971, 543), (971, 543), (971, 543), (971, 543), (971, 543), (971, 543), (971, 543), (971, 543), (971, 543), (971, 543), (971, 543), (971, 543), (971, 543), (971, 543), (971, 543), (971, 543), (971, 543), (971, 543), (971, 543), (971, 543), (971, 543), (971, 543), (971, 543), (971, 543), (971, 543), (971, 543), (971, 543), (971, 543), (971, 543), (971, 543), (971, 543), (971, 543), (971, 543), (971, 543), (971, 543), (971, 543), (971, 543), (971, 543), (971, 543), (971, 543), (971, 543), (971, 543), (971, 543), (971, 543), (971, 543), (971, 543), (971, 543), (971, 543), (971, 543), (971, 543), (971, 543), (971, 543), (971, 543), (971, 543), (971, 543), (971, 543), (971, 543), (971, 543), (971, 543), (971, 543), (971, 543), (971, 543), (971, 543), (971, 543), (971, 543), (971, 543), (971, 543), (971, 543), (971, 543), (971, 543), (971, 543), (971, 543), (971, 543), (971, 543), (971, 543), (971, 543), (971, 543), (971, 543), (971, 543), (971, 543), (971, 543), (971, 543), (971, 543), (971, 543), (971, 543), (971, 543), (971, 543), (971, 543), (971, 543), (971, 543), (971, 543), (971, 543), (971, 543), (971, 543), (971, 543), (971, 543), (971, 543), (971, 543), (971, 543), (971, 543), (971, 543), (971, 543), (971, 543), (971, 543), (971, 543), (971, 543), (971, 543), (971, 543), (971, 543), (971, 543), (971, 543), (971, 543), (971, 543), (971, 543), (971, 543), (971, 543), (971, 543), (971, 543), (971, 543), (971, 543), (971, 543), (971, 543), (971, 543), (971, 543), (971, 543), (971, 543), (971, 543), (971, 543), (971, 543), (971, 543), (971, 543), (971, 543), (971, 543), (971, 543), (971, 543), (971, 543), (971, 543), (971, 543), (971, 543), (971, 543), (971, 543), (971, 543), (971, 543), (971, 543), (971, 543), (971, 543), (971, 543), (971, 543), (971, 543), (971, 543), (971, 543), (971, 543), (971, 543), (971, 543), (971, 543), (971, 543), (971, 543), (971, 543), (971, 543), (971, 543), (971, 543), (971, 543), (971, 543), (971, 543), (971, 543), (971, 543), (971, 543), (971, 543), (971, 543), (971, 543), (971, 543), (971, 543), (971, 543), (971, 543), (971, 543), (971, 543), (971, 543), (971, 543), (971, 543), (971, 541), (971, 517), (982, 498), (993, 479), (1009, 456), (1055, 420), (1072, 410), (1082, 407), (1088, 404), (1095, 406), (1104, 410), (1110, 416), (1116, 426), (1116, 453), (1116, 475), (1112, 499), (1103, 525), (1088, 580), (1080, 606), (1079, 637), (1075, 671), (1075, 749), (1075, 788), (1071, 831), (1064, 871), (1038, 950)]",79.22854583980198,"[4, 6, 7, 9, 8, 5, 3, 1, 2]","(0, 0.25)",CHN004B,CHN,B,English,Thu Aug 09 14:59:39 2018,Mouse
1,1,2,0,22,9,9,1,1230,1000,230,138,0,500,200,8000,"[(960, 540), (960, 540), (960, 540), (960, 540), (960, 540), (960, 540), (960, 540), (960, 540), (960, 540), (960, 540), (960, 540), (960, 540), (960, 540), (960, 540), (960, 540), (960, 540), (960, 540), (960, 540), (960, 540), (960, 540), (960, 540), (960, 540), (960, 540), (960, 540), (960, 540), (960, 540), (960, 540), (960, 540), (960, 540), (960, 540), (960, 540), (960, 540), (960, 540), (960, 540), (960, 540), (960, 540), (960, 540), (960, 540), (960, 540), (960, 540), (960, 540), (960, 540), (960, 540), (960, 540), (960, 540), (960, 540), (960, 540), (960, 540), (960, 540), (960, 540), (960, 540), (960, 540), (960, 540), (960, 540), (960, 540), (960, 540), (960, 540), (960, 540), (960, 540), (960, 540), (960, 540), (960, 540), (960, 540), (960, 540), (960, 540), (960, 540), (960, 540), (960, 540), (960, 540), (960, 540), (960, 540), (960, 540), (960, 540), (960, 540), (960, 540), (960, 540), (960, 540), (960, 540), (960, 540), (960, 540), (960, 540), (960, 540), (960, 540), (960, 540), (960, 540), (960, 540), (960, 540), (960, 540), (960, 540), (960, 540), (960, 540), (960, 540), (960, 540), (960, 540), (960, 540), (960, 540), (960, 540), (960, 540), (960, 540), (960, 543), (960, 549), (960, 554), (955, 568), (950, 574), (942, 580), (937, 582), (928, 589), (924, 591), (920, 594), (916, 595), (904, 604), (895, 610), (884, 617), (872, 624), (831, 647), (812, 658), (793, 671), (779, 678), (729, 712), (705, 727), (675, 742), (642, 760), (571, 801)]",146.14031846531023,"[4, 6, 7, 9, 8, 5, 3, 1, 2]","(0, 0.25)",CHN004B,CHN,B,English,Thu Aug 09 14:59:39 2018,Mouse
1,1,2,0,23,2,2,1,819,489,330,138,0,500,200,8000,"[(960, 540), (960, 540), (960, 540), (960, 540), (960, 540), (960, 540), (960, 540), (960, 540), (960, 540), (960, 540), (960, 540), (960, 540), (960, 540), (960, 540), (960, 540), (960, 540), (960, 540), (960, 540), (960, 540), (960, 540), (960, 540), (960, 540), (960, 540), (960, 540), (960, 540), (960, 540), (960, 540), (960, 540), (960, 540), (960, 540), (960, 540), (960, 540), (960, 540), (960, 540), (960, 540), (960, 540), (960, 540), (960, 540), (960, 540), (960, 540), (960, 540), (960, 540), (960, 540), (960, 540), (960, 540), (960, 540), (960, 540), (960, 540), (958, 540), (955, 540), (953, 540), (950, 539), (950, 539), (950, 539), (950, 539), (950, 539), (950, 539), (950, 539), (950, 539), (949, 539), (949, 539), (949, 539), (949, 539), (949, 539), (949, 539), (949, 539), (951, 538), (953, 536), (953, 536), (953, 536), (953, 536), (953, 536), (956, 536), (959, 536), (966, 532), (1012, 508), (1047, 493), (1090, 474), (1138, 454), (1249, 419), (1313, 399), (1374, 383)]",339.23191744199204,"[4, 6, 7, 9, 8, 5, 3, 1, 2]","(0, 0.25)",CHN004B,CHN,B,English,Thu Aug 09 14:59:39 2018,Mouse
1,1,2,0,24,4,6,0,-639,69,570,137,0,500,200,8000,"[(960, 540), (960, 540), (960, 540), (960, 540), (960, 540), (960, 540), (960, 538), (960, 536), (960, 536), (961, 536), (961, 536), (962, 535), (962, 535), (962, 535), (962, 535), (962, 534), (962, 534), (962, 533), (962, 532), (962, 532), (962, 532), (962, 532), (962, 532), (962, 532), (962, 532), (962, 532), (962, 532), (962, 532), (962, 532), (962, 532), (962, 532), (962, 532), (962, 532), (962, 532), (962, 532), (963, 532), (963, 532), (963, 532), (963, 533), (963, 534), (963, 535), (963, 535), (963, 536), (963, 538), (963, 541), (963, 544), (963, 548), (963, 554), (963, 556), (963, 557), (963, 557), (963, 557), (963, 557), (963, 557), (963, 558), (965, 563), (970, 569), (975, 579), (984, 596), (1016, 656), (1040, 705), (1067, 756), (1092, 810), (1168, 937)]",62.34863209232308,"[4, 6, 7, 9, 8, 5, 3, 1, 2]","(0, 0.25)",CHN004B,CHN,B,English,Thu Aug 09 14:59:39 2018,Mouse
1,1,2,0,25,8,8,1,330,20,310,138,0,500,200,8000,"[(958, 538), (957, 536), (956, 536), (955, 536), (955, 536), (954, 535), (952, 534), (951, 533), (951, 532), (955, 529), (961, 529), (961, 529), (961, 529), (960, 529), (956, 529), (955, 529), (955, 529), (953, 529), (950, 530), (948, 530), (948, 530), (945, 531), (939, 534), (936, 535), (930, 538), (920, 540), (872, 554), (837, 563), (788, 570), (737, 576), (626, 592), (566, 601), (510, 607)]",171.5315056181287,"[4, 6, 7, 9, 8, 5, 3, 1, 2]","(0, 0.25)",CHN004B,CHN,B,English,Thu Aug 09 14:59:39 2018,Mouse
1,1,2,0,26,6,6,1,1040,790,250,138,0,500,200,8000,"[(960, 540), (960, 540), (960, 540), (960, 540), (960, 540), (960, 540), (960, 540), (960, 540), (960, 540), (960, 540), (960, 540), (960, 540), (960, 540), (960, 540), (960, 540), (960, 540), (960, 540), (960, 540), (960, 540), (960, 540), (960, 540), (960, 540), (960, 540), (960, 540), (960, 540), (960, 540), (960, 540), (960, 540), (960, 540), (960, 540), (960, 540), (960, 540), (960, 540), (960, 540), (960, 540), (960, 540), (960, 540), (960, 540), (960, 540), (960, 540), (960, 540), (960, 540), (960, 540), (960, 540), (960, 540), (960, 540), (960, 540), (960, 540), (960, 540), (960, 540), (960, 540), (960, 540), (960, 540), (960, 540), (960, 540), (960, 540), (960, 540), (960, 540), (960, 540), (960, 540), (960, 540), (960, 540), (960, 540), (960, 540), (960, 540), (960, 540), (960, 540), (960, 540), (960, 540), (960, 540), (960, 540), (960, 540), (960, 540), (960, 540), (960, 540), (960, 540), (960, 540), (960, 540), (963, 545), (969, 552), (983, 571), (993, 585), (1000, 598), (1012, 613), (1042, 649), (1058, 667), (1069, 677), (1077, 689), (1094, 708), (1105, 720), (1112, 730), (1118, 742), (1136, 764), (1145, 774), (1154, 784), (1161, 794), (1175, 810), (1181, 817), (1188, 824), (1192, 829), (1200, 840), (1204, 846), (1208, 851), (1212, 856)]",51.428747748829856,"[4, 6, 7, 9, 8, 5, 3, 1, 2]","(0, 0.25)",CHN004B,CHN,B,English,Thu Aug 09 14:59:39 2018,Mouse
1,1,2,0,27,1,1,1,979,259,720,137,0,500,200,8000,"[(960, 540), (960, 540), (960, 540), (960, 540), (960, 540), (960, 540), (960, 540), (960, 540), (960, 540), (960, 540), (960, 540), (960, 540), (960, 540), (960, 540), (960, 540), (960, 540), (960, 540), (960, 540), (960, 540), (960, 540), (960, 540), (960, 540), (960, 540), (960, 540), (960, 540), (961, 540), (961, 538), (961, 535), (960, 534), (959, 532), (957, 530), (956, 527), (955, 525), (954, 524), (954, 523), (953, 523), (952, 522), (952, 522), (952, 522), (952, 522), (952, 522), (952, 522), (952, 522), (952, 522), (952, 522), (952, 522), (952, 522), (952, 522), (952, 521), (952, 521), (952, 521), (953, 521), (953, 521), (953, 521), (953, 521), (953, 521), (953, 521), (953, 521), (953, 521), (953, 521), (953, 521), (953, 521), (953, 521), (954, 520), (954, 520), (955, 519), (956, 518), (957, 516), (958, 515), (959, 513), (961, 511), (965, 505), (967, 503), (968, 502), (972, 501), (975, 498), (978, 498), (981, 495), (982, 495), (987, 494), (988, 492), (990, 491), (991, 491), (996, 488), (998, 487), (1002, 485), (1005, 483), (1009, 479), (1014, 475), (1017, 471), (1022, 464), (1027, 440), (1031, 419), (1042, 382), (1049, 347), (1079, 239), (1096, 178), (1122, 114)]",290.82089285331085,"[4, 6, 7, 9, 8, 5, 3, 1, 2]","(0, 0.25)",CHN004B,CHN,B,English,Thu Aug 09 14:59:39 2018,Mouse
1,1,2,0,28,8,8,1,469,229,240,136,0,500,200,8000,"[(960, 540), (960, 540), (960, 540), (960, 540), (960, 540), (960, 540), (960, 540), (960, 540), (960, 540), (960, 540), (960, 540), (960, 540), (960, 540), (960, 540), (960, 540), (960, 540), (960, 540), (960, 540), (960, 540), (960, 540), (960, 540), (960, 540), (959, 540), (959, 540), (959, 540), (959, 540), (958, 540), (956, 539), (956, 539), (955, 538), (955, 538), (955, 538), (953, 538), (953, 537), (951, 537), (948, 537), (936, 534), (928, 534), (914, 531), (897, 530), (856, 527), (823, 527), (787, 527), (742, 527), (637, 527), (576, 527), (521, 527)]",181.69619026449436,"[4, 6, 7, 9, 8, 5, 3, 1, 2]","(0, 0.25)",CHN004B,CHN,B,English,Thu Aug 09 14:59:39 2018,Mouse
1,1,2,0,29,7,7,1,650,540,110,135,0,500,200,8000,"[(960, 540), (960, 540), (960, 540), (960, 540), (960, 540), (960, 540), (960, 540), (960, 540), (960, 540), (960, 540), (960, 540), (960, 540), (960, 540), (960, 540), (960, 540), (960, 540), (960, 540), (960, 540), (960, 540), (960, 540), (960, 540), (960, 540), (960, 540), (960, 540), (960, 540), (960, 540), (960, 540), (960, 540), (960, 540), (960, 540), (960, 540), (960, 540), (960, 540), (960, 540), (960, 540), (960, 540), (960, 540), (960, 540), (960, 540), (960, 540), (960, 540), (960, 540), (960, 540), (960, 540), (960, 540), (960, 540), (960, 540), (960, 540), (960, 540), (960, 540), (960, 540), (960, 540), (960, 540), (960, 553), (957, 569), (956, 589), (956, 614), (950, 667), (946, 696), (942, 723), (935, 753), (921, 826), (906, 861), (895, 907), (885, 957)]",100.19598824728679,"[4, 6, 7, 9, 8, 5, 3, 1, 2]","(0, 0.25)",CHN004B,CHN,B,English,Thu Aug 09 14:59:39 2018,Mouse
1,1,2,0,30,9,7,0,-940,720,220,134,0,500,200,8000,"[(960, 540), (960, 540), (960, 540), (960, 540), (960, 540), (960, 540), (960, 540), (960, 540), (960, 540), (960, 540), (960, 540), (960, 540), (960, 540), (960, 540), (960, 540), (960, 540), (960, 540), (960, 540), (960, 540), (960, 540), (960, 540), (960, 540), (960, 540), (960, 540), (960, 540), (960, 540), (960, 540), (960, 540), (960, 540), (960, 540), (960, 540), (960, 540), (960, 540), (960, 540), (960, 540), (960, 540), (960, 540), (960, 540), (960, 540), (960, 540), (960, 540), (960, 540), (960, 540), (960, 540), (960, 540), (960, 540), (960, 540), (960, 540), (960, 540), (960, 540), (960, 540), (960, 540), (960, 540), (960, 540), (960, 540), (960, 540), (960, 540), (960, 540), (960, 540), (960, 540), (960, 540), (960, 540), (960, 540), (960, 540), (960, 540), (960, 540), (960, 540), (960, 540), (960, 540), (960, 540), (960, 540), (960, 539), (958, 541), (956, 545), (944, 553), (936, 557), (931, 559), (929, 560), (927, 562), (927, 564), (927, 566), (928, 569), (928, 582), (925, 597), (917, 613), (908, 639), (891, 703), (883, 741), (880, 772), (873, 808), (863, 867), (859, 891), (856, 912), (853, 930)]",105.34209986733502,"[4, 6, 7, 9, 8, 5, 3, 1, 2]","(0, 0.25)",CHN004B,CHN,B,English,Thu Aug 09 14:59:39 2018,Mouse
1,1,2,0,31,2,7,0,-1719,559,1160,135,0,500,200,8000,"[(960, 540), (960, 540), (960, 540), (960, 540), (960, 540), (960, 540), (960, 540), (960, 540), (960, 540), (960, 540), (960, 540), (960, 540), (960, 540), (960, 540), (960, 540), (960, 540), (960, 540), (960, 540), (960, 540), (960, 540), (960, 540), (960, 540), (960, 540), (960, 540), (960, 540), (960, 540), (960, 540), (960, 540), (960, 540), (960, 540), (960, 540), (960, 540), (960, 540), (960, 540), (960, 540), (960, 540), (960, 540), (960, 540), (960, 540), (960, 540), (960, 540), (960, 540), (960, 540), (960, 540), (960, 540), (960, 540), (960, 540), (960, 540), (960, 540), (960, 540), (960, 540), (960, 540), (960, 540), (960, 540), (960, 540), (959, 541), (959, 541), (959, 541), (959, 541), (959, 541), (959, 541), (959, 541), (959, 541), (959, 541), (959, 541), (959, 541), (959, 541), (959, 541), (959, 541), (959, 541), (959, 541), (959, 541), (959, 541), (959, 541), (959, 541), (959, 541), (959, 541), (959, 541), (959, 541), (959, 541), (959, 541), (959, 541), (959, 541), (959, 541), (959, 541), (959, 541), (959, 541), (959, 541), (959, 541), (959, 541), (959, 541), (959, 541), (959, 541), (959, 541), (959, 541), (959, 541), (959, 541), (959, 541), (959, 541), (959, 541), (959, 541), (959, 541), (959, 542), (959, 543), (959, 543), (959, 543), (959, 543), (959, 543), (959, 543), (959, 543), (959, 543), (959, 543), (959, 543), (959, 543), (959, 543), (959, 543), (959, 543), (959, 543), (959, 543), (959, 543), (959, 543), (959, 543), (959, 543), (959, 543), (959, 543), (959, 543), (959, 543), (959, 543), (959, 543), (959, 543), (959, 543), (959, 543), (959, 543), (959, 543), (959, 543), (959, 543), (959, 543), (959, 543), (959, 543), (959, 543), (959, 543), (959, 543), (959, 543), (959, 543), (959, 543), (959, 543), (958, 543), (958, 543), (958, 543), (958, 543), (958, 543), (958, 543), (958, 543), (958, 543), (958, 543), (958, 543), (958, 543), (958, 543), (958, 543), (957, 546), (955, 553), (951, 563), (949, 573), (944, 597), (941, 609), (939, 628), (937, 654), (922, 736), (919, 778), (911, 824), (903, 876), (873, 978)]",101.23444400714209,"[4, 6, 7, 9, 8, 5, 3, 1, 2]","(0, 0.25)",CHN004B,CHN,B,English,Thu Aug 09 14:59:39 2018,Mouse
1,1,2,0,32,5,5,1,670,590,80,136,0,500,200,8000,"[(960, 540), (960, 540), (960, 540), (960, 540), (960, 540), (960, 540), (960, 540), (960, 540), (960, 540), (960, 540), (960, 540), (960, 540), (960, 540), (960, 540), (960, 540), (960, 540), (960, 540), (960, 540), (960, 540), (960, 540), (960, 540), (960, 540), (960, 540), (960, 540), (960, 540), (960, 540), (960, 540), (960, 540), (960, 540), (960, 540), (960, 540), (960, 540), (960, 540), (960, 540), (960, 540), (960, 540), (960, 540), (960, 540), (960, 540), (960, 540), (960, 540), (960, 540), (960, 540), (960, 540), (960, 540), (960, 540), (960, 540), (960, 540), (960, 540), (960, 540), (960, 540), (960, 540), (960, 540), (960, 540), (960, 540), (960, 540), (960, 540), (960, 540), (956, 538), (951, 533), (942, 524), (929, 514), (867, 471), (828, 441), (778, 406), (719, 367), (600, 280)]",215.8376529542783,"[4, 6, 7, 9, 8, 5, 3, 1, 2]","(0, 0.25)",CHN004B,CHN,B,English,Thu Aug 09 14:59:39 2018,Mouse
1,1,2,0,33,4,4,1,1280,20,1260,136,0,500,200,8000,"[(960, 540), (959, 543), (958, 543), (958, 544), (957, 545), (957, 546), (956, 546), (956, 546), (956, 547), (955, 548), (955, 548), (955, 548), (955, 548), (955, 548), (955, 548), (955, 548), (955, 548), (955, 548), (954, 549), (954, 549), (954, 549), (954, 549), (954, 549), (954, 549), (954, 549), (954, 549), (954, 549), (954, 549), (954, 549), (954, 549), (954, 549), (954, 549), (954, 549), (954, 549), (954, 549), (954, 549), (954, 549), (954, 549), (954, 549), (954, 549), (954, 549), (954, 549), (954, 549), (954, 549), (954, 549), (954, 549), (954, 549), (954, 549), (954, 549), (954, 549), (954, 549), (954, 549), (954, 549), (954, 549), (954, 549), (954, 549), (954, 549), (954, 549), (954, 549), (954, 549), (954, 549), (954, 549), (954, 549), (954, 549), (954, 549), (954, 549), (954, 549), (954, 549), (954, 549), (953, 549), (953, 546), (953, 544), (953, 542), (953, 541), (953, 537), (953, 535), (953, 535), (953, 533), (953, 533), (953, 533), (954, 532), (954, 532), (954, 532), (954, 532), (954, 532), (954, 532), (954, 532), (954, 532), (954, 532), (954, 532), (954, 532), (954, 532), (954, 532), (954, 532), (954, 532), (954, 532), (954, 532), (954, 532), (954, 532), (954, 532), (954, 532), (954, 532), (954, 532), (954, 532), (956, 532), (958, 532), (970, 532), (977, 532), (987, 532), (996, 532), (1010, 533), (1016, 533), (1022, 534), (1026, 536), (1042, 541), (1052, 547), (1063, 550), (1075, 558), (1103, 574), (1125, 585), (1144, 597), (1166, 609), (1204, 631), (1222, 641), (1242, 653), (1271, 669), (1313, 688), (1339, 700)]",22.887700410691433,"[4, 6, 7, 9, 8, 5, 3, 1, 2]","(0, 0.25)",CHN004B,CHN,B,English,Thu Aug 09 14:59:39 2018,Mouse
1,1,2,0,34,3,3,1,1428,368,1060,135,0,500,200,8000,"[(960, 540), (960, 540), (960, 540), (960, 540), (960, 540), (960, 540), (960, 540), (960, 540), (960, 540), (960, 540), (960, 540), (960, 540), (960, 540), (960, 540), (960, 540), (960, 540), (960, 540), (960, 540), (960, 540), (960, 540), (960, 540), (960, 540), (960, 540), (960, 540), (960, 540), (960, 540), (960, 540), (960, 540), (960, 540), (960, 540), (960, 540), (960, 540), (960, 540), (960, 540), (960, 540), (960, 540), (960, 541), (956, 545), (940, 553), (932, 557), (925, 560), (918, 562), (908, 567), (904, 569), (900, 570), (899, 571), (899, 571), (899, 571), (899, 571), (899, 571), (899, 571), (899, 571), (898, 571), (898, 569), (903, 557), (907, 550), (913, 542), (918, 536), (928, 525), (931, 521), (933, 519), (935, 515), (941, 511), (944, 509), (947, 506), (950, 502), (959, 495), (964, 490), (969, 486), (973, 481), (985, 467), (991, 461), (998, 452), (1003, 447), (1010, 439), (1013, 438), (1014, 437), (1015, 437), (1015, 437), (1015, 437), (1015, 437), (1015, 437), (1015, 437), (1016, 437), (1016, 437), (1019, 437), (1029, 437), (1033, 437), (1038, 437), (1042, 437), (1046, 437), (1047, 437), (1047, 437), (1047, 437), (1047, 437), (1047, 437), (1047, 437), (1047, 437), (1047, 437), (1048, 437), (1048, 437), (1048, 437), (1049, 437), (1049, 437), (1051, 437), (1051, 437), (1052, 437), (1052, 437), (1052, 437), (1053, 436), (1057, 434), (1058, 434), (1059, 433), (1059, 433), (1059, 433), (1059, 433), (1059, 433), (1059, 433), (1059, 433), (1060, 433), (1060, 433), (1060, 432), (1059, 430), (1056, 429), (1051, 427), (1044, 424), (1026, 416), (1016, 410), (1005, 405), (995, 397), (981, 384), (974, 376), (968, 367), (962, 360), (954, 345), (949, 336), (946, 329), (944, 318), (939, 276), (939, 249), (937, 212), (935, 164), (935, 67)]",266.9744970545001,"[4, 6, 7, 9, 8, 5, 3, 1, 2]","(0, 0.25)",CHN004B,CHN,B,English,Thu Aug 09 14:59:39 2018,Mouse
1,1,2,0,35,8,9,0,-901,21,880,134,0,500,200,8000,"[(960, 540), (960, 540), (959, 540), (957, 542), (957, 542), (955, 542), (951, 543), (950, 544), (947, 544), (947, 544), (945, 545), (945, 545), (945, 545), (945, 545), (944, 545), (944, 545), (944, 545), (942, 545), (942, 545), (941, 545), (941, 545), (941, 545), (941, 545), (941, 545), (941, 545), (941, 545), (941, 545), (941, 545), (941, 545), (941, 545), (941, 545), (941, 545), (941, 545), (941, 545), (941, 545), (941, 545), (941, 545), (941, 545), (941, 545), (941, 545), (941, 545), (941, 545), (941, 545), (941, 545), (941, 545), (941, 545), (941, 545), (941, 545), (941, 545), (941, 545), (941, 545), (941, 545), (941, 545), (941, 545), (941, 545), (941, 545), (941, 545), (941, 545), (941, 545), (941, 545), (941, 545), (941, 545), (941, 545), (941, 545), (941, 545), (941, 545), (941, 545), (941, 545), (941, 545), (941, 545), (941, 545), (941, 545), (941, 545), (941, 545), (939, 545), (938, 545), (936, 545), (935, 545), (927, 548), (922, 550), (913, 556), (905, 563), (877, 588), (862, 606), (839, 632), (821, 657), (767, 721), (742, 747), (705, 776), (666, 808), (568, 876)]",139.39870535499554,"[4, 6, 7, 9, 8, 5, 3, 1, 2]","(0, 0.25)",CHN004B,CHN,B,English,Thu Aug 09 14:59:39 2018,Mouse
1,1,2,0,36,8,9,0,-470,360,110,135,0,500,200,8000,"[(960, 540), (960, 540), (960, 540), (960, 540), (960, 540), (960, 540), (960, 540), (960, 540), (960, 540), (960, 540), (960, 540), (960, 540), (960, 540), (960, 540), (960, 540), (960, 540), (960, 540), (960, 540), (960, 540), (960, 540), (960, 540), (960, 540), (960, 540), (960, 540), (960, 540), (960, 540), (960, 540), (960, 540), (960, 540), (960, 540), (960, 540), (960, 540), (960, 540), (960, 540), (960, 540), (958, 540), (957, 540), (952, 540), (926, 545), (901, 553), (864, 566), (828, 575), (750, 599), (710, 616), (672, 635), (627, 657), (556, 710)]",157.17902749064766,"[4, 6, 7, 9, 8, 5, 3, 1, 2]","(0, 0.25)",CHN004B,CHN,B,English,Thu Aug 09 14:59:39 2018,Mouse
1,1,2,0,37,9,9,1,581,171,410,136,0,500,200,8000,"[(960, 540), (960, 540), (960, 540), (960, 540), (960, 540), (960, 540), (960, 540), (960, 540), (960, 540), (960, 540), (960, 540), (960, 540), (960, 540), (960, 540), (960, 540), (960, 540), (959, 540), (959, 540), (958, 540), (956, 541), (956, 541), (954, 543), (952, 545), (951, 549), (949, 554), (949, 558), (947, 568), (944, 575), (942, 583), (938, 591), (932, 605), (928, 611), (926, 615), (923, 619), (920, 626), (918, 627), (915, 631), (913, 632), (900, 643), (894, 649), (882, 654), (871, 661), (850, 671), (838, 679), (828, 686), (818, 692), (798, 704), (783, 711), (764, 722), (751, 727), (722, 740), (706, 746), (695, 752), (684, 757), (662, 766), (651, 771), (641, 776), (628, 782)]",143.91110647442278,"[4, 6, 7, 9, 8, 5, 3, 1, 2]","(0, 0.25)",CHN004B,CHN,B,English,Thu Aug 09 14:59:39 2018,Mouse
1,1,2,0,38,6,6,1,739,319,420,136,0,500,200,8000,"[(960, 540), (960, 540), (960, 540), (960, 540), (960, 540), (960, 540), (960, 540), (960, 540), (960, 540), (960, 540), (960, 540), (960, 540), (960, 540), (960, 540), (960, 540), (960, 540), (960, 540), (960, 540), (960, 540), (960, 540), (960, 540), (960, 540), (960, 540), (960, 540), (960, 540), (960, 540), (960, 540), (960, 540), (960, 540), (960, 540), (960, 540), (960, 541), (960, 541), (960, 541), (960, 541), (960, 541), (960, 541), (960, 541), (960, 541), (960, 542), (960, 542), (960, 542), (960, 543), (960, 544), (960, 544), (960, 544), (960, 545), (960, 549), (960, 552), (960, 556), (960, 561), (960, 569), (962, 575), (963, 577), (964, 580), (965, 585), (966, 586), (967, 588), (967, 588), (970, 593), (972, 595), (976, 601), (981, 606), (991, 621), (998, 630), (1008, 643), (1016, 659), (1040, 700), (1055, 724), (1069, 747), (1090, 775), (1144, 827), (1170, 849), (1196, 870)]",54.4294879540193,"[4, 6, 7, 9, 8, 5, 3, 1, 2]","(0, 0.25)",CHN004B,CHN,B,English,Thu Aug 09 14:59:39 2018,Mouse
1,1,2,0,39,9,9,1,891,731,160,135,0,500,200,8000,"[(960, 540), (960, 540), (960, 540), (960, 540), (960, 540), (960, 540), (960, 540), (960, 540), (960, 540), (960, 540), (960, 540), (960, 540), (960, 540), (960, 540), (960, 540), (960, 540), (960, 540), (960, 540), (960, 540), (960, 540), (960, 540), (960, 540), (960, 540), (960, 540), (960, 540), (960, 540), (960, 540), (960, 540), (960, 540), (960, 540), (960, 540), (960, 540), (960, 540), (960, 540), (960, 540), (960, 540), (960, 540), (960, 540), (960, 540), (960, 540), (960, 540), (960, 540), (960, 540), (960, 540), (960, 540), (960, 540), (960, 540), (960, 540), (960, 540), (960, 540), (960, 540), (960, 540), (960, 540), (960, 540), (960, 540), (960, 540), (960, 540), (960, 540), (960, 540), (960, 540), (960, 540), (960, 540), (960, 540), (960, 540), (960, 540), (960, 540), (960, 540), (960, 540), (960, 540), (960, 540), (960, 540), (960, 540), (960, 540), (959, 539), (957, 539), (956, 540), (955, 541), (950, 545), (945, 550), (938, 559), (929, 568), (905, 595), (892, 608), (870, 630), (847, 652), (789, 700), (762, 725), (733, 755), (693, 788), (610, 863)]",137.29740992149496,"[4, 6, 7, 9, 8, 5, 3, 1, 2]","(0, 0.25)",CHN004B,CHN,B,English,Thu Aug 09 14:59:39 2018,Mouse
1,1,2,0,40,8,6,0,-2219,439,1780,134,0,500,200,8000,"[(960, 540), (960, 540), (960, 540), (960, 540), (960, 540), (960, 540), (960, 540), (960, 540), (960, 540), (960, 540), (960, 540), (960, 540), (960, 540), (960, 540), (960, 540), (960, 540), (960, 540), (960, 540), (960, 540), (960, 540), (960, 540), (960, 540), (960, 540), (960, 540), (960, 540), (960, 540), (960, 540), (960, 540), (960, 540), (960, 540), (960, 540), (960, 540), (960, 540), (960, 540), (960, 540), (960, 540), (960, 540), (960, 540), (960, 540), (960, 540), (960, 540), (960, 540), (960, 540), (956, 540), (953, 540), (950, 540), (946, 540), (940, 540), (937, 540), (935, 540), (934, 540), (931, 540), (930, 540), (930, 540), (929, 540), (925, 540), (924, 540), (921, 540), (916, 540), (916, 540), (914, 540), (913, 540), (913, 540), (913, 540), (913, 540), (913, 540), (913, 540), (913, 540), (913, 540), (913, 540), (913, 540), (913, 540), (913, 540), (913, 540), (913, 540), (913, 540), (913, 540), (913, 540), (913, 540), (913, 540), (913, 540), (913, 540), (913, 540), (913, 540), (913, 540), (913, 540), (913, 540), (913, 540), (913, 540), (913, 540), (913, 540), (913, 540), (913, 540), (913, 540), (913, 540), (913, 540), (913, 540), (913, 540), (913, 540), (913, 540), (913, 540), (913, 540), (913, 540), (913, 540), (913, 540), (913, 540), (913, 540), (913, 540), (913, 540), (913, 540), (913, 540), (913, 540), (913, 540), (913, 540), (913, 540), (913, 540), (913, 540), (913, 540), (913, 540), (913, 540), (913, 540), (913, 540), (913, 540), (913, 540), (913, 540), (913, 540), (913, 540), (913, 540), (913, 540), (913, 540), (913, 540), (913, 540), (913, 540), (913, 540), (913, 540), (913, 540), (913, 540), (913, 540), (913, 540), (913, 540), (913, 540), (913, 540), (913, 540), (913, 540), (913, 540), (913, 540), (913, 540), (913, 540), (913, 540), (913, 540), (913, 540), (913, 540), (913, 540), (913, 540), (913, 540), (913, 540), (913, 540), (913, 540), (913, 540), (913, 540), (913, 540), (913, 540), (913, 540), (912, 542), (912, 546), (912, 551), (912, 556), (912, 573), (912, 582), (912, 592), (912, 608), (912, 614), (912, 619), (912, 622), (912, 625), (912, 626), (912, 626), (912, 626), (912, 626), (912, 626), (912, 626), (912, 626), (912, 626), (912, 626), (912, 626), (912, 626), (912, 626), (912, 627), (912, 627), (912, 628), (912, 628), (914, 631), (915, 632), (916, 635), (918, 638), (923, 645), (924, 649), (928, 653), (937, 662), (942, 667), (949, 673), (960, 680), (967, 686), (985, 697), (993, 701), (999, 703), (1005, 706), (1013, 708), (1014, 708), (1014, 708), (1014, 708), (1014, 708), (1014, 708), (1014, 708), (1014, 708), (1023, 721), (1034, 733), (1053, 752), (1079, 775), (1149, 828), (1191, 853), (1227, 882)]",52.020779145201196,"[4, 6, 7, 9, 8, 5, 3, 1, 2]","(0, 0.25)",CHN004B,CHN,B,English,Thu Aug 09 14:59:39 2018,Mouse
1,1,2,0,41,6,6,1,650,140,510,135,0,500,200,8000,"[(960, 540), (960, 540), (960, 540), (960, 540), (960, 540), (960, 540), (960, 540), (960, 540), (960, 540), (960, 540), (960, 540), (960, 540), (960, 540), (959, 540), (957, 540), (955, 540), (952, 540), (951, 540), (950, 541), (948, 542), (947, 542), (946, 544), (943, 547), (938, 555), (932, 562), (927, 567), (922, 576), (916, 588), (912, 595), (912, 601), (912, 605), (911, 612), (911, 615), (911, 616), (911, 616), (911, 616), (911, 616), (911, 616), (911, 616), (911, 616), (911, 616), (911, 616), (911, 616), (911, 616), (911, 616), (911, 616), (911, 616), (911, 616), (911, 616), (911, 616), (911, 617), (928, 631), (948, 644), (962, 655), (979, 668), (1018, 700), (1035, 715), (1054, 733), (1072, 750), (1102, 779), (1116, 795), (1127, 812), (1140, 829), (1160, 866), (1173, 891)]",58.749048983419314,"[4, 6, 7, 9, 8, 5, 3, 1, 2]","(0, 0.25)",CHN004B,CHN,B,English,Thu Aug 09 14:59:39 2018,Mouse
1,1,2,0,42,7,7,1,470,330,140,135,0,500,200,8000,"[(960, 540), (960, 540), (960, 540), (960, 540), (960, 540), (960, 540), (960, 540), (960, 540), (960, 540), (960, 540), (960, 540), (960, 540), (960, 540), (960, 540), (960, 540), (960, 540), (960, 540), (960, 540), (960, 540), (960, 540), (960, 540), (960, 540), (960, 540), (960, 540), (960, 540), (960, 540), (960, 540), (960, 540), (960, 540), (960, 540), (960, 540), (960, 540), (959, 540), (957, 544), (957, 547), (957, 552), (957, 562), (957, 582), (957, 596), (957, 611), (955, 628), (947, 681), (942, 716), (934, 760), (929, 800), (898, 913), (881, 971)]",100.38671423435972,"[4, 6, 7, 9, 8, 5, 3, 1, 2]","(0, 0.25)",CHN004B,CHN,B,English,Thu Aug 09 14:59:39 2018,Mouse
1,1,2,0,43,9,9,1,541,441,100,134,0,500,200,8000,"[(960, 540), (960, 540), (960, 540), (960, 540), (960, 540), (960, 540), (960, 540), (960, 540), (960, 540), (960, 540), (960, 540), (960, 540), (960, 540), (960, 540), (960, 540), (960, 540), (960, 540), (960, 540), (960, 540), (960, 540), (960, 540), (960, 540), (960, 540), (960, 540), (960, 540), (960, 540), (960, 540), (960, 540), (960, 540), (960, 540), (960, 540), (960, 540), (960, 540), (960, 540), (960, 540), (960, 540), (960, 540), (960, 540), (960, 540), (960, 540), (960, 540), (960, 540), (960, 540), (960, 540), (959, 540), (954, 548), (935, 571), (916, 592), (902, 612), (883, 633), (829, 687), (797, 715), (766, 741), (734, 769), (648, 829)]",137.19161424353246,"[4, 6, 7, 9, 8, 5, 3, 1, 2]","(0, 0.25)",CHN004B,CHN,B,English,Thu Aug 09 14:59:39 2018,Mouse
1,1,2,0,44,1,5,0,-1080,920,160,133,0,500,200,8000,"[(960, 540), (960, 540), (960, 540), (960, 540), (960, 540), (960, 540), (960, 540), (960, 540), (960, 540), (960, 540), (960, 540), (960, 540), (960, 540), (960, 540), (960, 540), (960, 540), (960, 540), (960, 540), (960, 540), (960, 540), (960, 540), (960, 540), (960, 540), (960, 540), (960, 540), (960, 540), (960, 540), (960, 540), (960, 540), (960, 540), (960, 540), (960, 540), (960, 540), (960, 540), (960, 540), (960, 540), (960, 540), (960, 540), (960, 540), (960, 540), (960, 540), (960, 540), (960, 540), (960, 540), (960, 540), (960, 540), (960, 540), (960, 540), (960, 540), (960, 540), (960, 540), (960, 540), (960, 540), (960, 540), (960, 540), (960, 540), (960, 540), (960, 540), (960, 540), (960, 540), (960, 540), (960, 540), (960, 540), (960, 540), (960, 540), (960, 540), (960, 540), (960, 540), (960, 540), (960, 540), (960, 540), (960, 540), (960, 540), (960, 540), (960, 540), (960, 540), (960, 540), (960, 540), (960, 540), (960, 540), (960, 540), (960, 540), (960, 540), (960, 540), (960, 540), (960, 540), (960, 540), (960, 540), (960, 540), (960, 540), (960, 540), (960, 538), (958, 535), (956, 529), (950, 518), (946, 513), (944, 510), (941, 505), (933, 495), (929, 491), (923, 485), (914, 478), (875, 458), (835, 441), (793, 426), (741, 399), (629, 338), (571, 301)]",211.56639464854334,"[4, 6, 7, 9, 8, 5, 3, 1, 2]","(0, 0.25)",CHN004B,CHN,B,English,Thu Aug 09 14:59:39 2018,Mouse
1,1,2,0,45,9,9,1,789,709,80,134,0,500,200,8000,"[(960, 540), (960, 540), (960, 540), (960, 540), (960, 540), (960, 540), (960, 540), (960, 540), (960, 540), (960, 540), (960, 540), (960, 540), (960, 540), (960, 540), (960, 540), (960, 540), (960, 540), (960, 540), (960, 540), (960, 540), (960, 540), (960, 540), (960, 540), (960, 540), (960, 540), (960, 540), (960, 540), (960, 540), (960, 540), (960, 540), (960, 540), (960, 540), (960, 540), (960, 540), (960, 540), (960, 540), (960, 540), (960, 540), (960, 540), (960, 540), (960, 540), (960, 540), (960, 540), (960, 540), (960, 540), (960, 540), (960, 540), (960, 540), (960, 540), (960, 540), (960, 540), (960, 540), (960, 540), (960, 540), (960, 540), (960, 540), (960, 540), (960, 540), (960, 540), (960, 540), (960, 540), (960, 540), (960, 540), (960, 540), (960, 540), (960, 540), (960, 540), (960, 540), (960, 540), (960, 540), (951, 540), (939, 546), (920, 555), (894, 569), (838, 603), (805, 628), (771, 656), (724, 687), (623, 758)]",147.10180712982665,"[4, 6, 7, 9, 8, 5, 3, 1, 2]","(0, 0.25)",CHN004B,CHN,B,English,Thu Aug 09 14:59:39 2018,Mouse
1,1,2,0,46,6,2,0,-1051,221,830,134,0,500,200,8000,"[(960, 540), (960, 540), (960, 540), (960, 540), (960, 540), (960, 540), (960, 540), (960, 540), (960, 540), (960, 540), (960, 540), (960, 540), (960, 540), (960, 540), (960, 540), (960, 540), (960, 540), (960, 540), (960, 540), (960, 540), (960, 540), (960, 540), (958, 540), (958, 540), (957, 538), (956, 537), (956, 536), (955, 534), (954, 532), (954, 532), (954, 531), (954, 530), (954, 529), (954, 529), (954, 528), (954, 528), (954, 528), (954, 528), (954, 528), (954, 528), (954, 528), (954, 528), (953, 528), (953, 528), (953, 528), (953, 528), (953, 528), (953, 528), (953, 527), (953, 527), (953, 527), (953, 526), (953, 525), (952, 523), (951, 521), (951, 519), (950, 515), (949, 512), (948, 504), (947, 498), (945, 491), (945, 485), (942, 471), (940, 464), (938, 455), (937, 449), (933, 440), (932, 437), (932, 436), (932, 436), (932, 436), (932, 436), (932, 436), (932, 436), (932, 436), (932, 436), (932, 436), (932, 436), (932, 436), (932, 436), (932, 436), (932, 436), (932, 436), (932, 436), (932, 436), (932, 436), (932, 435), (932, 434), (932, 434), (932, 434), (933, 433), (934, 433), (936, 432), (941, 431), (955, 427), (968, 424), (982, 421), (1000, 420), (1022, 416), (1073, 408), (1102, 405), (1134, 400), (1214, 391), (1263, 381), (1312, 373), (1363, 367)]",336.7671006404446,"[4, 6, 7, 9, 8, 5, 3, 1, 2]","(0, 0.25)",CHN004B,CHN,B,English,Thu Aug 09 14:59:39 2018,Mouse
1,1,2,0,47,4,4,1,1011,141,870,135,0,500,200,8000,"[(960, 540), (960, 540), (960, 540), (960, 540), (960, 540), (960, 540), (960, 540), (960, 540), (960, 540), (960, 540), (960, 540), (960, 540), (960, 540), (960, 540), (959, 540), (958, 539), (957, 539), (957, 539), (956, 538), (956, 538), (956, 538), (956, 538), (956, 538), (956, 538), (956, 538), (956, 538), (956, 538), (956, 538), (955, 538), (955, 538), (954, 538), (953, 538), (953, 538), (952, 539), (952, 539), (952, 539), (951, 540), (951, 540), (951, 540), (951, 540), (951, 541), (951, 542), (951, 542), (951, 542), (951, 544), (951, 544), (951, 545), (951, 546), (951, 549), (951, 551), (951, 553), (951, 555), (952, 558), (952, 560), (953, 562), (953, 563), (954, 564), (955, 566), (955, 566), (955, 566), (955, 566), (955, 566), (955, 566), (955, 566), (955, 566), (955, 566), (955, 566), (955, 566), (955, 566), (955, 566), (955, 566), (955, 566), (955, 566), (955, 566), (955, 566), (955, 566), (955, 566), (955, 566), (955, 566), (955, 566), (955, 566), (955, 566), (955, 566), (955, 566), (955, 566), (955, 566), (955, 566), (955, 566), (955, 566), (955, 566), (955, 566), (955, 566), (955, 566), (955, 566), (959, 569), (967, 574), (996, 587), (1029, 596), (1073, 610), (1139, 627), (1269, 658), (1343, 674)]",19.283382369542917,"[4, 6, 7, 9, 8, 5, 3, 1, 2]","(0, 0.25)",CHN004B,CHN,B,English,Thu Aug 09 14:59:39 2018,Mouse
1,1,2,0,48,7,7,1,841,20,821,135,0,500,200,8000,"[(959, 540), (957, 540), (955, 541), (954, 541), (953, 542), (953, 542), (953, 542), (953, 542), (953, 542), (953, 542), (953, 542), (953, 542), (953, 542), (953, 542), (953, 542), (953, 542), (952, 542), (951, 542), (951, 542), (951, 542), (950, 542), (949, 542), (948, 542), (948, 542), (948, 542), (947, 541), (947, 541), (947, 541), (947, 541), (947, 541), (947, 541), (947, 541), (947, 541), (947, 541), (947, 541), (947, 541), (947, 541), (947, 541), (947, 541), (947, 541), (947, 541), (947, 541), (946, 541), (946, 541), (946, 541), (944, 543), (942, 543), (942, 544), (942, 545), (942, 545), (942, 545), (942, 545), (942, 545), (942, 545), (942, 545), (942, 545), (942, 545), (942, 545), (942, 545), (942, 545), (942, 545), (942, 545), (942, 545), (942, 545), (942, 545), (942, 545), (942, 547), (942, 547), (942, 549), (942, 561), (942, 571), (942, 583), (939, 598), (937, 636), (932, 661), (932, 683), (929, 707), (922, 749), (921, 767), (917, 786), (913, 815), (913, 890), (913, 932), (903, 986)]",97.28307327076023,"[4, 6, 7, 9, 8, 5, 3, 1, 2]","(0, 0.25)",CHN004B,CHN,B,English,Thu Aug 09 14:59:39 2018,Mouse
1,1,2,0,49,7,7,1,801,361,440,134,0,500,200,8000,"[(960, 540), (960, 540), (960, 540), (960, 540), (960, 540), (960, 540), (960, 540), (960, 540), (960, 540), (960, 540), (960, 540), (960, 540), (960, 540), (960, 540), (960, 540), (960, 540), (960, 540), (960, 540), (960, 540), (960, 540), (960, 540), (960, 540), (960, 540), (960, 540), (960, 540), (960, 540), (960, 540), (960, 540), (960, 540), (960, 540), (960, 540), (960, 540), (960, 540), (960, 540), (960, 540), (960, 540), (959, 542), (958, 543), (958, 544), (958, 545), (958, 545), (957, 547), (957, 547), (957, 547), (957, 547), (957, 547), (957, 547), (957, 547), (957, 547), (957, 547), (957, 547), (957, 547), (957, 547), (956, 547), (956, 547), (955, 548), (954, 550), (951, 555), (951, 559), (949, 566), (946, 572), (945, 582), (943, 587), (943, 592), (942, 598), (940, 617), (936, 630), (935, 645), (931, 662), (927, 706), (922, 733), (916, 756), (912, 777), (902, 807), (900, 820), (895, 835), (890, 849), (874, 890), (868, 908), (859, 926), (852, 944)]",104.96671956400486,"[4, 6, 7, 9, 8, 5, 3, 1, 2]","(0, 0.25)",CHN004B,CHN,B,English,Thu Aug 09 14:59:39 2018,Mouse
1,1,2,0,50,5,9,0,-340,200,140,133,0,500,200,8000,"[(960, 540), (960, 540), (960, 540), (960, 540), (960, 540), (960, 540), (960, 540), (960, 540), (960, 540), (960, 540), (960, 540), (960, 540), (960, 540), (960, 540), (960, 540), (960, 540), (960, 540), (960, 540), (960, 540), (958, 541), (957, 542), (955, 543), (954, 544), (950, 549), (948, 554), (944, 559), (937, 567), (895, 601), (861, 625), (822, 653), (780, 683), (704, 739), (673, 767), (648, 793)]",140.9614926526558,"[4, 6, 7, 9, 8, 5, 3, 1, 2]","(0, 0.25)",CHN004B,CHN,B,English,Thu Aug 09 14:59:39 2018,Mouse
1,1,2,0,51,8,6,0,-979,179,800,134,0,500,200,8000,"[(960, 540), (960, 540), (960, 540), (960, 540), (960, 540), (960, 540), (960, 540), (960, 540), (960, 540), (960, 540), (960, 540), (960, 540), (960, 540), (960, 540), (960, 540), (960, 540), (960, 540), (960, 537), (960, 536), (960, 535), (960, 533), (960, 531), (960, 531), (960, 531), (960, 531), (960, 531), (960, 531), (960, 531), (960, 531), (959, 530), (959, 530), (959, 530), (958, 530), (958, 530), (958, 530), (958, 530), (958, 530), (957, 529), (957, 529), (957, 529), (957, 529), (957, 529), (957, 529), (957, 529), (957, 529), (957, 529), (957, 529), (957, 528), (957, 528), (957, 528), (957, 528), (957, 528), (957, 528), (957, 528), (957, 528), (957, 528), (957, 528), (957, 528), (957, 528), (957, 528), (957, 528), (957, 528), (957, 528), (957, 528), (957, 528), (957, 528), (957, 528), (957, 528), (957, 528), (957, 528), (957, 528), (958, 530), (958, 531), (958, 537), (958, 541), (959, 545), (960, 550), (963, 563), (966, 570), (969, 575), (972, 583), (974, 587), (974, 587), (974, 588), (974, 588), (974, 589), (974, 589), (974, 589), (974, 590), (974, 598), (976, 607), (980, 620), (989, 639), (1017, 697), (1034, 735), (1054, 783), (1076, 831), (1121, 939)]",68.02549200852803,"[4, 6, 7, 9, 8, 5, 3, 1, 2]","(0, 0.25)",CHN004B,CHN,B,English,Thu Aug 09 14:59:39 2018,Mouse
1,1,2,0,52,2,7,0,-421,301,120,135,0,500,200,8000,"[(960, 540), (960, 540), (960, 540), (960, 540), (960, 540), (960, 540), (960, 540), (960, 540), (960, 540), (960, 540), (960, 540), (960, 540), (960, 540), (960, 540), (960, 540), (960, 540), (960, 540), (960, 540), (960, 540), (960, 540), (960, 540), (960, 540), (960, 540), (960, 540), (960, 540), (960, 540), (960, 540), (960, 540), (960, 540), (960, 540), (957, 543), (955, 549), (952, 556), (948, 569), (933, 601), (923, 630), (915, 657), (908, 688), (900, 757), (894, 800), (889, 840), (882, 876), (873, 948)]",102.03720232036575,"[4, 6, 7, 9, 8, 5, 3, 1, 2]","(0, 0.25)",CHN004B,CHN,B,English,Thu Aug 09 14:59:39 2018,Mouse
1,1,2,0,53,4,4,1,891,201,690,136,0,500,200,8000,"[(960, 540), (960, 540), (960, 540), (960, 540), (960, 540), (960, 540), (960, 540), (960, 540), (960, 540), (960, 540), (960, 540), (960, 540), (960, 540), (960, 540), (960, 540), (960, 540), (960, 540), (960, 540), (960, 540), (960, 540), (961, 542), (962, 542), (962, 544), (966, 552), (968, 558), (971, 564), (973, 570), (978, 584), (982, 593), (989, 605), (997, 615), (1008, 635), (1013, 645), (1017, 651), (1021, 656), (1024, 661), (1024, 661), (1025, 662), (1025, 662), (1025, 662), (1025, 662), (1025, 662), (1025, 662), (1025, 662), (1025, 662), (1025, 662), (1025, 662), (1025, 662), (1025, 662), (1025, 662), (1025, 662), (1025, 662), (1025, 662), (1025, 662), (1025, 662), (1025, 662), (1025, 662), (1025, 662), (1025, 662), (1025, 662), (1025, 662), (1025, 662), (1025, 662), (1025, 660), (1025, 659), (1025, 657), (1025, 656), (1025, 653), (1025, 651), (1025, 651), (1025, 649), (1025, 648), (1025, 648), (1025, 647), (1025, 647), (1025, 646), (1025, 645), (1025, 645), (1025, 645), (1028, 642), (1035, 640), (1043, 640), (1054, 640), (1083, 640), (1100, 640), (1132, 645), (1170, 652), (1272, 678), (1324, 692), (1374, 708)]",22.087171603228345,"[4, 6, 7, 9, 8, 5, 3, 1, 2]","(0, 0.25)",CHN004B,CHN,B,English,Thu Aug 09 14:59:39 2018,Mouse
1,1,2,0,54,5,5,1,2172,72,2100,136,0,500,200,8000,"[(960, 540), (960, 540), (960, 540), (960, 540), (960, 540), (960, 540), (960, 540), (960, 539), (960, 539), (960, 538), (960, 538), (960, 538), (960, 538), (960, 537), (960, 537), (960, 536), (960, 536), (960, 536), (960, 536), (960, 536), (960, 536), (960, 535), (960, 535), (960, 535), (960, 535), (960, 535), (960, 535), (960, 535), (960, 535), (960, 535), (960, 535), (959, 535), (959, 535), (959, 535), (959, 535), (959, 535), (959, 535), (958, 535), (958, 535), (958, 535), (958, 535), (958, 535), (958, 535), (958, 535), (958, 535), (958, 535), (958, 535), (958, 535), (958, 535), (958, 535), (958, 535), (958, 535), (956, 535), (956, 535), (956, 536), (955, 537), (954, 537), (952, 538), (951, 538), (950, 540), (949, 540), (948, 540), (948, 541), (947, 542), (947, 542), (946, 542), (946, 542), (945, 543), (945, 543), (945, 543), (945, 543), (945, 543), (945, 543), (945, 543), (945, 543), (945, 543), (945, 543), (945, 543), (945, 543), (945, 543), (945, 543), (945, 543), (945, 543), (945, 543), (945, 543), (945, 543), (945, 543), (945, 543), (945, 543), (945, 543), (945, 543), (945, 543), (945, 543), (945, 543), (945, 543), (945, 543), (945, 543), (945, 543), (945, 543), (945, 543), (945, 543), (945, 543), (945, 543), (945, 543), (945, 543), (945, 543), (945, 543), (945, 543), (945, 543), (945, 543), (945, 543), (945, 543), (945, 543), (945, 543), (945, 543), (945, 543), (945, 543), (945, 543), (945, 543), (945, 543), (945, 543), (945, 543), (945, 543), (945, 543), (945, 543), (945, 543), (945, 543), (945, 543), (945, 543), (945, 543), (945, 543), (945, 543), (945, 543), (945, 543), (945, 543), (945, 543), (945, 543), (945, 543), (945, 543), (945, 543), (945, 543), (945, 543), (945, 543), (945, 543), (945, 543), (945, 543), (945, 543), (945, 543), (945, 543), (945, 543), (945, 543), (945, 543), (945, 543), (945, 543), (945, 543), (945, 543), (945, 543), (945, 543), (945, 543), (945, 543), (945, 543), (945, 543), (945, 543), (945, 543), (945, 543), (945, 543), (945, 543), (945, 543), (945, 543), (945, 543), (945, 543), (945, 543), (945, 543), (945, 543), (945, 543), (945, 543), (945, 543), (945, 543), (945, 543), (945, 543), (945, 543), (945, 543), (945, 543), (945, 543), (945, 543), (945, 543), (945, 543), (945, 543), (945, 543), (945, 543), (945, 543), (945, 543), (945, 543), (945, 543), (945, 543), (945, 543), (945, 543), (945, 543), (945, 543), (945, 543), (945, 543), (945, 543), (945, 543), (945, 543), (945, 543), (942, 539), (940, 532), (934, 521), (930, 508), (913, 472), (898, 448), (881, 418), (866, 395), (824, 346), (800, 324), (774, 303), (746, 282), (677, 223)]",228.2432922827762,"[4, 6, 7, 9, 8, 5, 3, 1, 2]","(0, 0.25)",CHN004B,CHN,B,English,Thu Aug 09 14:59:39 2018,Mouse
1,1,2,0,55,2,6,0,-1020,670,350,135,0,500,200,8000,"[(960, 540), (960, 540), (960, 540), (960, 540), (960, 540), (960, 540), (960, 540), (960, 540), (960, 540), (960, 540), (960, 540), (960, 540), (960, 540), (960, 540), (960, 540), (960, 540), (960, 540), (960, 540), (960, 540), (960, 540), (960, 540), (960, 540), (960, 540), (960, 540), (960, 540), (960, 540), (960, 540), (960, 540), (960, 540), (960, 540), (960, 540), (960, 540), (960, 540), (960, 540), (960, 540), (960, 540), (960, 540), (960, 540), (960, 540), (960, 540), (960, 540), (960, 540), (960, 540), (960, 540), (960, 540), (960, 540), (960, 540), (960, 540), (960, 540), (960, 540), (960, 540), (960, 540), (960, 540), (960, 540), (960, 540), (960, 540), (960, 540), (960, 540), (960, 540), (960, 540), (960, 540), (960, 540), (960, 540), (960, 540), (960, 540), (960, 540), (960, 542), (960, 542), (960, 543), (960, 544), (960, 545), (960, 545), (960, 545), (960, 546), (960, 546), (960, 546), (960, 546), (960, 546), (960, 546), (960, 546), (960, 546), (960, 546), (960, 546), (960, 546), (960, 546), (960, 546), (960, 548), (960, 550), (959, 552), (959, 556), (959, 567), (959, 575), (959, 582), (959, 594), (977, 637), (995, 669), (1015, 700), (1039, 734), (1093, 807), (1120, 843), (1149, 877), (1179, 912)]",59.514266293668435,"[4, 6, 7, 9, 8, 5, 3, 1, 2]","(0, 0.25)",CHN004B,CHN,B,English,Thu Aug 09 14:59:39 2018,Mouse
1,1,2,0,56,8,9,0,-479,309,170,136,0,500,200,8000,"[(960, 540), (960, 540), (960, 540), (960, 540), (960, 540), (960, 540), (960, 540), (960, 540), (960, 540), (960, 540), (960, 540), (960, 540), (960, 540), (960, 540), (960, 540), (960, 540), (960, 540), (960, 540), (960, 540), (960, 540), (960, 540), (960, 540), (960, 540), (960, 540), (960, 540), (960, 540), (960, 540), (960, 540), (960, 540), (960, 540), (959, 540), (958, 540), (957, 540), (955, 540), (953, 541), (951, 542), (946, 543), (941, 546), (938, 548), (933, 552), (921, 563), (911, 573), (895, 593), (873, 620), (807, 689), (758, 738), (695, 777), (620, 832)]",139.34323995168938,"[4, 6, 7, 9, 8, 5, 3, 1, 2]","(0, 0.25)",CHN004B,CHN,B,English,Thu Aug 09 14:59:39 2018,Mouse
1,1,2,0,57,8,8,1,361,241,120,137,0,500,200,8000,"[(960, 540), (960, 540), (960, 540), (960, 540), (960, 540), (960, 540), (960, 540), (960, 540), (960, 540), (960, 540), (960, 540), (960, 540), (960, 540), (960, 540), (960, 540), (960, 540), (960, 540), (960, 540), (960, 540), (960, 540), (960, 540), (960, 540), (960, 540), (960, 540), (951, 540), (942, 540), (930, 540), (917, 540), (878, 540), (845, 540), (814, 540), (773, 540), (722, 540), (700, 540), (672, 540), (644, 540), (558, 540)]",180.0,"[4, 6, 7, 9, 8, 5, 3, 1, 2]","(0, 0.25)",CHN004B,CHN,B,English,Thu Aug 09 14:59:39 2018,Mouse
1,1,2,0,58,3,4,0,-2671,751,1920,137,0,500,200,8000,"[(960, 540), (960, 540), (960, 540), (960, 540), (960, 540), (960, 540), (960, 540), (960, 540), (960, 540), (960, 540), (960, 540), (960, 540), (960, 540), (960, 540), (960, 540), (960, 540), (960, 540), (960, 540), (960, 540), (960, 540), (960, 540), (960, 540), (960, 540), (960, 540), (960, 540), (960, 540), (960, 540), (960, 540), (960, 540), (960, 540), (960, 540), (960, 540), (960, 540), (960, 540), (960, 540), (960, 540), (960, 540), (960, 540), (960, 540), (960, 540), (960, 540), (960, 540), (960, 540), (960, 540), (960, 540), (960, 540), (960, 540), (960, 540), (960, 540), (960, 540), (960, 540), (960, 540), (960, 540), (960, 540), (960, 540), (960, 540), (960, 540), (960, 540), (960, 540), (960, 540), (960, 540), (960, 540), (960, 540), (960, 540), (960, 540), (960, 540), (960, 540), (960, 540), (960, 540), (960, 540), (960, 540), (960, 540), (960, 540), (960, 540), (960, 540), (961, 540), (961, 539), (961, 538), (961, 537), (961, 537), (961, 537), (961, 537), (961, 537), (961, 537), (961, 537), (961, 537), (961, 537), (961, 536), (961, 536), (961, 536), (961, 536), (961, 536), (961, 536), (961, 536), (960, 536), (960, 536), (960, 538), (960, 541), (960, 550), (960, 560), (960, 571), (960, 589), (960, 640), (960, 667), (956, 705), (956, 738), (956, 794), (956, 822), (956, 844), (956, 859), (954, 886), (953, 893), (952, 899), (951, 901), (950, 904), (950, 904), (949, 905), (949, 905), (949, 905), (949, 905), (949, 905), (949, 905), (949, 905), (949, 905), (949, 905), (948, 906), (948, 906), (948, 906), (948, 906), (948, 906), (948, 906), (948, 906), (948, 906), (948, 906), (947, 906), (946, 904), (946, 901), (946, 900), (946, 896), (946, 895), (946, 894), (946, 894), (946, 893), (946, 891), (946, 890), (946, 887), (949, 880), (951, 876), (954, 870), (956, 864), (959, 854), (963, 848), (964, 845), (966, 839), (968, 834), (968, 832), (968, 829), (968, 826), (968, 822), (967, 821), (967, 819), (966, 818), (965, 817), (965, 816), (964, 815), (964, 815), (964, 815), (964, 815), (964, 815), (964, 815), (964, 815), (962, 815), (962, 815), (962, 815), (960, 816), (960, 816), (960, 816), (960, 816), (960, 816), (960, 816), (960, 816), (960, 816), (960, 816), (960, 816), (960, 816), (960, 816), (960, 816), (960, 816), (960, 816), (960, 816), (960, 816), (960, 816), (960, 816), (960, 816), (960, 816), (960, 816), (960, 816), (960, 816), (960, 816), (960, 816), (960, 816), (960, 816), (960, 816), (960, 814), (960, 811), (963, 807), (972, 796), (976, 791), (979, 788), (981, 785), (987, 778), (989, 777), (990, 775), (992, 774), (995, 770), (995, 770), (996, 769), (997, 769), (997, 769), (997, 769), (997, 769), (997, 769), (997, 769), (997, 769), (997, 769), (997, 769), (997, 769), (997, 769), (997, 769), (997, 768), (997, 768), (997, 768), (997, 768), (997, 768), (997, 768), (997, 768), (997, 768), (997, 768), (997, 768), (997, 768), (997, 768), (997, 768), (997, 767), (998, 764), (1005, 762), (1008, 760), (1014, 758), (1016, 757), (1016, 757), (1016, 757), (1016, 757), (1016, 757), (1016, 757), (1016, 757), (1016, 757), (1016, 757), (1018, 757), (1019, 757), (1026, 757), (1031, 757), (1038, 757), (1047, 757), (1081, 757), (1106, 757), (1145, 757), (1189, 757), (1289, 757), (1339, 757)]",29.79369904671361,"[4, 6, 7, 9, 8, 5, 3, 1, 2]","(0, 0.25)",CHN004B,CHN,B,English,Thu Aug 09 14:59:39 2018,Mouse
1,1,2,0,59,2,2,1,1012,142,870,138,0,500,200,8000,"[(960, 540), (960, 540), (960, 540), (960, 540), (960, 540), (960, 540), (960, 540), (960, 540), (960, 540), (960, 540), (960, 540), (960, 540), (960, 540), (960, 540), (960, 541), (960, 542), (960, 545), (960, 547), (966, 555), (967, 559), (969, 562), (970, 564), (972, 564), (972, 564), (972, 564), (972, 564), (972, 564), (972, 564), (972, 564), (972, 564), (973, 564), (973, 564), (973, 564), (973, 564), (973, 564), (973, 564), (973, 564), (973, 564), (973, 564), (973, 563), (973, 561), (973, 560), (973, 557), (973, 556), (972, 552), (970, 549), (969, 543), (968, 541), (966, 537), (964, 533), (964, 527), (961, 523), (960, 520), (959, 517), (956, 512), (956, 510), (956, 508), (956, 506), (956, 505), (956, 505), (956, 503), (956, 503), (956, 503), (956, 503), (956, 503), (956, 503), (956, 503), (956, 503), (956, 503), (956, 503), (956, 503), (956, 503), (956, 503), (956, 503), (956, 503), (956, 503), (956, 503), (956, 503), (956, 503), (956, 503), (956, 503), (956, 503), (956, 503), (956, 503), (956, 503), (956, 503), (956, 503), (956, 502), (956, 501), (961, 501), (981, 498), (996, 496), (1013, 493), (1033, 493), (1085, 488), (1114, 485), (1149, 481), (1192, 474), (1269, 465), (1305, 458), (1339, 454), (1366, 450)]",347.5010805403613,"[4, 6, 7, 9, 8, 5, 3, 1, 2]","(0, 0.25)",CHN004B,CHN,B,English,Thu Aug 09 14:59:39 2018,Mouse
1,1,2,0,60,1,1,1,780,20,760,138,0,500,200,8000,"[(960, 540), (960, 538), (959, 537), (956, 535), (955, 534), (953, 533), (952, 533), (950, 532), (950, 532), (950, 532), (950, 532), (949, 531), (949, 531), (949, 531), (949, 531), (949, 531), (949, 531), (949, 531), (949, 531), (949, 531), (949, 531), (949, 531), (949, 531), (949, 531), (948, 531), (948, 530), (948, 530), (946, 527), (945, 525), (945, 524), (945, 523), (943, 522), (943, 521), (943, 520), (943, 520), (943, 520), (943, 520), (943, 520), (943, 520), (943, 520), (943, 520), (943, 520), (943, 520), (943, 520), (943, 520), (943, 520), (943, 518), (943, 514), (943, 513), (945, 509), (947, 504), (952, 498), (957, 493), (962, 489), (967, 484), (972, 481), (974, 480), (978, 480), (983, 477), (997, 475), (999, 473), (1001, 468), (1003, 467), (1004, 452), (1004, 440), (1007, 426), (1008, 414), (1009, 392), (1013, 380), (1015, 366), (1020, 352), (1041, 307), (1054, 285), (1066, 266), (1079, 242), (1106, 202), (1123, 182), (1144, 162)]",295.9555446004028,"[4, 6, 7, 9, 8, 5, 3, 1, 2]","(0, 0.25)",CHN004B,CHN,B,English,Thu Aug 09 14:59:39 2018,Mouse
1,1,2,0,61,5,5,1,718,109,609,137,0,500,200,8000,"[(960, 540), (960, 540), (960, 540), (960, 540), (960, 540), (960, 540), (960, 540), (960, 540), (960, 540), (960, 540), (959, 541), (959, 541), (956, 544), (953, 548), (950, 549), (947, 554), (941, 561), (938, 565), (935, 572), (932, 576), (926, 586), (923, 589), (922, 593), (920, 595), (919, 597), (919, 597), (918, 598), (918, 598), (918, 598), (918, 598), (918, 598), (918, 598), (918, 598), (917, 598), (916, 597), (915, 595), (912, 593), (909, 589), (909, 587), (908, 586), (907, 585), (907, 584), (907, 584), (907, 584), (907, 584), (906, 584), (905, 584), (905, 584), (903, 584), (899, 581), (897, 579), (893, 576), (889, 573), (883, 567), (878, 560), (874, 555), (870, 550), (865, 541), (862, 535), (857, 529), (854, 523), (850, 507), (848, 498), (842, 482), (832, 463), (814, 424), (800, 402), (790, 383), (769, 358), (727, 311), (699, 287), (665, 261)]",223.40331855092006,"[4, 6, 7, 9, 8, 5, 3, 1, 2]","(0, 0.25)",CHN004B,CHN,B,English,Thu Aug 09 14:59:39 2018,Mouse
1,1,2,0,62,4,4,1,688,38,650,136,0,500,200,8000,"[(960, 540), (960, 540), (960, 540), (959, 540), (959, 540), (959, 540), (959, 540), (959, 540), (959, 540), (959, 540), (959, 540), (959, 540), (959, 540), (957, 540), (957, 540), (957, 540), (957, 540), (957, 540), (957, 540), (956, 541), (956, 543), (956, 543), (956, 545), (955, 547), (955, 550), (955, 552), (955, 555), (955, 558), (955, 561), (955, 563), (955, 564), (955, 564), (955, 565), (955, 565), (955, 565), (955, 565), (955, 565), (955, 565), (955, 565), (955, 566), (955, 566), (955, 566), (955, 566), (955, 566), (955, 566), (955, 566), (955, 566), (955, 566), (955, 566), (955, 566), (955, 566), (955, 566), (955, 566), (955, 566), (955, 566), (955, 566), (955, 566), (955, 566), (955, 566), (955, 566), (955, 566), (962, 566), (985, 567), (1014, 572), (1106, 585), (1164, 602), (1227, 617), (1299, 636), (1442, 671)]",15.204815134320704,"[4, 6, 7, 9, 8, 5, 3, 1, 2]","(0, 0.25)",CHN004B,CHN,B,English,Thu Aug 09 14:59:39 2018,Mouse
1,1,2,0,63,4,4,1,410,180,230,135,0,500,200,8000,"[(960, 540), (960, 540), (960, 540), (960, 540), (960, 540), (960, 540), (960, 540), (960, 540), (960, 540), (960, 540), (960, 540), (960, 540), (960, 540), (960, 540), (960, 540), (960, 540), (960, 540), (959, 541), (959, 541), (959, 541), (959, 541), (959, 541), (959, 541), (959, 541), (959, 541), (958, 541), (958, 541), (958, 541), (958, 541), (957, 542), (957, 542), (957, 544), (957, 547), (973, 569), (987, 585), (1009, 608), (1040, 632), (1141, 688), (1203, 711), (1278, 735), (1357, 755)]",28.438279125102834,"[4, 6, 7, 9, 8, 5, 3, 1, 2]","(0, 0.25)",CHN004B,CHN,B,English,Thu Aug 09 14:59:39 2018,Mouse
1,1,2,0,64,7,7,1,589,89,500,134,0,500,200,8000,"[(960, 540), (960, 540), (960, 540), (960, 540), (960, 540), (960, 540), (960, 540), (960, 540), (960, 539), (960, 539), (960, 539), (960, 539), (960, 539), (959, 537), (959, 537), (958, 537), (958, 537), (958, 537), (958, 537), (958, 537), (958, 537), (958, 537), (958, 537), (956, 537), (955, 537), (955, 537), (954, 537), (952, 537), (952, 537), (952, 537), (952, 539), (949, 547), (947, 551), (945, 557), (941, 563), (937, 573), (936, 579), (933, 586), (932, 590), (929, 600), (929, 604), (927, 609), (923, 619), (919, 644), (918, 665), (918, 687), (915, 708), (910, 752), (910, 769), (910, 783), (910, 796), (905, 827), (904, 841), (904, 857), (904, 874), (902, 907), (902, 922), (902, 933), (902, 942)]",98.20990143837071,"[4, 6, 7, 9, 8, 5, 3, 1, 2]","(0, 0.25)",CHN004B,CHN,B,English,Thu Aug 09 14:59:39 2018,Mouse
1,1,2,0,65,2,6,0,-551,21,530,133,0,500,200,8000,"[(960, 540), (960, 540), (959, 540), (959, 539), (959, 535), (959, 534), (959, 534), (959, 534), (959, 534), (959, 534), (959, 534), (959, 534), (959, 534), (959, 534), (959, 534), (959, 534), (958, 533), (958, 533), (958, 533), (957, 533), (957, 533), (957, 533), (957, 533), (957, 533), (957, 533), (957, 533), (957, 533), (957, 533), (956, 533), (956, 533), (956, 533), (956, 533), (954, 535), (954, 536), (954, 538), (954, 539), (954, 546), (954, 548), (954, 552), (954, 556), (958, 571), (961, 577), (962, 582), (966, 591), (975, 610), (981, 622), (987, 639), (996, 653), (1025, 693), (1043, 716), (1070, 742), (1094, 767), (1143, 809), (1165, 833), (1182, 856), (1199, 876)]",54.57539520940992,"[4, 6, 7, 9, 8, 5, 3, 1, 2]","(0, 0.25)",CHN004B,CHN,B,English,Thu Aug 09 14:59:39 2018,Mouse
1,1,2,0,66,2,2,1,889,399,490,134,0,500,200,8000,"[(960, 540), (960, 540), (960, 540), (960, 540), (960, 540), (960, 540), (960, 540), (960, 540), (960, 540), (960, 540), (960, 540), (960, 540), (960, 540), (960, 540), (960, 540), (960, 540), (960, 540), (960, 540), (960, 540), (960, 540), (960, 540), (960, 540), (960, 540), (960, 540), (960, 540), (960, 540), (960, 540), (960, 540), (960, 540), (960, 540), (960, 540), (960, 540), (960, 540), (960, 540), (960, 540), (960, 540), (960, 540), (960, 540), (960, 540), (960, 538), (961, 538), (961, 538), (962, 538), (964, 538), (965, 538), (966, 538), (967, 538), (968, 538), (969, 538), (970, 538), (970, 538), (970, 538), (970, 538), (970, 538), (970, 538), (970, 538), (970, 538), (970, 538), (970, 538), (970, 538), (970, 538), (970, 538), (970, 538), (970, 538), (970, 538), (970, 538), (970, 538), (970, 538), (971, 538), (971, 538), (971, 538), (972, 538), (973, 538), (974, 538), (974, 537), (976, 535), (977, 533), (978, 532), (981, 528), (985, 524), (991, 520), (1000, 516), (1011, 509), (1042, 494), (1069, 477), (1099, 459), (1141, 431), (1281, 352), (1348, 319)]",330.33469612343515,"[4, 6, 7, 9, 8, 5, 3, 1, 2]","(0, 0.25)",CHN004B,CHN,B,English,Thu Aug 09 14:59:39 2018,Mouse
1,1,2,0,67,4,7,0,-869,709,160,134,0,500,200,8000,"[(960, 540), (960, 540), (960, 540), (960, 540), (960, 540), (960, 540), (960, 540), (960, 540), (960, 540), (960, 540), (960, 540), (960, 540), (960, 540), (960, 540), (960, 540), (960, 540), (960, 540), (960, 540), (960, 540), (960, 540), (960, 540), (960, 540), (960, 540), (960, 540), (960, 540), (960, 540), (960, 540), (960, 540), (960, 540), (960, 540), (960, 540), (960, 540), (960, 540), (960, 540), (960, 540), (960, 540), (960, 540), (960, 540), (960, 540), (960, 540), (960, 540), (960, 540), (960, 540), (960, 540), (960, 540), (960, 540), (960, 540), (960, 540), (960, 540), (960, 540), (960, 540), (960, 540), (960, 540), (960, 540), (960, 540), (960, 540), (960, 540), (960, 540), (960, 540), (960, 540), (960, 540), (960, 540), (960, 540), (960, 540), (960, 540), (960, 540), (960, 540), (960, 540), (960, 540), (960, 540), (958, 540), (957, 542), (957, 546), (955, 551), (952, 573), (952, 589), (952, 612), (952, 640), (952, 704), (952, 737), (952, 768), (952, 801), (954, 858), (954, 886), (954, 908), (954, 925), (949, 952)]",91.52937835533282,"[4, 6, 7, 9, 8, 5, 3, 1, 2]","(0, 0.25)",CHN004B,CHN,B,English,Thu Aug 09 14:59:39 2018,Mouse
1,1,2,0,68,4,4,1,601,211,390,135,0,500,200,8000,"[(960, 540), (960, 540), (960, 540), (960, 540), (960, 540), (960, 540), (960, 540), (960, 540), (960, 540), (960, 540), (960, 540), (960, 540), (960, 540), (960, 540), (960, 540), (960, 540), (960, 540), (960, 540), (960, 540), (960, 540), (960, 540), (960, 542), (960, 548), (965, 560), (970, 568), (972, 575), (976, 581), (982, 593), (986, 598), (987, 601), (990, 605), (992, 609), (993, 611), (994, 611), (994, 612), (994, 613), (994, 613), (994, 613), (994, 613), (994, 613), (994, 613), (994, 613), (994, 613), (994, 613), (995, 614), (995, 614), (995, 615), (1000, 618), (1001, 619), (1006, 621), (1014, 627), (1033, 638), (1042, 643), (1057, 651), (1068, 658), (1111, 680), (1135, 691), (1161, 702), (1196, 717), (1275, 749), (1323, 765)]",31.7920715372209,"[4, 6, 7, 9, 8, 5, 3, 1, 2]","(0, 0.25)",CHN004B,CHN,B,English,Thu Aug 09 14:59:39 2018,Mouse
1,1,2,0,69,3,5,0,-1761,191,1570,135,0,500,200,8000,"[(960, 540), (960, 540), (960, 540), (960, 540), (960, 540), (960, 540), (960, 540), (960, 540), (960, 540), (960, 540), (960, 540), (960, 540), (960, 540), (960, 540), (960, 540), (960, 540), (960, 540), (960, 540), (960, 540), (958, 540), (956, 540), (952, 542), (950, 543), (948, 544), (947, 545), (945, 547), (944, 547), (943, 548), (942, 549), (939, 552), (937, 555), (934, 559), (931, 564), (923, 573), (919, 577), (914, 581), (911, 583), (902, 588), (901, 588), (899, 588), (897, 589), (894, 590), (892, 591), (891, 591), (887, 592), (875, 599), (865, 605), (852, 612), (830, 624), (781, 654), (756, 669), (732, 684), (710, 698), (687, 714), (682, 719), (681, 722), (680, 722), (680, 722), (680, 722), (680, 722), (680, 723), (680, 723), (680, 723), (680, 723), (680, 724), (682, 722), (683, 721), (683, 719), (686, 716), (687, 710), (689, 708), (689, 706), (690, 703), (692, 699), (693, 698), (694, 697), (694, 696), (696, 695), (696, 694), (696, 694), (698, 694), (707, 694), (714, 694), (723, 694), (736, 697), (764, 704), (781, 710), (798, 715), (809, 718), (839, 727), (849, 729), (859, 730), (867, 732), (876, 732), (879, 732), (882, 732), (883, 732), (884, 730), (886, 729), (887, 726), (888, 724), (892, 717), (895, 711), (896, 706), (897, 701), (903, 688), (906, 681), (907, 674), (910, 665), (913, 652), (915, 645), (916, 641), (918, 636), (921, 625), (922, 622), (925, 617), (926, 614), (929, 608), (932, 605), (933, 603), (934, 602), (936, 600), (937, 600), (939, 599), (940, 598), (940, 598), (940, 598), (940, 598), (942, 597), (942, 597), (942, 597), (942, 597), (942, 597), (942, 594), (942, 593), (942, 591), (942, 588), (936, 575), (931, 569), (926, 563), (920, 555), (908, 541), (901, 534), (895, 526), (890, 520), (882, 510), (878, 505), (876, 502), (874, 499), (871, 494), (870, 493), (869, 492), (867, 490), (864, 487), (863, 487), (863, 486), (862, 486), (859, 484), (858, 482), (856, 480), (854, 478), (850, 470), (848, 465), (845, 457), (842, 451), (833, 433), (827, 421), (822, 410), (812, 396), (787, 366), (773, 351), (759, 336), (743, 320), (710, 289), (694, 275), (682, 265), (670, 254)]",224.6021190381654,"[4, 6, 7, 9, 8, 5, 3, 1, 2]","(0, 0.25)",CHN004B,CHN,B,English,Thu Aug 09 14:59:39 2018,Mouse
1,1,2,0,70,3,9,0,-470,330,140,136,0,500,200,8000,"[(960, 540), (960, 540), (960, 540), (960, 540), (960, 540), (960, 540), (960, 540), (960, 540), (960, 540), (960, 540), (960, 540), (960, 540), (960, 540), (960, 540), (960, 540), (960, 540), (960, 540), (960, 540), (960, 540), (960, 540), (960, 540), (960, 540), (960, 540), (960, 540), (960, 540), (960, 540), (960, 540), (960, 540), (960, 540), (960, 540), (960, 540), (960, 540), (959, 540), (957, 540), (955, 543), (948, 551), (942, 557), (933, 566), (924, 575), (893, 597), (873, 612), (848, 631), (814, 655), (727, 702), (686, 724), (648, 745), (615, 769)]",146.42506114595764,"[4, 6, 7, 9, 8, 5, 3, 1, 2]","(0, 0.25)",CHN004B,CHN,B,English,Thu Aug 09 14:59:39 2018,Mouse
1,1,2,0,71,9,9,1,441,291,150,137,0,500,200,8000,"[(960, 540), (960, 540), (960, 540), (960, 540), (960, 540), (960, 540), (960, 540), (960, 540), (960, 540), (960, 540), (960, 540), (960, 540), (960, 540), (960, 540), (960, 540), (960, 540), (960, 540), (960, 540), (960, 540), (960, 540), (960, 540), (960, 540), (960, 540), (960, 540), (960, 540), (960, 540), (960, 540), (960, 540), (960, 540), (959, 541), (958, 543), (956, 545), (942, 559), (933, 566), (921, 575), (906, 589), (875, 616), (860, 628), (848, 639), (831, 657), (784, 699), (757, 724), (726, 750), (691, 781), (620, 838)]",138.76638797096678,"[4, 6, 7, 9, 8, 5, 3, 1, 2]","(0, 0.25)",CHN004B,CHN,B,English,Thu Aug 09 14:59:39 2018,Mouse
1,1,2,0,72,8,8,1,350,60,290,137,0,500,200,8000,"[(960, 540), (960, 540), (960, 540), (960, 540), (960, 540), (959, 540), (958, 540), (958, 540), (958, 540), (958, 540), (958, 540), (958, 540), (958, 540), (958, 540), (958, 540), (958, 540), (958, 540), (958, 540), (958, 540), (958, 540), (958, 540), (958, 540), (958, 540), (957, 540), (955, 540), (951, 538), (930, 533), (912, 531), (882, 526), (845, 523), (746, 513), (696, 511), (642, 507), (590, 507), (495, 507)]",184.05934636479924,"[4, 6, 7, 9, 8, 5, 3, 1, 2]","(0, 0.25)",CHN004B,CHN,B,English,Thu Aug 09 14:59:39 2018,Mouse
1,1,2,0,73,2,2,1,900,40,860,136,0,500,200,8000,"[(961, 540), (961, 540), (961, 540), (962, 540), (962, 540), (964, 540), (964, 540), (965, 540), (967, 540), (967, 540), (968, 540), (971, 540), (972, 540), (975, 540), (978, 539), (984, 536), (988, 535), (992, 535), (997, 532), (1001, 528), (1004, 526), (1005, 525), (1008, 521), (1009, 519), (1010, 517), (1011, 517), (1011, 517), (1011, 516), (1012, 514), (1012, 514), (1012, 513), (1012, 509), (1014, 507), (1014, 505), (1014, 501), (1014, 495), (1014, 492), (1014, 489), (1014, 486), (1013, 479), (1013, 478), (1013, 475), (1013, 474), (1013, 472), (1013, 472), (1013, 471), (1013, 471), (1013, 471), (1013, 471), (1013, 471), (1013, 471), (1013, 471), (1013, 471), (1013, 471), (1013, 471), (1013, 470), (1013, 470), (1013, 469), (1014, 467), (1018, 462), (1020, 460), (1022, 458), (1024, 456), (1027, 452), (1028, 450), (1029, 448), (1030, 448), (1031, 447), (1031, 447), (1031, 447), (1031, 447), (1031, 447), (1031, 446), (1032, 446), (1033, 445), (1039, 444), (1043, 444), (1050, 444), (1059, 444), (1081, 444), (1095, 444), (1113, 444), (1129, 442), (1175, 433), (1194, 427), (1217, 421), (1244, 413), (1301, 402), (1332, 395), (1361, 390)]",339.4909442008655,"[4, 6, 7, 9, 8, 5, 3, 1, 2]","(0, 0.25)",CHN004B,CHN,B,English,Thu Aug 09 14:59:39 2018,Mouse
1,1,2,0,74,1,9,0,-691,31,660,135,0,500,200,8000,"[(960, 540), (960, 540), (960, 540), (962, 540), (962, 540), (962, 540), (962, 540), (962, 540), (962, 540), (962, 540), (962, 540), (962, 540), (962, 540), (963, 540), (963, 540), (963, 540), (963, 540), (963, 540), (963, 540), (963, 540), (963, 540), (963, 540), (963, 540), (963, 540), (963, 540), (963, 540), (963, 540), (963, 540), (963, 540), (963, 540), (963, 540), (963, 540), (963, 540), (963, 540), (963, 540), (963, 540), (963, 540), (963, 540), (963, 540), (963, 540), (963, 541), (963, 543), (963, 543), (963, 545), (962, 546), (961, 549), (960, 550), (959, 553), (958, 556), (957, 559), (956, 563), (955, 565), (954, 569), (950, 577), (946, 583), (941, 591), (934, 600), (923, 613), (916, 620), (911, 624), (906, 631), (892, 647), (884, 657), (870, 673), (852, 690), (795, 734), (762, 754), (728, 781), (698, 800), (635, 838)]",137.4815707850331,"[4, 6, 7, 9, 8, 5, 3, 1, 2]","(0, 0.25)",CHN004B,CHN,B,English,Thu Aug 09 14:59:39 2018,Mouse
