NativeLangNumber,LanuageNumber,SessionNumber,Block,TrialNum,ConditionNumber,Response,Accuracy,RT,MovementOnsetTime,TimeInMotion,SignalContrast,SignalContrastNumber,StimDisplayTime,MaskTime,MaxResponseTime,MousePositionXY,MouseAngle,WheelOrder,NoiseMuSigma,ParticipantID,LanuageTested,SessionTested,NativeLanuage,Date,ResponseDevice
2,1,4,0,1,8,8,1,1705,195,1510,153,0,500,200,8000,"[(512, 384), (512, 384), (512, 384), (512, 384), (512, 384), (512, 384), (512, 384), (512, 384), (512, 384), (512, 384), (512, 384), (512, 384), (512, 384), (512, 384), (512, 384), (512, 384), (512, 384), (512, 384), (512, 384), (511, 384), (511, 384), (511, 384), (511, 384), (510, 384), (510, 384), (510, 384), (510, 384), (510, 384), (510, 384), (509, 384), (508, 384), (507, 383), (507, 383), (506, 381), (506, 381), (506, 381), (506, 381), (506, 381), (506, 381), (506, 381), (506, 381), (506, 381), (506, 381), (506, 381), (506, 381), (506, 381), (506, 381), (506, 381), (506, 381), (506, 381), (506, 381), (506, 381), (506, 381), (506, 381), (506, 381), (506, 382), (508, 386), (512, 392), (513, 397), (514, 399), (516, 405), (516, 408), (516, 411), (517, 413), (517, 415), (518, 418), (518, 420), (518, 421), (518, 422), (518, 424), (518, 424), (518, 425), (518, 425), (518, 427), (519, 429), (520, 431), (521, 432), (527, 440), (530, 444), (533, 447), (536, 454), (542, 462), (543, 464), (544, 467), (544, 470), (546, 474), (546, 475), (546, 478), (546, 478), (545, 481), (544, 482), (544, 482), (543, 483), (542, 484), (542, 484), (541, 484), (540, 484), (539, 485), (538, 485), (537, 486), (535, 486), (533, 488), (531, 489), (529, 491), (526, 492), (521, 495), (519, 495), (518, 495), (515, 496), (512, 496), (511, 496), (508, 496), (505, 496), (500, 496), (498, 496), (494, 495), (489, 494), (476, 490), (471, 488), (463, 484), (455, 480), (442, 474), (435, 469), (432, 468), (432, 467), (430, 465), (430, 465), (430, 465), (430, 465), (430, 465), (429, 465), (429, 465), (429, 465), (429, 465), (429, 465), (429, 465), (429, 463), (430, 462), (433, 458), (434, 454), (436, 449), (439, 439), (441, 434), (442, 431), (442, 428), (442, 421), (442, 418), (442, 415), (442, 411), (442, 404), (441, 399), (439, 395), (435, 387), (426, 372), (422, 366), (419, 360), (414, 353), (405, 338), (399, 326), (392, 316), (385, 306), (375, 287), (370, 279), (364, 270), (359, 263), (349, 249), (347, 243), (341, 236), (337, 230), (326, 218), (323, 214)]",221.9704593443897,"[6, 3, 7, 1, 4, 8, 5, 2, 9]","(0, 0.25)",CHN009D,CHN,D,Chinese,Tue Oct 23 16:54:32 2018,Mouse
2,1,4,0,2,9,9,1,500,160,340,153,0,500,200,8000,"[(512, 384), (512, 384), (512, 384), (512, 384), (512, 384), (512, 384), (512, 384), (512, 384), (512, 384), (512, 384), (512, 384), (512, 384), (512, 384), (512, 384), (512, 384), (513, 385), (516, 385), (523, 385), (526, 384), (530, 383), (533, 383), (536, 380), (538, 380), (538, 380), (540, 379), (540, 379), (542, 377), (542, 377), (543, 377), (544, 376), (544, 376), (548, 375), (548, 375), (551, 374), (551, 374), (551, 374), (552, 374), (552, 374), (552, 374), (552, 374), (553, 374), (556, 373), (567, 371), (579, 367), (589, 363), (613, 354), (633, 347), (648, 341), (688, 326), (754, 307)]",342.34987578006985,"[6, 3, 7, 1, 4, 8, 5, 2, 9]","(0, 0.25)",CHN009D,CHN,D,Chinese,Tue Oct 23 16:54:32 2018,Mouse
2,1,4,0,3,9,9,1,350,40,310,152,0,500,200,8000,"[(512, 384), (512, 384), (512, 384), (513, 385), (517, 384), (521, 382), (525, 382), (533, 379), (536, 379), (539, 378), (542, 377), (545, 376), (547, 376), (548, 375), (549, 374), (551, 374), (554, 372), (555, 371), (556, 371), (557, 371), (558, 371), (558, 371), (559, 370), (559, 370), (559, 370), (561, 370), (564, 368), (577, 365), (590, 361), (605, 355), (622, 348), (671, 320), (696, 306), (718, 291), (740, 279)]",335.2726856133099,"[6, 3, 7, 1, 4, 8, 5, 2, 9]","(0, 0.25)",CHN009D,CHN,D,Chinese,Tue Oct 23 16:54:32 2018,Mouse
2,1,4,0,4,5,5,1,440,310,130,151,0,500,200,8000,"[(512, 384), (512, 384), (512, 384), (512, 384), (512, 384), (512, 384), (512, 384), (512, 384), (512, 384), (512, 384), (512, 384), (512, 384), (512, 384), (512, 384), (512, 384), (512, 384), (512, 384), (512, 384), (512, 384), (512, 384), (512, 384), (512, 384), (512, 384), (512, 384), (512, 384), (512, 384), (512, 384), (512, 384), (512, 384), (512, 384), (511, 382), (508, 375), (503, 359), (500, 350), (499, 335), (494, 317), (483, 278), (475, 255), (471, 236), (465, 214), (457, 176), (453, 160), (448, 146), (447, 135)]",255.36975936448218,"[6, 3, 7, 1, 4, 8, 5, 2, 9]","(0, 0.25)",CHN009D,CHN,D,Chinese,Tue Oct 23 16:54:32 2018,Mouse
2,1,4,0,5,5,5,1,211,11,200,150,0,500,200,8000,"[(512, 384), (511, 382), (510, 380), (510, 378), (510, 375), (509, 371), (508, 366), (508, 360), (506, 352), (503, 332), (501, 321), (501, 310), (500, 297), (499, 267), (498, 256), (497, 243), (496, 230), (491, 202), (489, 189), (485, 171), (483, 159), (475, 135)]",261.5480146304453,"[6, 3, 7, 1, 4, 8, 5, 2, 9]","(0, 0.25)",CHN009D,CHN,D,Chinese,Tue Oct 23 16:54:32 2018,Mouse
2,1,4,0,6,1,1,1,800,40,760,149,0,500,200,8000,"[(512, 384), (512, 384), (512, 384), (512, 387), (512, 389), (512, 391), (512, 393), (512, 396), (512, 398), (512, 400), (512, 401), (512, 402), (512, 403), (512, 404), (512, 404), (512, 405), (512, 406), (512, 407), (512, 407), (512, 409), (512, 410), (512, 411), (512, 414), (511, 419), (510, 420), (509, 422), (508, 425), (504, 432), (501, 439), (501, 442), (499, 447), (489, 459), (487, 463), (482, 468), (477, 471), (467, 480), (462, 483), (457, 489), (451, 493), (437, 502), (430, 505), (421, 511), (412, 516), (396, 524), (389, 526), (384, 530), (378, 532), (366, 539), (359, 541), (353, 542), (347, 544), (339, 546), (336, 547), (336, 548), (335, 549), (334, 549), (334, 549), (334, 549), (334, 549), (334, 549), (334, 549), (334, 549), (334, 549), (334, 549), (334, 549), (334, 549), (334, 549), (334, 549), (334, 549), (334, 549), (334, 549), (334, 549), (334, 549), (334, 549), (334, 549), (334, 549), (333, 551), (331, 552), (330, 553), (328, 556)]",136.93058744116698,"[6, 3, 7, 1, 4, 8, 5, 2, 9]","(0, 0.25)",CHN009D,CHN,D,Chinese,Tue Oct 23 16:54:32 2018,Mouse
2,1,4,0,7,4,4,1,819,49,770,148,0,500,200,8000,"[(512, 384), (512, 384), (512, 384), (512, 384), (512, 382), (512, 380), (512, 378), (512, 374), (512, 369), (512, 366), (512, 364), (512, 360), (512, 357), (512, 354), (512, 351), (512, 347), (512, 341), (512, 338), (512, 336), (512, 336), (512, 332), (511, 331), (511, 329), (510, 324), (508, 315), (508, 311), (508, 307), (508, 303), (506, 298), (504, 296), (504, 296), (504, 296), (504, 295), (504, 295), (504, 295), (504, 295), (504, 295), (504, 295), (504, 295), (504, 295), (507, 300), (509, 304), (510, 309), (512, 311), (513, 316), (514, 316), (516, 319), (516, 322), (517, 327), (517, 330), (517, 331), (518, 334), (518, 336), (518, 337), (518, 338), (518, 341), (515, 344), (514, 345), (510, 348), (507, 349), (499, 353), (493, 355), (484, 358), (477, 360), (461, 365), (452, 369), (448, 370), (443, 370), (438, 373), (437, 373), (435, 373), (433, 373), (428, 374), (424, 376), (415, 377), (407, 378), (390, 381), (373, 384), (358, 385), (336, 389), (286, 395), (248, 400)]",176.53177074108288,"[6, 3, 7, 1, 4, 8, 5, 2, 9]","(0, 0.25)",CHN009D,CHN,D,Chinese,Tue Oct 23 16:54:32 2018,Mouse
2,1,4,0,8,2,2,1,650,20,630,147,0,500,200,8000,"[(512, 381), (511, 376), (510, 372), (507, 367), (506, 364), (503, 357), (501, 354), (500, 352), (499, 351), (498, 348), (496, 347), (496, 346), (496, 346), (495, 345), (495, 345), (495, 344), (493, 343), (493, 342), (493, 342), (493, 342), (493, 342), (492, 342), (492, 342), (491, 342), (490, 341), (487, 338), (482, 334), (480, 332), (478, 330), (475, 326), (474, 325), (473, 323), (473, 323), (473, 321), (473, 321), (473, 320), (474, 320), (476, 320), (477, 320), (480, 320), (482, 320), (487, 320), (488, 320), (489, 320), (491, 320), (496, 320), (504, 320), (511, 319), (520, 316), (535, 310), (541, 305), (548, 300), (557, 292), (571, 278), (580, 271), (589, 262), (597, 254), (610, 239), (617, 231), (622, 224), (627, 216), (641, 197), (646, 190), (648, 183), (652, 176)]",303.9435870197518,"[6, 3, 7, 1, 4, 8, 5, 2, 9]","(0, 0.25)",CHN009D,CHN,D,Chinese,Tue Oct 23 16:54:32 2018,Mouse
2,1,4,0,9,9,9,1,550,180,370,146,0,500,200,8000,"[(512, 384), (512, 384), (512, 384), (512, 384), (512, 384), (512, 384), (512, 384), (512, 384), (512, 384), (512, 384), (512, 384), (512, 384), (512, 384), (512, 384), (512, 384), (512, 384), (512, 384), (511, 385), (510, 385), (510, 383), (509, 380), (508, 379), (508, 379), (508, 379), (508, 379), (508, 379), (508, 379), (508, 379), (508, 379), (508, 379), (508, 379), (508, 379), (508, 379), (508, 379), (508, 378), (507, 375), (505, 371), (505, 370), (505, 368), (505, 366), (505, 364), (505, 361), (505, 361), (505, 359), (508, 356), (509, 356), (512, 355), (518, 355), (543, 353), (563, 353), (594, 353), (626, 350), (695, 339), (729, 329), (760, 317)]",344.8818118852011,"[6, 3, 7, 1, 4, 8, 5, 2, 9]","(0, 0.25)",CHN009D,CHN,D,Chinese,Tue Oct 23 16:54:32 2018,Mouse
2,1,4,0,10,2,2,1,460,320,140,145,0,500,200,8000,"[(512, 384), (512, 384), (512, 384), (512, 384), (512, 384), (512, 384), (512, 384), (512, 384), (512, 384), (512, 384), (512, 384), (512, 384), (512, 384), (512, 384), (512, 384), (512, 384), (512, 384), (512, 384), (512, 384), (512, 384), (512, 384), (512, 384), (512, 384), (512, 384), (512, 384), (512, 384), (512, 384), (512, 384), (512, 384), (512, 384), (512, 384), (512, 379), (512, 375), (516, 363), (520, 354), (523, 347), (527, 341), (536, 325), (540, 316), (546, 306), (551, 294), (568, 264), (585, 239), (600, 219), (627, 194), (661, 153)]",302.8228918772692,"[6, 3, 7, 1, 4, 8, 5, 2, 9]","(0, 0.25)",CHN009D,CHN,D,Chinese,Tue Oct 23 16:54:32 2018,Mouse
2,1,4,0,11,1,1,1,641,181,460,144,0,500,200,8000,"[(512, 384), (512, 384), (512, 384), (512, 384), (512, 384), (512, 384), (512, 384), (512, 384), (512, 384), (512, 384), (512, 384), (512, 384), (512, 384), (512, 384), (512, 384), (512, 384), (512, 384), (512, 384), (510, 383), (506, 380), (503, 375), (502, 374), (501, 373), (499, 371), (498, 370), (498, 370), (497, 368), (497, 368), (495, 366), (495, 366), (495, 366), (495, 366), (495, 366), (495, 366), (495, 366), (495, 364), (495, 360), (496, 357), (496, 356), (496, 354), (497, 351), (497, 351), (497, 351), (497, 351), (497, 351), (497, 351), (497, 351), (497, 351), (497, 351), (497, 351), (497, 351), (496, 353), (488, 369), (481, 378), (476, 385), (469, 394), (451, 414), (444, 422), (432, 433), (420, 443), (398, 462), (386, 475), (370, 489), (349, 510), (297, 555)]",141.5030559448817,"[6, 3, 7, 1, 4, 8, 5, 2, 9]","(0, 0.25)",CHN009D,CHN,D,Chinese,Tue Oct 23 16:54:32 2018,Mouse
2,1,4,0,12,5,5,1,370,40,330,143,0,500,200,8000,"[(512, 384), (512, 384), (512, 384), (515, 377), (516, 374), (516, 372), (516, 370), (516, 367), (516, 364), (516, 362), (516, 361), (516, 359), (515, 357), (515, 357), (515, 356), (515, 356), (514, 354), (514, 354), (514, 353), (514, 351), (513, 350), (513, 350), (512, 349), (511, 346), (511, 344), (511, 343), (511, 341), (508, 336), (507, 332), (504, 324), (503, 317), (497, 292), (496, 275), (492, 248), (488, 222), (478, 160), (472, 128)]",261.1193408494797,"[6, 3, 7, 1, 4, 8, 5, 2, 9]","(0, 0.25)",CHN009D,CHN,D,Chinese,Tue Oct 23 16:54:32 2018,Mouse
2,1,4,0,13,4,4,1,919,869,50,142,0,500,200,8000,"[(512, 384), (512, 384), (512, 384), (512, 384), (512, 384), (512, 384), (512, 384), (512, 384), (512, 384), (512, 384), (512, 384), (512, 384), (512, 384), (512, 384), (512, 384), (512, 384), (512, 384), (512, 384), (512, 384), (512, 384), (512, 384), (512, 384), (512, 384), (512, 384), (512, 384), (512, 384), (512, 384), (512, 384), (512, 384), (512, 384), (512, 384), (512, 384), (512, 384), (512, 384), (512, 384), (512, 384), (512, 384), (512, 384), (512, 384), (512, 384), (512, 384), (512, 384), (512, 384), (512, 384), (512, 384), (512, 384), (512, 384), (512, 384), (512, 384), (512, 384), (512, 384), (512, 384), (512, 384), (512, 384), (512, 384), (512, 384), (512, 384), (512, 384), (512, 384), (512, 384), (512, 384), (512, 384), (512, 384), (512, 384), (512, 384), (512, 384), (512, 384), (512, 384), (512, 384), (512, 384), (512, 384), (512, 384), (512, 384), (512, 384), (512, 384), (512, 384), (512, 384), (512, 384), (512, 384), (512, 384), (512, 384), (512, 384), (512, 384), (512, 384), (512, 384), (512, 384), (511, 385), (485, 391), (448, 392), (398, 394), (282, 394), (221, 394)]",178.03184735723798,"[6, 3, 7, 1, 4, 8, 5, 2, 9]","(0, 0.25)",CHN009D,CHN,D,Chinese,Tue Oct 23 16:54:32 2018,Mouse
2,1,4,0,14,9,9,1,460,320,140,141,0,500,200,8000,"[(512, 384), (512, 384), (512, 384), (512, 384), (512, 384), (512, 384), (512, 384), (512, 384), (512, 384), (512, 384), (512, 384), (512, 384), (512, 384), (512, 384), (512, 384), (512, 384), (512, 384), (512, 384), (512, 384), (512, 384), (512, 384), (512, 384), (512, 384), (512, 384), (512, 384), (512, 384), (512, 384), (512, 384), (512, 384), (512, 384), (512, 384), (514, 382), (521, 378), (526, 375), (538, 369), (541, 368), (548, 365), (555, 364), (568, 360), (578, 357), (588, 353), (605, 347), (655, 322), (690, 306), (727, 289), (757, 275)]",336.01581629737376,"[6, 3, 7, 1, 4, 8, 5, 2, 9]","(0, 0.25)",CHN009D,CHN,D,Chinese,Tue Oct 23 16:54:32 2018,Mouse
2,1,4,0,15,9,9,1,370,310,60,140,0,500,200,8000,"[(512, 384), (512, 384), (512, 384), (512, 384), (512, 384), (512, 384), (512, 384), (512, 384), (512, 384), (512, 384), (512, 384), (512, 384), (512, 384), (512, 384), (512, 384), (512, 384), (512, 384), (512, 384), (512, 384), (512, 384), (512, 384), (512, 384), (512, 384), (512, 384), (512, 384), (512, 384), (512, 384), (512, 384), (512, 384), (512, 384), (518, 385), (535, 385), (588, 370), (631, 362), (678, 351), (734, 334), (840, 314)]",347.9529695087948,"[6, 3, 7, 1, 4, 8, 5, 2, 9]","(0, 0.25)",CHN009D,CHN,D,Chinese,Tue Oct 23 16:54:32 2018,Mouse
2,1,4,0,16,3,5,0,-480,270,210,139,0,500,200,8000,"[(512, 384), (512, 384), (512, 384), (512, 384), (512, 384), (512, 384), (512, 384), (512, 384), (512, 384), (512, 384), (512, 384), (512, 384), (512, 384), (512, 384), (512, 384), (512, 384), (512, 384), (512, 384), (512, 384), (512, 384), (512, 384), (512, 384), (512, 384), (512, 384), (512, 384), (512, 384), (506, 381), (496, 369), (493, 365), (491, 363), (490, 360), (487, 355), (486, 354), (485, 351), (485, 350), (485, 345), (485, 341), (485, 336), (485, 330), (485, 308), (485, 296), (485, 281), (485, 262), (485, 231), (485, 214), (482, 190), (480, 172), (475, 133)]",261.61439976520285,"[6, 3, 7, 1, 4, 8, 5, 2, 9]","(0, 0.25)",CHN009D,CHN,D,Chinese,Tue Oct 23 16:54:32 2018,Mouse
2,1,4,0,17,1,1,1,791,20,771,140,0,500,200,8000,"[(511, 385), (510, 385), (510, 385), (505, 385), (503, 385), (500, 385), (496, 385), (490, 384), (487, 383), (483, 380), (479, 379), (472, 375), (469, 373), (467, 370), (467, 370), (467, 370), (467, 370), (467, 369), (467, 369), (467, 368), (467, 367), (467, 367), (467, 365), (470, 363), (474, 361), (479, 358), (486, 355), (496, 350), (499, 347), (501, 347), (503, 346), (503, 346), (503, 345), (503, 345), (503, 345), (503, 345), (503, 345), (503, 345), (503, 345), (503, 346), (502, 349), (499, 353), (495, 358), (489, 369), (487, 372), (483, 377), (480, 383), (475, 392), (474, 394), (470, 399), (468, 403), (462, 414), (459, 418), (456, 424), (455, 429), (449, 442), (448, 449), (445, 455), (444, 461), (442, 470), (440, 476), (437, 480), (434, 487), (429, 496), (427, 500), (423, 505), (421, 507), (416, 514), (415, 516), (411, 519), (410, 520), (402, 525), (399, 526), (396, 528), (390, 532), (373, 540), (360, 545), (341, 555), (314, 568)]",137.09890593320353,"[6, 3, 7, 1, 4, 8, 5, 2, 9]","(0, 0.25)",CHN009D,CHN,D,Chinese,Tue Oct 23 16:54:32 2018,Mouse
2,1,4,0,18,8,8,1,420,20,400,140,0,500,200,8000,"[(511, 383), (509, 380), (508, 380), (508, 379), (506, 376), (505, 374), (502, 370), (502, 369), (496, 361), (492, 357), (490, 352), (488, 349), (483, 340), (477, 334), (476, 333), (474, 330), (472, 326), (471, 326), (471, 325), (471, 324), (469, 321), (466, 318), (465, 316), (464, 315), (463, 314), (463, 314), (462, 314), (462, 314), (462, 314), (462, 314), (462, 314), (460, 313), (457, 311), (455, 310), (454, 309), (448, 305), (431, 293), (415, 281), (398, 270), (375, 254), (332, 216), (316, 202)]",222.87890360333856,"[6, 3, 7, 1, 4, 8, 5, 2, 9]","(0, 0.25)",CHN009D,CHN,D,Chinese,Tue Oct 23 16:54:32 2018,Mouse
2,1,4,0,19,3,3,1,470,60,410,139,0,500,200,8000,"[(512, 384), (512, 384), (512, 384), (512, 384), (512, 384), (512, 387), (512, 395), (512, 398), (512, 403), (512, 406), (511, 416), (511, 420), (510, 425), (510, 427), (510, 431), (510, 431), (510, 432), (510, 432), (510, 434), (510, 434), (510, 435), (510, 435), (510, 437), (510, 437), (510, 438), (510, 440), (510, 441), (510, 441), (510, 443), (510, 445), (510, 450), (510, 451), (510, 455), (511, 456), (517, 464), (520, 468), (525, 473), (532, 478), (550, 491), (558, 498), (569, 506), (576, 512), (597, 531), (609, 544), (618, 553), (629, 567), (655, 597)]",56.124108975782235,"[6, 3, 7, 1, 4, 8, 5, 2, 9]","(0, 0.25)",CHN009D,CHN,D,Chinese,Tue Oct 23 16:54:32 2018,Mouse
2,1,4,0,20,2,3,0,-449,309,140,138,0,500,200,8000,"[(512, 384), (512, 384), (512, 384), (512, 384), (512, 384), (512, 384), (512, 384), (512, 384), (512, 384), (512, 384), (512, 384), (512, 384), (512, 384), (512, 384), (512, 384), (512, 384), (512, 384), (512, 384), (512, 384), (512, 384), (512, 384), (512, 384), (512, 384), (512, 384), (512, 384), (512, 384), (512, 384), (512, 384), (512, 384), (512, 384), (513, 388), (525, 407), (531, 415), (536, 421), (540, 431), (548, 448), (551, 456), (555, 463), (558, 469), (567, 489), (573, 504), (582, 524), (591, 548), (614, 595), (623, 621)]",64.90374953730785,"[6, 3, 7, 1, 4, 8, 5, 2, 9]","(0, 0.25)",CHN009D,CHN,D,Chinese,Tue Oct 23 16:54:32 2018,Mouse
2,1,4,0,21,6,6,1,1590,120,1470,139,0,500,200,8000,"[(512, 384), (512, 384), (512, 384), (512, 384), (512, 384), (512, 384), (512, 384), (512, 384), (512, 384), (512, 384), (512, 384), (512, 381), (512, 375), (508, 365), (504, 352), (503, 347), (503, 345), (503, 341), (501, 335), (500, 334), (500, 332), (500, 332), (500, 332), (500, 332), (500, 332), (500, 332), (500, 332), (500, 332), (500, 332), (500, 332), (500, 332), (500, 332), (500, 332), (500, 332), (500, 332), (500, 332), (500, 332), (500, 332), (500, 332), (500, 332), (500, 332), (500, 332), (494, 330), (486, 328), (482, 326), (477, 324), (473, 322), (473, 322), (473, 322), (473, 322), (473, 322), (473, 322), (473, 322), (473, 322), (473, 322), (473, 322), (473, 322), (473, 322), (474, 326), (478, 333), (479, 335), (480, 340), (484, 347), (484, 350), (484, 356), (484, 360), (476, 372), (473, 377), (466, 384), (458, 389), (444, 395), (436, 398), (432, 400), (429, 402), (427, 403), (427, 403), (427, 403), (427, 403), (427, 404), (427, 404), (427, 405), (427, 410), (434, 424), (440, 435), (444, 448), (447, 460), (452, 490), (452, 503), (454, 517), (456, 534), (456, 550), (456, 554), (455, 558), (455, 559), (455, 559), (455, 559), (455, 559), (455, 559), (455, 559), (455, 559), (455, 559), (455, 559), (455, 559), (455, 559), (455, 559), (455, 559), (455, 559), (455, 559), (455, 556), (456, 551), (459, 541), (461, 533), (463, 527), (463, 522), (468, 509), (470, 506), (472, 502), (475, 499), (478, 495), (480, 493), (484, 491), (487, 491), (495, 490), (497, 489), (501, 489), (505, 489), (520, 489), (531, 489), (542, 489), (553, 489), (577, 489), (590, 486), (596, 486), (606, 484), (620, 484), (624, 484), (628, 484), (633, 484), (638, 484), (640, 484), (641, 484), (641, 484), (641, 484), (641, 484), (641, 484), (641, 484), (642, 483), (642, 482), (642, 482), (642, 482), (642, 481), (642, 481), (642, 481), (642, 481), (644, 481), (649, 481), (661, 481), (678, 481), (748, 477)]",21.507802644518858,"[6, 3, 7, 1, 4, 8, 5, 2, 9]","(0, 0.25)",CHN009D,CHN,D,Chinese,Tue Oct 23 16:54:32 2018,Mouse
2,1,4,0,22,1,6,0,-1789,119,1670,139,0,500,200,8000,"[(512, 384), (512, 384), (512, 384), (512, 384), (512, 384), (512, 384), (512, 384), (512, 384), (512, 384), (512, 384), (512, 384), (515, 377), (515, 374), (517, 369), (518, 366), (522, 355), (524, 349), (525, 345), (525, 338), (526, 332), (526, 329), (527, 328), (527, 327), (527, 327), (527, 327), (527, 327), (527, 326), (527, 326), (527, 326), (527, 326), (527, 326), (527, 326), (527, 326), (527, 326), (527, 326), (527, 326), (527, 326), (527, 326), (527, 326), (527, 326), (527, 326), (527, 326), (527, 326), (527, 326), (527, 326), (527, 326), (527, 326), (527, 326), (527, 326), (527, 326), (527, 326), (527, 326), (527, 326), (527, 326), (527, 326), (527, 326), (527, 326), (527, 326), (527, 326), (528, 326), (530, 326), (532, 326), (535, 326), (535, 326), (537, 326), (537, 326), (537, 326), (537, 327), (537, 328), (537, 330), (537, 332), (535, 335), (534, 339), (532, 341), (531, 342), (527, 348), (524, 353), (523, 355), (521, 358), (517, 365), (514, 371), (512, 377), (510, 382), (505, 395), (503, 402), (500, 409), (499, 414), (495, 427), (493, 434), (491, 440), (489, 445), (486, 450), (486, 452), (485, 454), (485, 454), (485, 458), (485, 460), (485, 460), (485, 462), (485, 466), (485, 467), (483, 471), (482, 474), (481, 480), (479, 486), (477, 493), (476, 501), (472, 525), (470, 537), (469, 550), (467, 561), (467, 574), (467, 576), (467, 577), (466, 578), (466, 578), (466, 578), (466, 578), (466, 578), (466, 578), (466, 578), (466, 578), (466, 578), (466, 578), (466, 578), (466, 578), (466, 578), (468, 574), (471, 568), (472, 559), (472, 554), (475, 543), (475, 541), (475, 536), (475, 533), (475, 527), (475, 525), (475, 522), (475, 520), (475, 517), (474, 515), (474, 512), (474, 510), (472, 504), (472, 500), (472, 495), (472, 491), (472, 481), (472, 480), (472, 476), (476, 471), (483, 465), (492, 461), (502, 458), (514, 456), (542, 452), (555, 450), (571, 448), (583, 446), (602, 443), (607, 441), (608, 441), (608, 441), (609, 441), (609, 441), (609, 441), (609, 441), (609, 441), (609, 441), (609, 441), (609, 441), (609, 441), (609, 441), (609, 441), (609, 441), (637, 449), (670, 457), (722, 469), (786, 486)]",20.41842551743132,"[6, 3, 7, 1, 4, 8, 5, 2, 9]","(0, 0.25)",CHN009D,CHN,D,Chinese,Tue Oct 23 16:54:32 2018,Mouse
2,1,4,0,23,1,1,1,651,11,640,140,0,500,200,8000,"[(512, 384), (508, 376), (506, 373), (504, 371), (503, 370), (499, 366), (496, 363), (494, 360), (492, 357), (485, 349), (482, 347), (481, 347), (479, 346), (477, 344), (477, 344), (473, 343), (473, 343), (473, 343), (473, 343), (473, 343), (473, 343), (473, 343), (473, 343), (473, 343), (473, 343), (473, 343), (473, 343), (473, 343), (472, 342), (472, 342), (472, 342), (472, 342), (472, 342), (473, 337), (473, 334), (475, 331), (477, 327), (478, 319), (479, 317), (481, 315), (481, 313), (481, 313), (481, 313), (481, 313), (481, 313), (481, 313), (481, 317), (481, 327), (479, 338), (472, 364), (466, 377), (457, 392), (453, 405), (439, 428), (432, 441), (425, 450), (421, 462), (410, 479), (403, 488), (395, 498), (388, 507), (371, 524), (361, 534), (350, 541), (338, 551), (319, 564)]",136.9960958860095,"[6, 3, 7, 1, 4, 8, 5, 2, 9]","(0, 0.25)",CHN009D,CHN,D,Chinese,Tue Oct 23 16:54:32 2018,Mouse
2,1,4,0,24,6,6,1,1150,90,1060,140,0,500,200,8000,"[(512, 384), (512, 384), (512, 384), (512, 384), (512, 384), (512, 384), (512, 384), (512, 384), (516, 379), (516, 376), (516, 375), (516, 372), (516, 370), (517, 367), (517, 367), (517, 363), (517, 360), (517, 358), (517, 354), (517, 345), (517, 341), (517, 336), (517, 330), (517, 322), (517, 317), (517, 314), (517, 313), (517, 309), (517, 309), (517, 309), (517, 308), (516, 307), (516, 307), (516, 307), (516, 307), (513, 307), (513, 307), (507, 304), (504, 304), (492, 301), (486, 298), (480, 297), (477, 296), (475, 295), (475, 295), (475, 295), (475, 295), (475, 295), (475, 295), (475, 295), (475, 295), (475, 298), (476, 302), (480, 309), (483, 316), (489, 327), (492, 334), (495, 339), (499, 346), (505, 357), (506, 362), (509, 366), (509, 368), (512, 372), (512, 374), (512, 375), (512, 376), (512, 377), (512, 377), (513, 379), (513, 381), (514, 384), (514, 388), (516, 393), (516, 395), (516, 400), (516, 403), (517, 407), (518, 410), (521, 418), (522, 422), (522, 425), (526, 429), (535, 437), (540, 441), (544, 445), (551, 449), (562, 452), (565, 452), (567, 453), (567, 453), (567, 453), (567, 453), (567, 453), (567, 453), (567, 453), (567, 453), (567, 453), (567, 453), (573, 454), (578, 456), (587, 459), (594, 460), (612, 466), (622, 469), (633, 471), (646, 472), (664, 477), (672, 478), (685, 480), (693, 481), (719, 484), (729, 485), (739, 486), (750, 488)]",23.604115042914238,"[6, 3, 7, 1, 4, 8, 5, 2, 9]","(0, 0.25)",CHN009D,CHN,D,Chinese,Tue Oct 23 16:54:32 2018,Mouse
2,1,4,0,25,8,2,0,-589,329,260,139,0,500,200,8000,"[(512, 384), (512, 384), (512, 384), (512, 384), (512, 384), (512, 384), (512, 384), (512, 384), (512, 384), (512, 384), (512, 384), (512, 384), (512, 384), (512, 384), (512, 384), (512, 384), (512, 384), (512, 384), (512, 384), (512, 384), (512, 384), (512, 384), (512, 384), (512, 384), (512, 384), (512, 384), (512, 384), (512, 384), (512, 384), (512, 384), (512, 384), (512, 384), (512, 382), (512, 379), (512, 378), (512, 376), (512, 373), (512, 372), (512, 371), (512, 370), (512, 368), (512, 368), (512, 367), (512, 367), (512, 366), (513, 365), (513, 364), (515, 362), (518, 358), (522, 354), (525, 350), (531, 342), (546, 321), (558, 303), (573, 278), (594, 250), (637, 203), (655, 184), (673, 170)]",306.9554775366644,"[6, 3, 7, 1, 4, 8, 5, 2, 9]","(0, 0.25)",CHN009D,CHN,D,Chinese,Tue Oct 23 16:54:32 2018,Mouse
2,1,4,0,26,1,1,1,359,19,340,140,0,500,200,8000,"[(504, 390), (483, 401), (473, 407), (465, 411), (458, 417), (449, 424), (448, 425), (447, 425), (446, 426), (445, 427), (445, 427), (445, 427), (445, 427), (445, 427), (445, 427), (445, 427), (445, 427), (445, 427), (445, 427), (445, 427), (445, 427), (444, 428), (444, 429), (442, 431), (441, 434), (437, 438), (434, 443), (430, 449), (423, 456), (410, 471), (400, 481), (388, 491), (373, 505), (347, 526), (332, 538), (320, 546)]",139.8440003750807,"[6, 3, 7, 1, 4, 8, 5, 2, 9]","(0, 0.25)",CHN009D,CHN,D,Chinese,Tue Oct 23 16:54:32 2018,Mouse
2,1,4,0,27,7,7,1,890,20,870,140,0,500,200,8000,"[(512, 381), (512, 374), (512, 370), (512, 369), (512, 366), (512, 359), (512, 356), (511, 351), (511, 348), (509, 341), (508, 339), (508, 338), (507, 336), (505, 332), (505, 331), (504, 330), (504, 330), (504, 330), (504, 330), (504, 330), (504, 330), (504, 330), (504, 330), (504, 329), (504, 329), (504, 329), (504, 329), (504, 329), (504, 329), (504, 328), (504, 328), (502, 326), (500, 323), (495, 319), (493, 317), (492, 317), (491, 315), (491, 314), (491, 314), (490, 313), (490, 313), (490, 313), (490, 313), (490, 313), (490, 313), (490, 313), (490, 313), (490, 313), (490, 313), (490, 315), (490, 318), (491, 321), (494, 326), (496, 340), (496, 347), (496, 355), (496, 365), (496, 381), (496, 387), (496, 394), (496, 399), (496, 410), (496, 413), (496, 415), (496, 417), (497, 419), (497, 420), (497, 421), (497, 421), (497, 423), (497, 424), (496, 427), (494, 429), (492, 437), (488, 444), (483, 453), (479, 463), (471, 483), (467, 491), (462, 506), (459, 518), (454, 543), (453, 554), (451, 565), (450, 576), (447, 597), (445, 609), (445, 619), (445, 629)]",105.29468760527064,"[6, 3, 7, 1, 4, 8, 5, 2, 9]","(0, 0.25)",CHN009D,CHN,D,Chinese,Tue Oct 23 16:54:32 2018,Mouse
2,1,4,0,28,2,2,1,330,70,260,139,0,500,200,8000,"[(512, 384), (512, 384), (512, 384), (512, 384), (512, 384), (512, 384), (514, 377), (515, 376), (518, 373), (518, 371), (518, 371), (518, 370), (519, 369), (519, 367), (520, 366), (520, 364), (523, 360), (524, 355), (524, 354), (527, 350), (529, 343), (531, 341), (532, 338), (533, 334), (537, 324), (543, 318), (547, 309), (552, 301), (571, 274), (583, 254), (597, 228), (612, 198), (640, 139)]",297.58477128865235,"[6, 3, 7, 1, 4, 8, 5, 2, 9]","(0, 0.25)",CHN009D,CHN,D,Chinese,Tue Oct 23 16:54:32 2018,Mouse
2,1,4,0,29,4,6,0,-961,401,560,138,0,500,200,8000,"[(512, 384), (512, 384), (512, 384), (512, 384), (512, 384), (512, 384), (512, 384), (512, 384), (512, 384), (512, 384), (512, 384), (512, 384), (512, 384), (512, 384), (512, 384), (512, 384), (512, 384), (512, 384), (512, 384), (512, 384), (512, 384), (512, 384), (512, 384), (512, 384), (512, 384), (512, 384), (512, 384), (512, 384), (512, 384), (512, 384), (512, 384), (512, 384), (512, 384), (512, 384), (512, 384), (512, 384), (512, 384), (512, 384), (512, 384), (512, 384), (511, 384), (511, 383), (511, 383), (511, 383), (511, 383), (511, 383), (511, 383), (511, 383), (511, 383), (511, 383), (511, 383), (511, 383), (511, 383), (511, 383), (511, 383), (511, 383), (511, 383), (511, 383), (511, 383), (511, 383), (511, 383), (511, 383), (511, 383), (511, 383), (511, 383), (511, 383), (511, 383), (511, 383), (511, 383), (511, 383), (511, 383), (511, 383), (516, 387), (521, 392), (523, 395), (525, 397), (535, 402), (541, 405), (543, 407), (547, 409), (552, 410), (552, 410), (554, 410), (556, 410), (557, 410), (558, 410), (558, 410), (559, 410), (561, 410), (565, 410), (574, 410), (586, 414), (609, 417), (634, 423), (664, 428), (700, 439), (762, 449)]",14.574216198038739,"[6, 3, 7, 1, 4, 8, 5, 2, 9]","(0, 0.25)",CHN009D,CHN,D,Chinese,Tue Oct 23 16:54:32 2018,Mouse
2,1,4,0,30,6,6,1,240,20,220,139,0,500,200,8000,"[(514, 384), (514, 385), (515, 385), (517, 385), (519, 386), (520, 387), (521, 387), (529, 390), (534, 392), (537, 393), (543, 396), (556, 400), (565, 402), (573, 403), (578, 406), (599, 413), (609, 414), (623, 420), (640, 425), (673, 433), (687, 438), (707, 443), (720, 448), (752, 456)]",16.69924423399362,"[6, 3, 7, 1, 4, 8, 5, 2, 9]","(0, 0.25)",CHN009D,CHN,D,Chinese,Tue Oct 23 16:54:32 2018,Mouse
2,1,4,0,31,4,4,1,669,569,100,139,0,500,200,8000,"[(512, 384), (512, 384), (512, 384), (512, 384), (512, 384), (512, 384), (512, 384), (512, 384), (512, 384), (512, 384), (512, 384), (512, 384), (512, 384), (512, 384), (512, 384), (512, 384), (512, 384), (512, 384), (512, 384), (512, 384), (512, 384), (512, 384), (512, 384), (512, 384), (512, 384), (512, 384), (512, 384), (512, 384), (512, 384), (512, 384), (512, 384), (512, 384), (512, 384), (512, 384), (512, 384), (512, 384), (512, 384), (512, 384), (512, 384), (512, 384), (512, 384), (512, 384), (512, 384), (512, 384), (512, 384), (512, 384), (512, 384), (512, 384), (512, 384), (512, 384), (512, 384), (512, 384), (512, 384), (512, 384), (512, 384), (512, 384), (510, 384), (507, 384), (505, 384), (487, 389), (470, 390), (453, 394), (430, 395), (361, 402), (322, 402), (278, 402), (234, 402)]",176.2953725579229,"[6, 3, 7, 1, 4, 8, 5, 2, 9]","(0, 0.25)",CHN009D,CHN,D,Chinese,Tue Oct 23 16:54:32 2018,Mouse
2,1,4,0,32,3,3,1,820,610,210,138,0,500,200,8000,"[(512, 384), (512, 384), (512, 384), (512, 384), (512, 384), (512, 384), (512, 384), (512, 384), (512, 384), (512, 384), (512, 384), (512, 384), (512, 384), (512, 384), (512, 384), (512, 384), (512, 384), (512, 384), (512, 384), (512, 384), (512, 384), (512, 384), (512, 384), (512, 384), (512, 384), (512, 384), (512, 384), (512, 384), (512, 384), (512, 384), (512, 384), (512, 384), (512, 384), (512, 384), (512, 384), (512, 384), (512, 384), (512, 384), (512, 384), (512, 384), (512, 384), (512, 384), (512, 384), (512, 384), (512, 384), (512, 384), (512, 384), (512, 384), (512, 384), (512, 384), (512, 384), (512, 384), (512, 384), (512, 384), (512, 384), (512, 384), (512, 384), (512, 384), (512, 384), (512, 384), (512, 388), (512, 389), (512, 392), (513, 393), (514, 396), (516, 399), (516, 399), (518, 402), (522, 408), (526, 414), (532, 421), (539, 430), (557, 451), (565, 461), (571, 468), (577, 478), (588, 500), (593, 512), (599, 525), (607, 544), (624, 583), (635, 604)]",60.79084118654826,"[6, 3, 7, 1, 4, 8, 5, 2, 9]","(0, 0.25)",CHN009D,CHN,D,Chinese,Tue Oct 23 16:54:32 2018,Mouse
2,1,4,0,33,9,9,1,398,208,190,137,0,500,200,8000,"[(512, 384), (512, 384), (512, 384), (512, 384), (512, 384), (512, 384), (512, 384), (512, 384), (512, 384), (512, 384), (512, 384), (512, 384), (512, 384), (512, 384), (512, 384), (512, 384), (512, 384), (512, 384), (512, 384), (512, 384), (512, 382), (512, 376), (514, 365), (516, 362), (519, 357), (521, 354), (531, 345), (534, 343), (537, 340), (542, 339), (552, 335), (561, 333), (570, 332), (580, 329), (611, 325), (630, 322), (654, 317), (683, 314), (742, 306), (764, 300)]",341.565051177078,"[6, 3, 7, 1, 4, 8, 5, 2, 9]","(0, 0.25)",CHN009D,CHN,D,Chinese,Tue Oct 23 16:54:32 2018,Mouse
2,1,4,0,34,9,6,0,-660,160,500,136,0,500,200,8000,"[(512, 384), (512, 384), (512, 384), (512, 384), (512, 384), (512, 384), (512, 384), (512, 384), (512, 384), (512, 384), (512, 384), (512, 384), (512, 384), (512, 384), (512, 384), (512, 383), (512, 378), (513, 376), (515, 374), (517, 371), (517, 370), (519, 368), (522, 360), (524, 355), (526, 349), (527, 344), (530, 333), (530, 332), (532, 329), (532, 327), (533, 325), (533, 325), (533, 325), (533, 325), (533, 325), (533, 325), (533, 325), (536, 327), (543, 335), (548, 342), (553, 350), (558, 359), (573, 374), (579, 381), (584, 384), (588, 388), (591, 390), (591, 390), (591, 390), (593, 391), (594, 392), (596, 393), (597, 393), (598, 394), (605, 397), (610, 399), (616, 401), (624, 404), (644, 413), (655, 420), (665, 425), (677, 432), (698, 448), (712, 458), (727, 470), (745, 485)]",23.435593420480444,"[6, 3, 7, 1, 4, 8, 5, 2, 9]","(0, 0.25)",CHN009D,CHN,D,Chinese,Tue Oct 23 16:54:32 2018,Mouse
2,1,4,0,35,7,6,0,-531,51,480,137,0,500,200,8000,"[(512, 384), (512, 384), (512, 384), (512, 384), (512, 384), (514, 384), (523, 386), (533, 388), (542, 389), (561, 395), (571, 397), (575, 397), (581, 398), (595, 402), (600, 403), (606, 404), (609, 405), (613, 407), (613, 407), (613, 407), (613, 407), (613, 407), (613, 407), (613, 407), (613, 407), (613, 407), (613, 407), (613, 407), (613, 407), (613, 407), (613, 407), (613, 407), (613, 407), (613, 407), (613, 407), (613, 407), (613, 407), (613, 407), (613, 407), (613, 407), (613, 407), (613, 407), (613, 407), (613, 407), (613, 407), (613, 407), (613, 407), (615, 408), (622, 411), (655, 424), (681, 435), (710, 447), (729, 457), (781, 476)]",18.881069347344027,"[6, 3, 7, 1, 4, 8, 5, 2, 9]","(0, 0.25)",CHN009D,CHN,D,Chinese,Tue Oct 23 16:54:32 2018,Mouse
2,1,4,0,36,2,2,1,370,40,330,138,0,500,200,8000,"[(512, 384), (512, 384), (512, 384), (513, 386), (513, 386), (513, 385), (514, 382), (514, 374), (514, 368), (514, 364), (517, 357), (521, 344), (523, 339), (525, 333), (529, 327), (533, 319), (534, 316), (537, 313), (539, 310), (543, 304), (544, 303), (546, 300), (548, 297), (549, 293), (550, 289), (551, 286), (553, 280), (564, 262), (571, 252), (579, 243), (587, 233), (603, 211), (609, 201), (615, 192), (620, 185), (627, 169), (632, 162)]",298.393019421383,"[6, 3, 7, 1, 4, 8, 5, 2, 9]","(0, 0.25)",CHN009D,CHN,D,Chinese,Tue Oct 23 16:54:32 2018,Mouse
2,1,4,0,37,3,3,1,619,20,599,138,0,500,200,8000,"[(512, 384), (512, 386), (512, 388), (512, 389), (512, 391), (512, 393), (513, 396), (514, 398), (516, 400), (518, 403), (522, 409), (525, 412), (525, 413), (527, 416), (530, 422), (531, 423), (533, 426), (535, 428), (536, 432), (538, 433), (538, 434), (538, 436), (539, 437), (540, 438), (540, 439), (540, 439), (540, 439), (540, 440), (540, 440), (540, 440), (540, 440), (540, 440), (540, 442), (540, 446), (539, 451), (537, 457), (536, 459), (535, 463), (534, 471), (534, 472), (534, 475), (534, 477), (534, 483), (534, 484), (536, 488), (536, 488), (539, 491), (541, 493), (543, 495), (544, 497), (548, 501), (553, 507), (556, 512), (563, 519), (578, 537), (586, 546), (596, 557), (602, 565), (617, 582), (624, 589), (628, 597), (635, 603)]",60.67952412241925,"[6, 3, 7, 1, 4, 8, 5, 2, 9]","(0, 0.25)",CHN009D,CHN,D,Chinese,Tue Oct 23 16:54:32 2018,Mouse
2,1,4,0,38,5,5,1,440,270,170,137,0,500,200,8000,"[(512, 384), (512, 384), (512, 384), (512, 384), (512, 384), (512, 384), (512, 384), (512, 384), (512, 384), (512, 384), (512, 384), (512, 384), (512, 384), (512, 384), (512, 384), (512, 384), (512, 384), (512, 384), (512, 384), (512, 384), (512, 384), (512, 384), (512, 384), (512, 384), (512, 384), (512, 384), (511, 383), (508, 376), (503, 357), (502, 348), (501, 339), (498, 327), (496, 306), (492, 295), (490, 281), (486, 268), (479, 239), (477, 227), (475, 210), (473, 196), (472, 170), (472, 158), (472, 147), (471, 135)]",260.6496563715762,"[6, 3, 7, 1, 4, 8, 5, 2, 9]","(0, 0.25)",CHN009D,CHN,D,Chinese,Tue Oct 23 16:54:32 2018,Mouse
2,1,4,0,39,6,6,1,410,130,280,136,0,500,200,8000,"[(512, 384), (512, 384), (512, 384), (512, 384), (512, 384), (512, 384), (512, 384), (512, 384), (512, 384), (512, 384), (512, 384), (512, 384), (518, 391), (523, 393), (524, 394), (527, 395), (530, 398), (532, 399), (534, 401), (535, 401), (539, 403), (540, 403), (540, 403), (542, 404), (546, 405), (550, 406), (556, 407), (560, 408), (575, 412), (583, 414), (591, 418), (602, 420), (626, 428), (639, 431), (654, 436), (666, 439), (690, 447), (702, 452), (715, 454), (727, 458), (760, 466)]",18.296218393034405,"[6, 3, 7, 1, 4, 8, 5, 2, 9]","(0, 0.25)",CHN009D,CHN,D,Chinese,Tue Oct 23 16:54:32 2018,Mouse
2,1,4,0,40,4,4,1,1700,610,1090,135,0,500,200,8000,"[(512, 384), (512, 384), (512, 384), (512, 384), (512, 384), (512, 384), (512, 384), (512, 384), (512, 384), (512, 384), (512, 384), (512, 384), (512, 384), (512, 384), (512, 384), (512, 384), (512, 384), (512, 384), (512, 384), (512, 384), (512, 384), (512, 384), (512, 384), (512, 384), (512, 384), (512, 384), (512, 384), (512, 384), (512, 384), (512, 384), (512, 384), (512, 384), (512, 384), (512, 384), (512, 384), (512, 384), (512, 384), (512, 384), (512, 384), (512, 384), (512, 384), (512, 384), (512, 384), (512, 384), (512, 384), (512, 384), (512, 384), (512, 384), (512, 384), (512, 384), (512, 384), (512, 384), (512, 384), (512, 384), (512, 384), (512, 384), (512, 384), (512, 384), (512, 384), (512, 384), (512, 387), (528, 391), (548, 396), (575, 402), (588, 405), (599, 406), (610, 408), (631, 412), (636, 413), (639, 413), (642, 414), (644, 414), (644, 414), (644, 414), (644, 414), (644, 414), (644, 414), (644, 414), (644, 414), (644, 414), (644, 414), (644, 414), (644, 414), (644, 414), (644, 414), (644, 414), (644, 414), (644, 414), (644, 414), (644, 414), (644, 414), (644, 414), (644, 414), (644, 414), (644, 414), (644, 415), (644, 415), (642, 415), (642, 415), (642, 415), (642, 415), (642, 415), (642, 415), (642, 415), (642, 415), (642, 415), (641, 415), (641, 415), (641, 415), (641, 415), (641, 415), (641, 415), (641, 415), (641, 415), (641, 415), (641, 415), (641, 415), (641, 415), (641, 415), (637, 415), (636, 415), (634, 415), (633, 415), (630, 415), (627, 415), (625, 415), (624, 415), (622, 415), (621, 415), (620, 415), (618, 415), (616, 416), (615, 416), (615, 416), (613, 417), (613, 417), (613, 417), (613, 417), (613, 417), (613, 417), (613, 417), (612, 417), (611, 417), (610, 417), (607, 417), (605, 416), (601, 414), (596, 411), (593, 410), (590, 408), (587, 407), (570, 402), (565, 402), (557, 401), (549, 401), (530, 399), (517, 399), (505, 399), (490, 399), (463, 399), (450, 399), (435, 399), (420, 399), (389, 399), (374, 399), (357, 399), (340, 399), (301, 399), (281, 399), (251, 399)]",176.71075732150817,"[6, 3, 7, 1, 4, 8, 5, 2, 9]","(0, 0.25)",CHN009D,CHN,D,Chinese,Tue Oct 23 16:54:32 2018,Mouse
2,1,4,0,41,6,6,1,381,191,190,134,0,500,200,8000,"[(512, 384), (512, 384), (512, 384), (512, 384), (512, 384), (512, 384), (512, 384), (512, 384), (512, 384), (512, 384), (512, 384), (512, 384), (512, 384), (512, 384), (512, 384), (512, 384), (512, 384), (512, 384), (512, 384), (515, 384), (519, 385), (522, 389), (529, 393), (534, 394), (541, 395), (547, 398), (557, 400), (566, 404), (573, 406), (583, 408), (598, 410), (609, 411), (619, 413), (632, 416), (663, 426), (679, 429), (704, 437), (721, 442), (761, 455)]",15.915000264775333,"[6, 3, 7, 1, 4, 8, 5, 2, 9]","(0, 0.25)",CHN009D,CHN,D,Chinese,Tue Oct 23 16:54:32 2018,Mouse
2,1,4,0,42,2,6,0,-1360,20,1340,133,0,500,200,8000,"[(512, 384), (511, 382), (511, 382), (511, 381), (511, 381), (511, 381), (511, 381), (511, 381), (511, 381), (511, 381), (511, 381), (511, 381), (511, 381), (511, 381), (511, 382), (511, 386), (511, 387), (511, 387), (511, 387), (511, 387), (511, 387), (511, 387), (511, 387), (511, 387), (511, 387), (511, 387), (511, 387), (511, 387), (511, 387), (511, 383), (510, 381), (508, 375), (507, 375), (506, 374), (506, 374), (506, 373), (506, 373), (505, 372), (505, 372), (505, 372), (505, 372), (505, 372), (505, 372), (504, 372), (504, 372), (503, 370), (502, 367), (499, 363), (498, 362), (497, 361), (497, 361), (495, 359), (493, 357), (493, 354), (491, 351), (490, 343), (489, 341), (489, 341), (489, 341), (489, 341), (489, 341), (489, 341), (489, 341), (488, 341), (487, 341), (487, 341), (486, 341), (485, 344), (485, 346), (485, 347), (485, 347), (485, 347), (485, 347), (485, 347), (485, 347), (485, 347), (485, 347), (485, 347), (485, 347), (485, 347), (485, 347), (485, 347), (485, 345), (482, 330), (482, 326), (481, 322), (480, 319), (478, 318), (478, 318), (478, 318), (478, 318), (478, 317), (478, 316), (481, 316), (486, 321), (495, 331), (502, 339), (507, 347), (514, 356), (531, 377), (541, 388), (552, 396), (565, 404), (585, 410), (591, 410), (598, 410), (605, 407), (612, 401), (615, 399), (615, 398), (615, 398), (615, 398), (615, 398), (615, 398), (616, 398), (619, 403), (620, 405), (620, 405), (622, 406), (622, 406), (622, 406), (622, 406), (622, 406), (622, 406), (622, 406), (622, 406), (624, 406), (628, 411), (632, 415), (634, 417), (640, 421), (660, 432), (677, 439), (703, 450), (736, 459), (821, 480)]",17.25895429290408,"[6, 3, 7, 1, 4, 8, 5, 2, 9]","(0, 0.25)",CHN009D,CHN,D,Chinese,Tue Oct 23 16:54:32 2018,Mouse
2,1,4,0,43,7,1,0,-679,199,480,134,0,500,200,8000,"[(512, 384), (512, 384), (512, 384), (512, 384), (512, 384), (512, 384), (512, 384), (512, 384), (512, 384), (512, 384), (512, 384), (512, 384), (512, 384), (512, 384), (512, 384), (512, 384), (512, 384), (512, 384), (512, 384), (509, 381), (505, 373), (505, 370), (504, 366), (501, 358), (500, 357), (500, 355), (500, 355), (500, 354), (500, 354), (500, 354), (499, 354), (498, 353), (498, 353), (498, 353), (498, 353), (498, 353), (498, 353), (498, 353), (498, 353), (498, 353), (498, 355), (498, 360), (498, 363), (498, 372), (497, 377), (497, 384), (496, 387), (494, 392), (494, 395), (494, 396), (494, 397), (493, 400), (493, 400), (493, 400), (492, 402), (491, 404), (490, 406), (489, 408), (487, 410), (477, 420), (473, 426), (463, 434), (449, 446), (404, 478), (376, 499), (354, 512), (332, 524), (294, 548)]",143.0460910074524,"[6, 3, 7, 1, 4, 8, 5, 2, 9]","(0, 0.25)",CHN009D,CHN,D,Chinese,Tue Oct 23 16:54:32 2018,Mouse
2,1,4,0,44,5,6,0,-789,339,450,135,0,500,200,8000,"[(512, 384), (512, 384), (512, 384), (512, 384), (512, 384), (512, 384), (512, 384), (512, 384), (512, 384), (512, 384), (512, 384), (512, 384), (512, 384), (512, 384), (512, 384), (512, 384), (512, 384), (512, 384), (512, 384), (512, 384), (512, 384), (512, 384), (512, 384), (512, 384), (512, 384), (512, 384), (512, 384), (512, 384), (512, 384), (512, 384), (512, 384), (512, 384), (512, 384), (515, 385), (520, 389), (528, 399), (530, 402), (532, 404), (534, 407), (539, 413), (543, 417), (545, 420), (547, 422), (548, 424), (548, 424), (548, 424), (548, 424), (548, 424), (548, 424), (548, 424), (548, 424), (549, 424), (549, 424), (549, 424), (549, 424), (554, 424), (556, 424), (560, 423), (566, 422), (581, 421), (588, 421), (595, 421), (602, 421), (611, 421), (615, 421), (619, 423), (621, 423), (626, 426), (628, 428), (631, 430), (633, 432), (638, 435), (642, 437), (648, 439), (658, 442), (686, 448), (708, 455), (726, 462), (753, 468)]",19.21588382410642,"[6, 3, 7, 1, 4, 8, 5, 2, 9]","(0, 0.25)",CHN009D,CHN,D,Chinese,Tue Oct 23 16:54:32 2018,Mouse
2,1,4,0,45,4,6,0,-970,230,740,136,0,500,200,8000,"[(512, 384), (512, 384), (512, 384), (512, 384), (512, 384), (512, 384), (512, 384), (512, 384), (512, 384), (512, 384), (512, 384), (512, 384), (512, 384), (512, 384), (512, 384), (512, 384), (512, 384), (512, 384), (512, 384), (512, 384), (512, 384), (512, 384), (511, 384), (511, 384), (511, 384), (511, 384), (511, 384), (511, 384), (511, 384), (511, 384), (511, 384), (511, 384), (511, 384), (511, 384), (511, 384), (511, 384), (511, 384), (511, 384), (511, 384), (511, 384), (511, 384), (511, 384), (511, 384), (511, 384), (511, 384), (511, 384), (511, 384), (511, 384), (511, 384), (511, 384), (511, 384), (511, 384), (511, 384), (511, 384), (511, 384), (511, 384), (511, 384), (511, 384), (511, 384), (511, 384), (511, 384), (511, 384), (511, 384), (511, 384), (511, 384), (511, 384), (511, 384), (511, 384), (511, 384), (511, 384), (511, 384), (511, 384), (511, 384), (511, 384), (511, 384), (511, 384), (511, 384), (511, 384), (511, 384), (511, 384), (511, 384), (511, 384), (511, 384), (511, 384), (511, 384), (511, 384), (511, 384), (511, 384), (511, 384), (510, 385), (513, 390), (524, 395), (564, 413), (591, 424), (622, 438), (670, 454), (749, 482)]",22.46519765257984,"[6, 3, 7, 1, 4, 8, 5, 2, 9]","(0, 0.25)",CHN009D,CHN,D,Chinese,Tue Oct 23 16:54:32 2018,Mouse
2,1,4,0,46,2,2,1,4161,180,3981,137,0,500,200,8000,"[(512, 384), (512, 384), (512, 384), (512, 384), (512, 384), (512, 384), (512, 384), (512, 384), (512, 384), (512, 384), (512, 384), (512, 384), (512, 384), (512, 384), (512, 384), (512, 384), (512, 384), (512, 382), (512, 380), (512, 377), (512, 376), (512, 376), (512, 376), (512, 376), (512, 376), (512, 376), (512, 376), (512, 376), (512, 376), (512, 376), (512, 376), (512, 376), (512, 376), (512, 376), (512, 376), (512, 376), (512, 376), (512, 376), (512, 376), (512, 376), (512, 376), (512, 376), (512, 376), (514, 376), (516, 377), (520, 378), (522, 379), (523, 380), (524, 381), (524, 381), (524, 381), (524, 381), (524, 381), (524, 381), (524, 381), (524, 381), (524, 381), (525, 380), (525, 379), (526, 375), (527, 373), (527, 373), (527, 372), (527, 370), (527, 370), (527, 370), (528, 370), (528, 370), (528, 370), (528, 370), (528, 370), (528, 370), (528, 370), (528, 370), (528, 370), (528, 370), (528, 370), (528, 370), (528, 370), (528, 370), (528, 370), (528, 370), (528, 370), (528, 370), (528, 370), (528, 370), (528, 370), (528, 370), (528, 370), (528, 370), (528, 370), (528, 370), (528, 370), (528, 370), (528, 370), (528, 370), (528, 370), (528, 370), (528, 370), (528, 370), (528, 370), (528, 370), (528, 370), (528, 370), (528, 370), (528, 370), (528, 370), (528, 370), (528, 370), (528, 370), (528, 370), (528, 370), (528, 370), (528, 370), (528, 370), (528, 370), (528, 370), (528, 370), (528, 370), (528, 370), (528, 370), (528, 370), (528, 370), (528, 370), (528, 370), (528, 370), (528, 370), (528, 370), (528, 370), (528, 370), (528, 370), (528, 370), (528, 370), (528, 370), (528, 370), (528, 367), (527, 364), (526, 359), (526, 354), (526, 339), (525, 329), (525, 322), (525, 314), (525, 305), (525, 305), (525, 304), (525, 304), (525, 295), (525, 291), (525, 284), (527, 279), (528, 269), (529, 265), (530, 259), (530, 256), (532, 248), (532, 246), (532, 244), (533, 243), (533, 241), (533, 241), (533, 241), (533, 241), (533, 241), (533, 241), (533, 241), (533, 241), (533, 240), (533, 240), (533, 240), (533, 240), (539, 241), (544, 242), (545, 242), (548, 244), (553, 244), (556, 244), (558, 244), (561, 244), (562, 244), (564, 244), (564, 244), (565, 243), (565, 243), (565, 242), (566, 242), (566, 242), (566, 242), (566, 242), (566, 242), (566, 242), (566, 242), (566, 242), (566, 242), (566, 242), (566, 242), (566, 242), (566, 242), (566, 242), (566, 242), (567, 244), (569, 248), (570, 249), (570, 253), (570, 253), (570, 253), (570, 253), (570, 253), (570, 253), (570, 253), (570, 253), (570, 253), (570, 253), (570, 253), (570, 253), (570, 253), (570, 253), (570, 253), (570, 253), (570, 253), (570, 253), (570, 253), (570, 253), (570, 253), (570, 253), (570, 253), (570, 253), (570, 253), (570, 253), (570, 253), (570, 253), (570, 253), (570, 253), (570, 253), (570, 253), (570, 253), (570, 253), (570, 253), (570, 253), (570, 253), (570, 253), (570, 253), (570, 253), (570, 252), (570, 252), (570, 251), (570, 250), (570, 247), (571, 247), (571, 247), (572, 246), (572, 246), (572, 246), (572, 246), (572, 246), (572, 246), (572, 246), (572, 246), (572, 246), (572, 246), (572, 245), (572, 245), (572, 245), (572, 244), (572, 244), (572, 244), (572, 244), (572, 244), (572, 244), (572, 244), (572, 244), (572, 244), (572, 244), (572, 244), (572, 244), (572, 244), (572, 244), (572, 244), (572, 244), (572, 244), (572, 244), (572, 244), (572, 244), (572, 244), (572, 244), (572, 244), (572, 244), (572, 244), (572, 244), (572, 244), (572, 244), (572, 244), (572, 244), (572, 244), (572, 244), (572, 244), (572, 244), (572, 244), (572, 244), (572, 244), (572, 244), (572, 244), (572, 244), (572, 244), (572, 244), (572, 244), (572, 244), (572, 244), (572, 244), (572, 244), (572, 244), (572, 244), (572, 244), (572, 244), (572, 244), (572, 244), (572, 244), (572, 244), (572, 244), (572, 244), (572, 244), (572, 244), (572, 244), (572, 244), (572, 244), (572, 244), (572, 244), (572, 244), (572, 244), (572, 244), (572, 244), (572, 244), (572, 244), (572, 244), (572, 244), (572, 244), (572, 244), (572, 244), (572, 244), (572, 244), (572, 244), (572, 244), (572, 244), (572, 244), (572, 244), (572, 244), (572, 244), (572, 244), (572, 244), (572, 244), (572, 244), (572, 244), (572, 244), (572, 244), (572, 244), (572, 244), (572, 244), (572, 244), (572, 244), (572, 244), (572, 244), (572, 244), (572, 244), (572, 244), (572, 244), (572, 244), (572, 244), (572, 244), (572, 244), (572, 244), (572, 244), (572, 244), (572, 244), (572, 244), (572, 244), (572, 244), (572, 244), (572, 244), (572, 244), (572, 244), (572, 244), (572, 244), (572, 244), (572, 244), (572, 244), (572, 244), (572, 244), (572, 244), (572, 244), (572, 244), (572, 244), (572, 244), (572, 244), (572, 244), (572, 244), (572, 244), (572, 244), (572, 244), (572, 244), (572, 244), (572, 244), (572, 244), (572, 244), (572, 244), (572, 244), (572, 244), (572, 244), (572, 243), (572, 242), (574, 240), (579, 235), (594, 218), (601, 208), (614, 192), (630, 169), (661, 129)]",300.29833024369213,"[6, 3, 7, 1, 4, 8, 5, 2, 9]","(0, 0.25)",CHN009D,CHN,D,Chinese,Tue Oct 23 16:54:32 2018,Mouse
2,1,4,0,47,9,6,0,-660,160,500,137,0,500,200,8000,"[(512, 384), (512, 384), (512, 384), (512, 384), (512, 384), (512, 384), (512, 384), (512, 384), (512, 384), (512, 384), (512, 384), (512, 384), (512, 384), (512, 384), (512, 384), (514, 384), (514, 384), (514, 384), (514, 384), (514, 384), (514, 384), (515, 384), (515, 384), (517, 384), (518, 385), (520, 386), (521, 387), (527, 391), (528, 392), (531, 394), (533, 394), (537, 395), (542, 396), (542, 396), (544, 396), (548, 397), (549, 398), (551, 398), (553, 399), (559, 403), (562, 405), (565, 406), (567, 408), (569, 410), (570, 410), (570, 410), (570, 410), (570, 410), (570, 410), (570, 410), (570, 410), (570, 410), (570, 410), (570, 410), (570, 410), (575, 417), (579, 421), (586, 427), (594, 433), (612, 441), (622, 445), (644, 449), (665, 453), (720, 456), (746, 459), (775, 463)]",16.71922880922542,"[6, 3, 7, 1, 4, 8, 5, 2, 9]","(0, 0.25)",CHN009D,CHN,D,Chinese,Tue Oct 23 16:54:32 2018,Mouse
2,1,4,0,48,6,6,1,269,19,250,138,0,500,200,8000,"[(512, 384), (517, 384), (527, 386), (535, 388), (545, 389), (563, 393), (570, 393), (577, 394), (586, 396), (600, 399), (607, 401), (615, 404), (618, 405), (631, 409), (635, 409), (640, 411), (646, 413), (655, 416), (662, 419), (670, 420), (679, 424), (699, 430), (708, 432), (718, 437), (730, 441), (746, 448), (756, 453)]",15.790207278493709,"[6, 3, 7, 1, 4, 8, 5, 2, 9]","(0, 0.25)",CHN009D,CHN,D,Chinese,Tue Oct 23 16:54:32 2018,Mouse
2,1,4,0,49,7,7,1,570,20,550,138,0,500,200,8000,"[(510, 384), (506, 384), (496, 387), (489, 390), (483, 391), (476, 394), (460, 399), (452, 401), (441, 405), (428, 410), (407, 415), (397, 417), (390, 421), (386, 422), (382, 422), (380, 423), (377, 425), (377, 425), (370, 427), (367, 429), (365, 429), (362, 430), (355, 433), (354, 433), (353, 434), (351, 435), (349, 437), (347, 441), (346, 443), (346, 444), (346, 448), (346, 450), (346, 450), (346, 450), (346, 451), (351, 452), (353, 453), (357, 453), (364, 453), (367, 453), (370, 453), (374, 453), (378, 451), (381, 451), (384, 451), (386, 451), (393, 451), (396, 452), (399, 456), (403, 464), (414, 492), (417, 504), (423, 524), (430, 549), (445, 600), (452, 625), (463, 656)]",100.21213493234711,"[6, 3, 7, 1, 4, 8, 5, 2, 9]","(0, 0.25)",CHN009D,CHN,D,Chinese,Tue Oct 23 16:54:32 2018,Mouse
2,1,4,0,50,6,6,1,650,20,630,137,0,500,200,8000,"[(522, 382), (546, 378), (554, 377), (565, 377), (577, 377), (591, 377), (596, 377), (602, 379), (610, 383), (617, 388), (619, 389), (621, 392), (621, 392), (622, 393), (622, 393), (622, 393), (622, 393), (622, 393), (622, 393), (622, 393), (622, 393), (622, 393), (622, 393), (622, 393), (622, 393), (623, 395), (625, 399), (627, 402), (631, 406), (645, 416), (654, 421), (664, 426), (671, 431), (683, 436), (685, 436), (689, 438), (689, 439), (689, 439), (689, 439), (689, 439), (689, 439), (689, 439), (689, 439), (689, 439), (689, 439), (689, 439), (689, 439), (689, 439), (689, 439), (689, 439), (689, 439), (689, 439), (689, 439), (689, 439), (689, 439), (689, 439), (689, 439), (689, 439), (689, 439), (689, 439), (690, 439), (707, 446), (722, 453), (740, 462), (766, 473)]",19.310139425278244,"[6, 3, 7, 1, 4, 8, 5, 2, 9]","(0, 0.25)",CHN009D,CHN,D,Chinese,Tue Oct 23 16:54:32 2018,Mouse
2,1,4,0,51,5,5,1,330,100,230,136,0,500,200,8000,"[(512, 384), (512, 384), (512, 384), (512, 384), (512, 384), (512, 384), (512, 384), (512, 384), (512, 384), (512, 382), (512, 378), (512, 374), (512, 362), (513, 358), (513, 354), (514, 350), (515, 342), (516, 339), (516, 337), (516, 336), (516, 332), (516, 332), (516, 331), (516, 329), (516, 327), (516, 324), (514, 319), (513, 310), (507, 282), (506, 261), (500, 234), (492, 196), (472, 116)]",261.51105611949527,"[6, 3, 7, 1, 4, 8, 5, 2, 9]","(0, 0.25)",CHN009D,CHN,D,Chinese,Tue Oct 23 16:54:32 2018,Mouse
2,1,4,0,52,4,8,0,-1039,119,920,135,0,500,200,8000,"[(512, 384), (512, 384), (512, 384), (512, 384), (512, 384), (512, 384), (512, 384), (512, 384), (512, 384), (512, 384), (512, 384), (513, 385), (513, 385), (513, 385), (513, 385), (512, 385), (512, 385), (511, 385), (511, 385), (510, 386), (510, 386), (510, 386), (509, 387), (509, 387), (508, 387), (508, 387), (508, 387), (508, 387), (508, 387), (508, 387), (507, 387), (507, 388), (507, 388), (507, 388), (506, 388), (506, 389), (506, 389), (506, 390), (506, 390), (505, 391), (505, 393), (505, 394), (504, 395), (503, 400), (503, 400), (503, 401), (503, 403), (503, 407), (503, 409), (503, 410), (503, 411), (503, 415), (503, 416), (503, 416), (503, 417), (503, 417), (503, 417), (503, 417), (503, 417), (503, 417), (503, 417), (503, 417), (503, 417), (503, 417), (503, 417), (503, 417), (503, 417), (503, 417), (503, 417), (503, 417), (503, 417), (503, 417), (503, 417), (503, 417), (503, 417), (503, 417), (500, 417), (494, 412), (490, 408), (485, 403), (481, 400), (480, 400), (479, 399), (479, 398), (479, 396), (479, 396), (479, 396), (479, 396), (479, 396), (479, 396), (479, 396), (478, 396), (475, 394), (471, 388), (466, 381), (451, 365), (442, 355), (434, 343), (422, 328), (384, 286), (366, 263), (347, 237), (331, 215), (306, 185)]",224.0098011707956,"[6, 3, 7, 1, 4, 8, 5, 2, 9]","(0, 0.25)",CHN009D,CHN,D,Chinese,Tue Oct 23 16:54:32 2018,Mouse
2,1,4,0,53,6,6,1,220,30,190,136,0,500,200,8000,"[(512, 384), (512, 384), (513, 385), (518, 386), (527, 390), (538, 392), (549, 396), (580, 406), (594, 410), (610, 416), (622, 422), (649, 432), (660, 437), (671, 441), (681, 444), (701, 452), (708, 455), (711, 460), (719, 464), (732, 470), (739, 475), (749, 480)]",22.05106271907673,"[6, 3, 7, 1, 4, 8, 5, 2, 9]","(0, 0.25)",CHN009D,CHN,D,Chinese,Tue Oct 23 16:54:32 2018,Mouse
2,1,4,0,54,3,5,0,-319,29,290,136,0,500,200,8000,"[(512, 384), (512, 384), (510, 383), (505, 379), (497, 374), (483, 365), (479, 362), (472, 360), (466, 359), (458, 354), (454, 351), (451, 350), (449, 348), (446, 345), (445, 344), (444, 343), (442, 340), (440, 336), (438, 333), (437, 332), (434, 329), (432, 324), (431, 322), (429, 317), (427, 312), (424, 294), (421, 280), (420, 269), (419, 252), (419, 205), (419, 177), (422, 139)]",249.8293465881496,"[6, 3, 7, 1, 4, 8, 5, 2, 9]","(0, 0.25)",CHN009D,CHN,D,Chinese,Tue Oct 23 16:54:32 2018,Mouse
2,1,4,0,55,7,7,1,1250,140,1110,137,0,500,200,8000,"[(512, 384), (512, 384), (512, 384), (512, 384), (512, 384), (512, 384), (512, 384), (512, 384), (512, 384), (512, 384), (512, 384), (512, 384), (512, 384), (512, 385), (512, 386), (512, 387), (514, 390), (515, 390), (515, 390), (515, 390), (515, 390), (515, 390), (515, 390), (515, 390), (515, 390), (515, 390), (515, 390), (515, 390), (515, 390), (515, 390), (515, 390), (515, 390), (515, 390), (515, 390), (515, 390), (515, 390), (515, 390), (515, 390), (515, 390), (515, 390), (515, 390), (515, 390), (515, 390), (515, 390), (515, 390), (515, 390), (515, 390), (515, 390), (515, 390), (515, 390), (515, 390), (515, 390), (515, 390), (517, 390), (521, 386), (522, 383), (524, 381), (524, 381), (524, 380), (524, 380), (524, 379), (524, 379), (524, 379), (524, 379), (524, 379), (524, 379), (524, 379), (524, 379), (524, 379), (524, 379), (524, 379), (524, 379), (524, 379), (524, 379), (524, 379), (524, 379), (524, 379), (524, 379), (524, 379), (524, 379), (524, 379), (524, 379), (524, 379), (524, 379), (524, 379), (524, 379), (524, 379), (524, 379), (524, 379), (524, 379), (524, 379), (524, 379), (524, 379), (524, 379), (524, 379), (522, 381), (520, 386), (512, 405), (508, 413), (504, 419), (498, 429), (491, 440), (489, 444), (487, 446), (486, 449), (485, 449), (485, 449), (485, 449), (485, 449), (485, 449), (484, 450), (484, 450), (484, 453), (484, 459), (483, 466), (480, 474), (478, 483), (474, 504), (473, 517), (473, 531), (473, 550), (473, 585), (473, 599), (473, 620), (471, 640)]",99.09900571105234,"[6, 3, 7, 1, 4, 8, 5, 2, 9]","(0, 0.25)",CHN009D,CHN,D,Chinese,Tue Oct 23 16:54:32 2018,Mouse
2,1,4,0,56,5,5,1,530,290,240,137,0,500,200,8000,"[(512, 384), (512, 384), (512, 384), (512, 384), (512, 384), (512, 384), (512, 384), (512, 384), (512, 384), (512, 384), (512, 384), (512, 384), (512, 384), (512, 384), (512, 384), (512, 384), (512, 384), (512, 384), (512, 384), (512, 384), (512, 384), (512, 384), (512, 384), (512, 384), (512, 384), (512, 384), (512, 384), (512, 384), (512, 382), (511, 376), (509, 367), (508, 360), (504, 342), (503, 334), (502, 325), (502, 318), (502, 303), (502, 294), (502, 287), (502, 276), (502, 258), (502, 250), (502, 240), (502, 232), (500, 219), (499, 211), (499, 205), (499, 197), (497, 178), (494, 165), (493, 152), (491, 138), (483, 113)]",263.89196168181735,"[6, 3, 7, 1, 4, 8, 5, 2, 9]","(0, 0.25)",CHN009D,CHN,D,Chinese,Tue Oct 23 16:54:32 2018,Mouse
2,1,4,0,57,3,3,1,670,80,590,136,0,500,200,8000,"[(512, 384), (512, 384), (512, 384), (512, 384), (512, 384), (512, 384), (512, 384), (516, 383), (516, 383), (516, 383), (516, 383), (516, 383), (516, 383), (516, 383), (516, 383), (516, 383), (516, 383), (516, 383), (516, 383), (520, 380), (523, 376), (525, 373), (526, 370), (529, 360), (533, 354), (535, 346), (539, 340), (544, 328), (550, 320), (553, 313), (558, 308), (563, 301), (564, 299), (565, 298), (565, 297), (565, 297), (565, 297), (565, 297), (565, 297), (565, 297), (565, 297), (565, 297), (565, 297), (567, 299), (567, 303), (568, 308), (569, 314), (569, 327), (571, 336), (572, 347), (573, 358), (578, 380), (583, 391), (585, 404), (590, 414), (596, 428), (599, 434), (601, 438), (605, 444), (610, 452), (614, 460), (618, 467), (621, 478), (637, 509), (648, 535), (654, 560), (663, 591)]",53.890423257363885,"[6, 3, 7, 1, 4, 8, 5, 2, 9]","(0, 0.25)",CHN009D,CHN,D,Chinese,Tue Oct 23 16:54:32 2018,Mouse
2,1,4,0,58,5,5,1,379,199,180,135,0,500,200,8000,"[(512, 384), (512, 384), (512, 384), (512, 384), (512, 384), (512, 384), (512, 384), (512, 384), (512, 384), (512, 384), (512, 384), (512, 384), (512, 384), (512, 384), (512, 384), (512, 384), (512, 384), (512, 384), (512, 384), (512, 383), (511, 380), (508, 377), (507, 376), (504, 371), (499, 363), (499, 361), (498, 357), (496, 354), (494, 347), (493, 341), (491, 333), (489, 320), (485, 289), (482, 259), (475, 224), (474, 201), (464, 147), (461, 126)]",258.8182457898033,"[6, 3, 7, 1, 4, 8, 5, 2, 9]","(0, 0.25)",CHN009D,CHN,D,Chinese,Tue Oct 23 16:54:32 2018,Mouse
2,1,4,0,59,8,6,0,-1160,990,170,134,0,500,200,8000,"[(512, 384), (512, 384), (512, 384), (512, 384), (512, 384), (512, 384), (512, 384), (512, 384), (512, 384), (512, 384), (512, 384), (512, 384), (512, 384), (512, 384), (512, 384), (512, 384), (512, 384), (512, 384), (512, 384), (512, 384), (512, 384), (512, 384), (512, 384), (512, 384), (512, 384), (512, 384), (512, 384), (512, 384), (512, 384), (512, 384), (512, 384), (512, 384), (512, 384), (512, 384), (512, 384), (512, 384), (512, 384), (512, 384), (512, 384), (512, 384), (512, 384), (512, 384), (512, 384), (512, 384), (512, 384), (512, 384), (512, 384), (512, 384), (512, 384), (512, 384), (512, 384), (512, 384), (512, 384), (512, 384), (512, 384), (512, 384), (512, 384), (512, 384), (512, 384), (512, 384), (512, 384), (512, 384), (512, 384), (512, 384), (512, 384), (512, 384), (512, 384), (512, 384), (512, 384), (512, 384), (512, 384), (512, 384), (512, 384), (512, 384), (512, 384), (512, 384), (512, 384), (512, 384), (512, 384), (512, 384), (512, 384), (512, 384), (512, 384), (512, 384), (512, 384), (512, 384), (512, 384), (512, 384), (512, 384), (512, 384), (512, 384), (512, 384), (512, 384), (512, 384), (512, 384), (512, 384), (512, 384), (512, 384), (525, 393), (534, 395), (548, 399), (558, 402), (580, 409), (587, 410), (595, 412), (602, 412), (619, 416), (629, 419), (638, 420), (650, 424), (672, 430), (686, 434), (701, 440), (713, 443), (744, 453), (756, 455)]",16.224129926670592,"[6, 3, 7, 1, 4, 8, 5, 2, 9]","(0, 0.25)",CHN009D,CHN,D,Chinese,Tue Oct 23 16:54:32 2018,Mouse
2,1,4,0,60,1,9,0,-539,369,170,135,0,500,200,8000,"[(512, 384), (512, 384), (512, 384), (512, 384), (512, 384), (512, 384), (512, 384), (512, 384), (512, 384), (512, 384), (512, 384), (512, 384), (512, 384), (512, 384), (512, 384), (512, 384), (512, 384), (512, 384), (512, 384), (512, 384), (512, 384), (512, 384), (512, 384), (512, 384), (512, 384), (512, 384), (512, 384), (512, 384), (512, 384), (512, 384), (512, 384), (512, 384), (512, 384), (512, 384), (512, 384), (512, 384), (515, 380), (522, 376), (538, 369), (548, 363), (560, 357), (576, 351), (607, 335), (619, 328), (629, 323), (635, 321), (654, 311), (665, 309), (673, 305), (683, 301), (706, 294), (717, 290), (730, 286), (742, 282)]",336.08375458238066,"[6, 3, 7, 1, 4, 8, 5, 2, 9]","(0, 0.25)",CHN009D,CHN,D,Chinese,Tue Oct 23 16:54:32 2018,Mouse
2,1,4,0,61,1,6,0,-290,40,250,136,0,500,200,8000,"[(512, 384), (512, 384), (512, 384), (515, 385), (520, 390), (523, 394), (523, 394), (525, 395), (527, 397), (530, 397), (535, 399), (538, 401), (549, 405), (556, 407), (564, 410), (574, 412), (590, 418), (599, 422), (610, 423), (620, 427), (641, 433), (652, 437), (665, 443), (676, 449), (700, 463), (712, 470), (723, 478), (732, 484), (750, 495)]",25.003712944743135,"[6, 3, 7, 1, 4, 8, 5, 2, 9]","(0, 0.25)",CHN009D,CHN,D,Chinese,Tue Oct 23 16:54:32 2018,Mouse
2,1,4,0,62,1,6,0,-150,40,110,137,0,500,200,8000,"[(512, 384), (512, 384), (512, 384), (527, 384), (545, 386), (565, 387), (580, 388), (621, 393), (646, 395), (663, 395), (682, 397), (723, 402), (737, 406), (751, 408), (765, 411)]",6.091513708854194,"[6, 3, 7, 1, 4, 8, 5, 2, 9]","(0, 0.25)",CHN009D,CHN,D,Chinese,Tue Oct 23 16:54:32 2018,Mouse
2,1,4,0,63,7,7,1,320,20,300,138,0,500,200,8000,"[(501, 404), (493, 415), (487, 424), (481, 435), (472, 449), (470, 451), (466, 457), (465, 459), (464, 461), (463, 462), (463, 462), (463, 462), (463, 463), (463, 464), (463, 465), (463, 466), (463, 471), (463, 474), (463, 477), (463, 480), (463, 491), (463, 496), (463, 504), (463, 512), (464, 531), (466, 541), (466, 550), (469, 564), (471, 591), (472, 612), (472, 625), (476, 645)]",97.85331330197822,"[6, 3, 7, 1, 4, 8, 5, 2, 9]","(0, 0.25)",CHN009D,CHN,D,Chinese,Tue Oct 23 16:54:32 2018,Mouse
2,1,4,0,64,8,9,0,-2991,2691,300,138,0,500,200,8000,"[(512, 384), (512, 384), (512, 384), (512, 384), (512, 384), (512, 384), (512, 384), (512, 384), (512, 384), (512, 384), (512, 384), (512, 384), (512, 384), (512, 384), (512, 384), (512, 384), (512, 384), (512, 384), (512, 384), (512, 384), (512, 384), (512, 384), (512, 384), (512, 384), (512, 384), (512, 384), (512, 384), (512, 384), (512, 384), (512, 384), (512, 384), (512, 384), (512, 384), (512, 384), (512, 384), (512, 384), (512, 384), (512, 384), (512, 384), (512, 384), (512, 384), (512, 384), (512, 384), (512, 384), (512, 384), (512, 384), (512, 384), (512, 384), (512, 384), (512, 384), (512, 384), (512, 384), (512, 384), (512, 384), (512, 384), (512, 384), (512, 384), (512, 384), (512, 384), (512, 384), (512, 384), (512, 384), (512, 384), (512, 384), (512, 384), (512, 384), (512, 384), (512, 384), (512, 384), (512, 384), (512, 384), (512, 384), (512, 384), (512, 384), (512, 384), (512, 384), (512, 384), (512, 384), (512, 384), (512, 384), (512, 384), (512, 384), (512, 384), (512, 384), (512, 384), (512, 384), (512, 384), (512, 384), (512, 384), (512, 384), (512, 384), (512, 384), (512, 384), (512, 384), (512, 384), (512, 384), (512, 384), (512, 384), (512, 384), (512, 384), (512, 384), (512, 384), (512, 384), (512, 384), (512, 384), (512, 384), (512, 384), (512, 384), (512, 384), (512, 384), (512, 384), (512, 384), (512, 384), (512, 384), (512, 384), (512, 384), (512, 384), (512, 384), (512, 384), (512, 384), (512, 384), (512, 384), (512, 384), (512, 384), (512, 384), (512, 384), (512, 384), (512, 384), (512, 384), (512, 384), (512, 384), (512, 384), (512, 384), (512, 384), (512, 384), (512, 384), (512, 384), (512, 384), (512, 384), (512, 384), (512, 384), (512, 384), (512, 384), (512, 384), (512, 384), (512, 384), (512, 384), (512, 384), (512, 384), (512, 384), (512, 384), (512, 384), (512, 384), (512, 384), (512, 384), (512, 384), (512, 384), (512, 384), (512, 384), (512, 384), (512, 384), (512, 384), (512, 384), (512, 384), (512, 384), (512, 384), (512, 384), (512, 384), (512, 384), (512, 384), (512, 384), (512, 384), (512, 384), (512, 384), (512, 384), (512, 384), (512, 384), (512, 384), (512, 384), (512, 384), (512, 384), (512, 384), (512, 384), (512, 384), (512, 384), (512, 384), (512, 384), (512, 384), (512, 384), (512, 384), (512, 384), (512, 384), (512, 384), (512, 384), (512, 384), (512, 384), (512, 384), (512, 384), (512, 384), (512, 384), (512, 384), (512, 384), (512, 384), (512, 384), (512, 384), (512, 384), (512, 384), (512, 384), (512, 384), (512, 384), (512, 384), (512, 384), (512, 384), (512, 384), (512, 384), (512, 384), (512, 384), (512, 384), (512, 384), (512, 384), (512, 384), (512, 384), (512, 384), (512, 384), (512, 384), (512, 384), (512, 384), (512, 384), (512, 384), (512, 384), (512, 384), (512, 384), (512, 384), (512, 384), (512, 384), (512, 384), (512, 384), (512, 384), (512, 384), (512, 384), (512, 384), (512, 384), (512, 384), (512, 384), (512, 384), (512, 384), (512, 384), (512, 384), (512, 384), (512, 384), (512, 384), (512, 384), (512, 384), (512, 384), (512, 384), (512, 384), (512, 384), (512, 384), (512, 384), (512, 384), (512, 384), (512, 384), (512, 384), (512, 384), (512, 384), (512, 384), (512, 384), (512, 384), (512, 384), (515, 383), (520, 383), (526, 383), (531, 383), (545, 382), (554, 381), (561, 380), (566, 379), (578, 376), (581, 375), (584, 374), (590, 372), (599, 369), (602, 367), (603, 365), (603, 365), (604, 365), (604, 365), (604, 365), (604, 365), (604, 365), (604, 365), (604, 365), (604, 365), (604, 365), (605, 365), (608, 365), (618, 365), (673, 356), (723, 346), (764, 337)]",349.43526517624383,"[6, 3, 7, 1, 4, 8, 5, 2, 9]","(0, 0.25)",CHN009D,CHN,D,Chinese,Tue Oct 23 16:54:32 2018,Mouse
2,1,4,0,65,1,1,1,580,490,90,139,0,500,200,8000,"[(512, 384), (512, 384), (512, 384), (512, 384), (512, 384), (512, 384), (512, 384), (512, 384), (512, 384), (512, 384), (512, 384), (512, 384), (512, 384), (512, 384), (512, 384), (512, 384), (512, 384), (512, 384), (512, 384), (512, 384), (512, 384), (512, 384), (512, 384), (512, 384), (512, 384), (512, 384), (512, 384), (512, 384), (512, 384), (512, 384), (512, 384), (512, 384), (512, 384), (512, 384), (512, 384), (512, 384), (512, 384), (512, 384), (512, 384), (512, 384), (512, 384), (512, 384), (512, 384), (512, 384), (512, 384), (512, 384), (512, 384), (512, 384), (508, 384), (500, 392), (491, 401), (479, 410), (447, 435), (424, 453), (399, 472), (368, 494), (315, 528), (286, 542)]",145.04202363552952,"[6, 3, 7, 1, 4, 8, 5, 2, 9]","(0, 0.25)",CHN009D,CHN,D,Chinese,Tue Oct 23 16:54:32 2018,Mouse
2,1,4,0,66,4,6,0,-1609,989,620,139,0,500,200,8000,"[(512, 384), (512, 384), (512, 384), (512, 384), (512, 384), (512, 384), (512, 384), (512, 384), (512, 384), (512, 384), (512, 384), (512, 384), (512, 384), (512, 384), (512, 384), (512, 384), (512, 384), (512, 384), (512, 384), (512, 384), (512, 384), (512, 384), (512, 384), (512, 384), (512, 384), (512, 384), (512, 384), (512, 384), (512, 384), (512, 384), (512, 384), (512, 384), (512, 384), (512, 384), (512, 384), (512, 384), (512, 384), (512, 384), (512, 384), (512, 384), (512, 384), (512, 384), (512, 384), (512, 384), (512, 384), (512, 384), (512, 384), (512, 384), (512, 384), (512, 384), (512, 384), (512, 384), (512, 384), (512, 384), (512, 384), (512, 384), (512, 384), (512, 384), (512, 384), (512, 384), (512, 384), (512, 384), (512, 384), (512, 384), (512, 384), (512, 384), (512, 384), (512, 384), (512, 384), (512, 384), (512, 384), (512, 384), (512, 384), (512, 384), (512, 384), (512, 384), (512, 384), (512, 384), (512, 384), (512, 384), (512, 384), (512, 384), (512, 384), (512, 384), (512, 384), (512, 384), (512, 384), (512, 384), (512, 384), (512, 384), (512, 384), (512, 384), (512, 384), (512, 384), (512, 384), (512, 384), (512, 384), (512, 384), (511, 385), (501, 395), (494, 404), (487, 414), (478, 426), (467, 445), (461, 454), (458, 461), (456, 465), (454, 469), (454, 470), (454, 470), (454, 470), (454, 470), (454, 470), (454, 470), (454, 470), (454, 470), (454, 470), (454, 470), (454, 470), (454, 470), (454, 470), (454, 470), (454, 470), (454, 470), (454, 470), (454, 470), (454, 470), (454, 470), (455, 469), (456, 468), (458, 467), (460, 464), (463, 463), (470, 463), (479, 461), (499, 460), (510, 460), (518, 460), (528, 460), (548, 460), (559, 460), (570, 460), (581, 460), (592, 460), (598, 460), (604, 460), (605, 460), (607, 460), (607, 460), (607, 460), (608, 460), (609, 460), (610, 460), (612, 460), (616, 460), (631, 460), (646, 460), (658, 460), (679, 460), (729, 460), (761, 463)]",17.602623170032782,"[6, 3, 7, 1, 4, 8, 5, 2, 9]","(0, 0.25)",CHN009D,CHN,D,Chinese,Tue Oct 23 16:54:32 2018,Mouse
2,1,4,0,67,6,6,1,290,20,270,140,0,500,200,8000,"[(514, 385), (515, 386), (520, 390), (522, 392), (526, 393), (527, 394), (530, 396), (533, 396), (535, 397), (537, 399), (542, 401), (544, 402), (549, 404), (551, 406), (559, 410), (560, 413), (565, 414), (571, 417), (580, 421), (583, 422), (589, 425), (594, 428), (611, 434), (622, 438), (636, 440), (652, 446), (692, 459), (717, 465), (751, 476)]",21.053573761057375,"[6, 3, 7, 1, 4, 8, 5, 2, 9]","(0, 0.25)",CHN009D,CHN,D,Chinese,Tue Oct 23 16:54:32 2018,Mouse
2,1,4,0,68,8,8,1,700,520,180,140,0,500,200,8000,"[(512, 384), (512, 384), (512, 384), (512, 384), (512, 384), (512, 384), (512, 384), (512, 384), (512, 384), (512, 384), (512, 384), (512, 384), (512, 384), (512, 384), (512, 384), (512, 384), (512, 384), (512, 384), (512, 384), (512, 384), (512, 384), (512, 384), (512, 384), (512, 384), (512, 384), (512, 384), (512, 384), (512, 384), (512, 384), (512, 384), (512, 384), (512, 384), (512, 384), (512, 384), (512, 384), (512, 384), (512, 384), (512, 384), (512, 384), (512, 384), (512, 384), (512, 384), (512, 384), (512, 384), (512, 384), (512, 384), (512, 384), (512, 384), (512, 384), (512, 384), (512, 384), (509, 378), (503, 371), (497, 359), (493, 353), (487, 344), (480, 337), (465, 319), (457, 310), (449, 301), (442, 293), (429, 278), (423, 269), (416, 263), (411, 255), (390, 240), (383, 235), (371, 226), (352, 216), (312, 199)]",222.76882539196873,"[6, 3, 7, 1, 4, 8, 5, 2, 9]","(0, 0.25)",CHN009D,CHN,D,Chinese,Tue Oct 23 16:54:32 2018,Mouse
2,1,4,0,69,5,5,1,321,171,150,139,0,500,200,8000,"[(512, 384), (512, 384), (512, 384), (512, 384), (512, 384), (512, 384), (512, 384), (512, 384), (512, 384), (512, 384), (512, 384), (512, 384), (512, 384), (512, 384), (512, 384), (512, 384), (512, 384), (512, 377), (512, 366), (512, 357), (512, 341), (512, 330), (512, 322), (510, 315), (508, 298), (507, 289), (507, 284), (503, 273), (501, 252), (498, 234), (495, 219), (488, 196), (474, 128)]",261.55680907082336,"[6, 3, 7, 1, 4, 8, 5, 2, 9]","(0, 0.25)",CHN009D,CHN,D,Chinese,Tue Oct 23 16:54:32 2018,Mouse
2,1,4,0,70,6,7,0,-1099,139,960,138,0,500,200,8000,"[(512, 384), (512, 384), (512, 384), (512, 384), (512, 384), (512, 384), (512, 384), (512, 384), (512, 384), (512, 384), (512, 384), (512, 384), (512, 384), (515, 386), (519, 391), (524, 398), (527, 401), (530, 403), (531, 405), (535, 408), (537, 410), (538, 411), (540, 411), (541, 412), (542, 413), (543, 414), (545, 414), (550, 417), (550, 418), (551, 418), (552, 418), (553, 419), (553, 419), (553, 419), (553, 419), (553, 419), (553, 419), (553, 419), (553, 419), (553, 419), (553, 419), (553, 419), (553, 419), (553, 419), (553, 419), (553, 419), (553, 419), (553, 419), (553, 419), (555, 419), (557, 420), (559, 420), (559, 420), (560, 420), (561, 420), (561, 420), (562, 420), (562, 420), (562, 420), (562, 420), (562, 420), (562, 420), (562, 420), (562, 420), (562, 420), (562, 420), (562, 420), (562, 420), (562, 420), (562, 420), (562, 420), (562, 420), (562, 420), (562, 420), (562, 420), (562, 420), (562, 420), (562, 420), (562, 420), (562, 421), (562, 423), (562, 425), (560, 428), (559, 434), (557, 437), (555, 442), (554, 444), (553, 447), (552, 448), (552, 448), (551, 449), (550, 451), (550, 451), (550, 451), (550, 451), (550, 451), (550, 451), (550, 451), (549, 452), (548, 454), (546, 456), (544, 460), (540, 468), (531, 494), (526, 511), (522, 533), (514, 556), (500, 603), (492, 629), (488, 648)]",95.1944289077348,"[6, 3, 7, 1, 4, 8, 5, 2, 9]","(0, 0.25)",CHN009D,CHN,D,Chinese,Tue Oct 23 16:54:32 2018,Mouse
2,1,4,0,71,6,6,1,200,20,180,139,0,500,200,8000,"[(538, 390), (550, 392), (559, 395), (568, 398), (581, 401), (587, 404), (593, 405), (596, 406), (607, 410), (613, 411), (622, 414), (628, 415), (649, 421), (662, 425), (676, 429), (687, 432), (715, 443), (730, 445), (745, 450), (762, 455)]",15.854546432378314,"[6, 3, 7, 1, 4, 8, 5, 2, 9]","(0, 0.25)",CHN009D,CHN,D,Chinese,Tue Oct 23 16:54:32 2018,Mouse
2,1,4,0,72,2,7,0,-759,629,130,139,0,500,200,8000,"[(512, 384), (512, 384), (512, 384), (512, 384), (512, 384), (512, 384), (512, 384), (512, 384), (512, 384), (512, 384), (512, 384), (512, 384), (512, 384), (512, 384), (512, 384), (512, 384), (512, 384), (512, 384), (512, 384), (512, 384), (512, 384), (512, 384), (512, 384), (512, 384), (512, 384), (512, 384), (512, 384), (512, 384), (512, 384), (512, 384), (512, 384), (512, 384), (512, 384), (512, 384), (512, 384), (512, 384), (512, 384), (512, 384), (512, 384), (512, 384), (512, 384), (512, 384), (512, 384), (512, 384), (512, 384), (512, 384), (512, 384), (512, 384), (512, 384), (512, 384), (512, 384), (512, 384), (512, 384), (512, 384), (512, 384), (512, 384), (512, 384), (512, 384), (512, 384), (512, 384), (512, 384), (512, 384), (510, 384), (509, 385), (509, 389), (508, 402), (506, 410), (506, 418), (503, 428), (500, 452), (498, 469), (493, 488), (490, 514), (480, 576), (475, 611), (471, 656)]",98.57196335910425,"[6, 3, 7, 1, 4, 8, 5, 2, 9]","(0, 0.25)",CHN009D,CHN,D,Chinese,Tue Oct 23 16:54:32 2018,Mouse
2,1,4,0,73,8,7,0,-480,100,380,140,0,500,200,8000,"[(512, 384), (512, 384), (512, 384), (512, 384), (512, 384), (512, 384), (512, 384), (512, 384), (512, 384), (513, 382), (513, 382), (515, 380), (515, 380), (518, 377), (519, 375), (519, 375), (519, 375), (520, 374), (520, 373), (520, 372), (520, 372), (520, 370), (520, 370), (520, 370), (520, 370), (520, 370), (520, 370), (520, 370), (520, 370), (520, 369), (519, 369), (516, 371), (512, 382), (504, 411), (498, 433), (490, 461), (481, 482), (467, 532), (465, 548), (460, 560), (457, 570), (453, 587), (452, 590), (452, 597), (452, 602), (452, 614), (452, 624), (452, 636)]",103.3924977537511,"[6, 3, 7, 1, 4, 8, 5, 2, 9]","(0, 0.25)",CHN009D,CHN,D,Chinese,Tue Oct 23 16:54:32 2018,Mouse
2,1,4,0,74,5,5,1,270,20,250,141,0,500,200,8000,"[(514, 375), (518, 366), (521, 361), (521, 359), (522, 356), (524, 349), (524, 347), (525, 345), (526, 342), (527, 338), (527, 336), (527, 333), (528, 329), (529, 321), (529, 316), (530, 311), (530, 306), (531, 291), (531, 283), (531, 276), (531, 265), (531, 238), (526, 220), (525, 202), (521, 183), (515, 141), (511, 120)]",269.7829715701199,"[6, 3, 7, 1, 4, 8, 5, 2, 9]","(0, 0.25)",CHN009D,CHN,D,Chinese,Tue Oct 23 16:54:32 2018,Mouse
2,1,4,0,75,4,4,1,470,20,450,141,0,500,200,8000,"[(512, 384), (512, 386), (511, 390), (510, 391), (509, 392), (508, 393), (508, 394), (507, 395), (506, 396), (505, 397), (503, 398), (500, 398), (499, 398), (498, 400), (496, 400), (496, 401), (496, 401), (495, 401), (493, 403), (493, 403), (491, 403), (491, 403), (491, 403), (491, 403), (490, 403), (490, 403), (487, 403), (486, 403), (482, 403), (479, 403), (468, 403), (459, 403), (449, 403), (437, 403), (415, 405), (403, 406), (392, 408), (381, 409), (355, 411), (344, 415), (333, 415), (320, 417), (299, 417), (288, 417), (278, 419), (268, 419), (257, 419)]",172.18470645323313,"[6, 3, 7, 1, 4, 8, 5, 2, 9]","(0, 0.25)",CHN009D,CHN,D,Chinese,Tue Oct 23 16:54:32 2018,Mouse
2,1,4,0,76,1,1,1,531,71,460,140,0,500,200,8000,"[(512, 384), (512, 384), (512, 384), (512, 384), (512, 384), (512, 384), (512, 384), (515, 383), (518, 382), (522, 380), (526, 378), (529, 378), (539, 375), (541, 375), (544, 374), (544, 374), (544, 374), (544, 374), (544, 374), (544, 374), (544, 374), (544, 374), (544, 374), (544, 374), (544, 374), (544, 374), (544, 374), (544, 374), (544, 374), (544, 374), (541, 375), (536, 382), (532, 386), (529, 391), (526, 394), (513, 404), (509, 407), (502, 413), (496, 418), (483, 430), (473, 436), (463, 444), (452, 454), (429, 473), (417, 483), (400, 495), (390, 503), (363, 521), (354, 528), (344, 533), (337, 538), (328, 543), (324, 546), (320, 548)]",139.49715161466776,"[6, 3, 7, 1, 4, 8, 5, 2, 9]","(0, 0.25)",CHN009D,CHN,D,Chinese,Tue Oct 23 16:54:32 2018,Mouse
2,1,4,0,77,1,2,0,-1200,1030,170,139,0,500,200,8000,"[(512, 384), (512, 384), (512, 384), (512, 384), (512, 384), (512, 384), (512, 384), (512, 384), (512, 384), (512, 384), (512, 384), (512, 384), (512, 384), (512, 384), (512, 384), (512, 384), (512, 384), (512, 384), (512, 384), (512, 384), (512, 384), (512, 384), (512, 384), (512, 384), (512, 384), (512, 384), (512, 384), (512, 384), (512, 384), (512, 384), (512, 384), (512, 384), (512, 384), (512, 384), (512, 384), (512, 384), (512, 384), (512, 384), (512, 384), (512, 384), (512, 384), (512, 384), (512, 384), (512, 384), (512, 384), (512, 384), (512, 384), (512, 384), (512, 384), (512, 384), (512, 384), (512, 384), (512, 384), (512, 384), (512, 384), (512, 384), (512, 384), (512, 384), (512, 384), (512, 384), (512, 384), (512, 384), (512, 384), (512, 384), (512, 384), (512, 384), (512, 384), (512, 384), (512, 384), (512, 384), (512, 384), (512, 384), (512, 384), (512, 384), (512, 384), (512, 384), (512, 384), (512, 384), (512, 384), (512, 384), (512, 384), (512, 384), (512, 384), (512, 384), (512, 384), (512, 384), (512, 384), (512, 384), (512, 384), (512, 384), (512, 384), (512, 384), (512, 384), (512, 384), (512, 384), (512, 384), (512, 384), (512, 384), (512, 384), (512, 384), (512, 384), (512, 384), (512, 383), (516, 379), (519, 376), (530, 365), (536, 360), (541, 355), (547, 351), (557, 339), (563, 331), (571, 322), (579, 312), (599, 291), (608, 281), (617, 269), (630, 252), (650, 210), (662, 188), (670, 165)]",305.8089859555798,"[6, 3, 7, 1, 4, 8, 5, 2, 9]","(0, 0.25)",CHN009D,CHN,D,Chinese,Tue Oct 23 16:54:32 2018,Mouse
2,1,4,0,78,1,1,1,629,269,360,140,0,500,200,8000,"[(512, 384), (512, 384), (512, 384), (512, 384), (512, 384), (512, 384), (512, 384), (512, 384), (512, 384), (512, 384), (512, 384), (512, 384), (512, 384), (512, 384), (512, 384), (512, 384), (512, 384), (512, 384), (512, 384), (512, 384), (512, 384), (512, 384), (512, 384), (512, 384), (512, 384), (512, 384), (512, 386), (512, 387), (512, 388), (512, 389), (512, 391), (512, 392), (512, 394), (512, 394), (511, 396), (510, 398), (509, 399), (508, 402), (502, 407), (499, 409), (492, 415), (485, 420), (466, 433), (457, 439), (445, 446), (434, 454), (412, 469), (402, 475), (393, 483), (384, 490), (368, 503), (362, 507), (355, 512), (352, 515), (347, 520), (344, 522), (342, 525), (340, 528), (334, 536), (331, 540), (328, 542), (323, 546), (317, 553)]",139.08561677997488,"[6, 3, 7, 1, 4, 8, 5, 2, 9]","(0, 0.25)",CHN009D,CHN,D,Chinese,Tue Oct 23 16:54:32 2018,Mouse
2,1,4,0,79,2,2,1,460,20,440,140,0,500,200,8000,"[(517, 381), (522, 377), (528, 373), (539, 366), (544, 363), (548, 362), (552, 359), (554, 355), (556, 354), (557, 351), (561, 347), (564, 338), (565, 335), (566, 329), (568, 324), (569, 316), (569, 314), (569, 312), (569, 309), (569, 308), (569, 308), (569, 307), (569, 307), (569, 305), (570, 302), (570, 301), (573, 297), (578, 285), (580, 278), (584, 270), (588, 259), (594, 240), (596, 229), (600, 222), (602, 215), (605, 204), (606, 201), (606, 199), (609, 196), (610, 192), (614, 189), (617, 186), (622, 183), (632, 175), (637, 171), (640, 166)]",300.4195796027962,"[6, 3, 7, 1, 4, 8, 5, 2, 9]","(0, 0.25)",CHN009D,CHN,D,Chinese,Tue Oct 23 16:54:32 2018,Mouse
2,1,4,0,80,5,5,1,410,210,200,139,0,500,200,8000,"[(512, 384), (512, 384), (512, 384), (512, 384), (512, 384), (512, 384), (512, 384), (512, 384), (512, 384), (512, 384), (512, 384), (512, 384), (512, 384), (512, 384), (512, 384), (512, 384), (512, 384), (512, 384), (512, 384), (512, 384), (512, 382), (510, 369), (507, 359), (505, 349), (505, 344), (502, 330), (501, 322), (501, 316), (501, 309), (501, 294), (501, 288), (501, 283), (501, 276), (501, 263), (501, 255), (500, 243), (497, 230), (488, 195), (481, 177), (475, 155), (469, 133)]",260.27875737464944,"[6, 3, 7, 1, 4, 8, 5, 2, 9]","(0, 0.25)",CHN009D,CHN,D,Chinese,Tue Oct 23 16:54:32 2018,Mouse
2,1,4,0,81,3,3,1,468,18,450,138,0,500,200,8000,"[(516, 386), (518, 388), (520, 390), (524, 393), (529, 396), (530, 397), (530, 397), (531, 397), (532, 397), (532, 397), (533, 397), (533, 397), (535, 398), (535, 398), (535, 398), (537, 398), (538, 400), (538, 400), (540, 401), (541, 401), (544, 403), (545, 404), (547, 405), (549, 408), (556, 412), (561, 415), (566, 417), (572, 421), (576, 423), (577, 424), (577, 424), (578, 425), (579, 425), (580, 427), (580, 427), (583, 431), (585, 435), (588, 441), (591, 445), (597, 456), (607, 479), (614, 492), (621, 510), (625, 525), (638, 555), (646, 574), (654, 592)]",55.67894719653514,"[6, 3, 7, 1, 4, 8, 5, 2, 9]","(0, 0.25)",CHN009D,CHN,D,Chinese,Tue Oct 23 16:54:32 2018,Mouse
2,1,4,0,82,8,6,0,-361,131,230,137,0,500,200,8000,"[(512, 384), (512, 384), (512, 384), (512, 384), (512, 384), (512, 384), (512, 384), (512, 384), (512, 384), (512, 384), (512, 384), (512, 384), (512, 384), (529, 386), (541, 392), (551, 395), (561, 401), (580, 406), (589, 411), (595, 414), (601, 418), (611, 424), (614, 425), (620, 428), (628, 433), (642, 438), (650, 443), (657, 444), (667, 449), (687, 458), (695, 460), (708, 464), (718, 466), (735, 472), (741, 476), (742, 477), (745, 478)]",21.970797845811603,"[6, 3, 7, 1, 4, 8, 5, 2, 9]","(0, 0.25)",CHN009D,CHN,D,Chinese,Tue Oct 23 16:54:32 2018,Mouse
2,1,4,0,83,2,2,1,320,20,300,138,0,500,200,8000,"[(507, 377), (503, 369), (501, 358), (499, 345), (499, 315), (499, 302), (500, 286), (507, 269), (512, 250), (512, 243), (515, 237), (517, 231), (520, 226), (520, 224), (521, 224), (522, 222), (522, 222), (522, 220), (522, 220), (523, 219), (524, 218), (525, 215), (528, 212), (531, 207), (547, 196), (558, 191), (566, 184), (574, 180), (592, 170), (601, 164), (611, 159), (621, 153)]",295.26081916410516,"[6, 3, 7, 1, 4, 8, 5, 2, 9]","(0, 0.25)",CHN009D,CHN,D,Chinese,Tue Oct 23 16:54:32 2018,Mouse
2,1,4,0,84,4,4,1,499,19,480,138,0,500,200,8000,"[(512, 384), (511, 387), (511, 388), (511, 388), (511, 389), (511, 392), (511, 393), (509, 395), (509, 395), (509, 398), (509, 398), (509, 399), (509, 400), (509, 402), (508, 402), (508, 404), (507, 407), (503, 413), (502, 417), (500, 421), (499, 423), (496, 429), (493, 432), (493, 433), (493, 434), (493, 435), (493, 435), (493, 435), (493, 435), (493, 435), (493, 435), (493, 435), (493, 435), (493, 435), (493, 435), (493, 435), (493, 435), (493, 435), (493, 435), (492, 435), (490, 435), (482, 435), (476, 433), (467, 433), (460, 431), (425, 426), (399, 423), (358, 416), (323, 411), (231, 397)]",177.3511942405414,"[6, 3, 7, 1, 4, 8, 5, 2, 9]","(0, 0.25)",CHN009D,CHN,D,Chinese,Tue Oct 23 16:54:32 2018,Mouse
2,1,4,0,85,6,6,1,280,20,260,137,0,500,200,8000,"[(519, 385), (527, 389), (535, 391), (548, 396), (555, 397), (560, 400), (569, 404), (580, 410), (587, 414), (591, 416), (597, 419), (601, 421), (605, 424), (606, 425), (608, 425), (611, 428), (616, 428), (618, 429), (623, 432), (635, 436), (645, 438), (656, 441), (667, 443), (697, 447), (718, 450), (736, 451), (750, 455), (779, 460)]",15.88869549438219,"[6, 3, 7, 1, 4, 8, 5, 2, 9]","(0, 0.25)",CHN009D,CHN,D,Chinese,Tue Oct 23 16:54:32 2018,Mouse
2,1,4,0,86,8,6,0,-2320,730,1590,136,0,500,200,8000,"[(512, 384), (512, 384), (512, 384), (512, 384), (512, 384), (512, 384), (512, 384), (512, 384), (512, 384), (512, 384), (512, 384), (512, 384), (512, 384), (512, 384), (512, 384), (512, 384), (512, 384), (512, 384), (512, 384), (512, 384), (512, 384), (512, 384), (512, 384), (512, 384), (512, 384), (512, 384), (512, 384), (512, 384), (512, 384), (512, 384), (512, 384), (512, 384), (512, 384), (512, 384), (512, 384), (512, 384), (512, 384), (512, 384), (512, 384), (512, 384), (512, 384), (512, 384), (512, 384), (512, 384), (512, 384), (512, 384), (512, 384), (512, 384), (512, 384), (512, 384), (512, 384), (512, 384), (512, 384), (512, 384), (512, 384), (512, 384), (512, 384), (512, 384), (512, 384), (512, 384), (512, 384), (512, 384), (512, 384), (512, 384), (512, 384), (512, 384), (512, 384), (512, 384), (512, 384), (512, 384), (512, 384), (512, 384), (511, 384), (511, 384), (511, 384), (511, 384), (511, 384), (511, 384), (511, 384), (511, 384), (511, 384), (511, 384), (511, 384), (511, 384), (511, 385), (511, 388), (511, 392), (517, 401), (522, 406), (526, 411), (533, 414), (544, 420), (550, 424), (556, 427), (565, 429), (582, 435), (592, 437), (603, 439), (612, 439), (630, 442), (643, 442), (655, 443), (669, 445), (693, 449), (706, 451), (717, 453), (725, 454), (735, 455), (738, 456), (738, 456), (738, 456), (738, 456), (738, 456), (738, 456), (738, 456), (738, 456), (738, 456), (738, 456), (738, 456), (738, 456), (738, 456), (738, 456), (738, 456), (738, 456), (738, 456), (738, 456), (738, 456), (738, 456), (738, 456), (738, 456), (738, 456), (738, 456), (738, 456), (738, 456), (738, 456), (738, 456), (738, 456), (738, 456), (738, 456), (738, 456), (738, 456), (738, 456), (738, 456), (738, 456), (738, 456), (738, 456), (738, 456), (738, 456), (738, 456), (738, 456), (738, 456), (738, 456), (738, 456), (738, 456), (738, 456), (738, 456), (738, 456), (738, 456), (738, 456), (738, 456), (738, 456), (738, 456), (738, 456), (738, 456), (738, 456), (738, 456), (738, 456), (738, 456), (738, 456), (738, 456), (738, 456), (738, 456), (738, 456), (738, 456), (738, 456), (738, 456), (738, 456), (738, 456), (738, 456), (738, 456), (738, 456), (738, 456), (738, 456), (738, 456), (738, 456), (738, 456), (738, 456), (738, 456), (738, 456), (738, 456), (738, 456), (738, 456), (738, 456), (738, 456), (738, 456), (738, 456), (738, 456), (738, 456), (738, 456), (738, 456), (738, 456), (738, 456), (738, 456), (738, 456), (738, 456), (738, 456), (738, 456), (738, 456), (738, 456), (738, 456), (738, 456), (738, 456), (738, 456), (738, 456), (738, 456), (738, 456), (738, 456), (738, 456), (738, 456), (738, 456), (738, 456), (738, 456), (738, 456), (738, 456), (738, 456), (738, 456), (738, 456), (738, 456), (738, 456), (738, 456), (742, 456), (754, 456)]",16.568829179599057,"[6, 3, 7, 1, 4, 8, 5, 2, 9]","(0, 0.25)",CHN009D,CHN,D,Chinese,Tue Oct 23 16:54:32 2018,Mouse
2,1,4,0,87,6,6,1,279,49,230,137,0,500,200,8000,"[(512, 384), (512, 384), (512, 384), (512, 384), (512, 386), (513, 388), (517, 390), (519, 392), (520, 392), (522, 393), (524, 394), (524, 394), (524, 394), (525, 394), (525, 394), (525, 394), (525, 394), (525, 394), (525, 394), (527, 394), (533, 394), (541, 398), (575, 408), (597, 414), (625, 420), (657, 424), (744, 443), (786, 456)]",14.722975061750223,"[6, 3, 7, 1, 4, 8, 5, 2, 9]","(0, 0.25)",CHN009D,CHN,D,Chinese,Tue Oct 23 16:54:32 2018,Mouse
2,1,4,0,88,2,2,1,430,170,260,137,0,500,200,8000,"[(512, 384), (512, 384), (512, 384), (512, 384), (512, 384), (512, 384), (512, 384), (512, 384), (512, 384), (512, 384), (512, 384), (512, 384), (512, 384), (512, 384), (512, 384), (512, 384), (512, 383), (512, 376), (513, 369), (513, 366), (515, 362), (516, 358), (520, 349), (522, 344), (524, 339), (526, 336), (533, 326), (535, 323), (538, 319), (540, 317), (545, 309), (547, 306), (549, 303), (552, 301), (557, 290), (561, 283), (565, 273), (571, 260), (578, 231), (584, 212), (591, 189), (598, 169), (613, 135)]",292.0785811020913,"[6, 3, 7, 1, 4, 8, 5, 2, 9]","(0, 0.25)",CHN009D,CHN,D,Chinese,Tue Oct 23 16:54:32 2018,Mouse
2,1,4,0,89,7,1,0,-679,139,540,136,0,500,200,8000,"[(512, 384), (512, 384), (512, 384), (512, 384), (512, 384), (512, 384), (512, 384), (512, 384), (512, 384), (512, 384), (512, 384), (512, 384), (512, 384), (512, 385), (512, 386), (512, 391), (512, 393), (512, 394), (513, 395), (513, 395), (513, 395), (513, 395), (513, 395), (513, 395), (513, 395), (513, 395), (513, 395), (513, 395), (513, 395), (513, 395), (513, 395), (513, 395), (513, 395), (513, 395), (513, 395), (513, 395), (513, 395), (513, 395), (513, 395), (513, 397), (512, 400), (504, 408), (495, 415), (462, 439), (447, 451), (434, 463), (425, 470), (408, 485), (401, 489), (395, 493), (392, 495), (383, 497), (381, 497), (378, 498), (375, 499), (372, 499), (371, 499), (371, 499), (369, 500), (368, 504), (366, 506), (365, 511), (365, 514), (361, 523), (359, 531), (356, 539), (354, 550), (344, 577)]",131.0384731174898,"[6, 3, 7, 1, 4, 8, 5, 2, 9]","(0, 0.25)",CHN009D,CHN,D,Chinese,Tue Oct 23 16:54:32 2018,Mouse
2,1,4,0,90,3,3,1,1049,29,1020,137,0,500,200,8000,"[(512, 384), (512, 384), (512, 383), (512, 383), (512, 383), (512, 383), (512, 383), (512, 383), (512, 383), (512, 383), (512, 383), (512, 383), (512, 383), (512, 383), (512, 383), (514, 383), (514, 380), (514, 380), (515, 380), (515, 379), (515, 379), (516, 379), (516, 379), (516, 379), (517, 378), (517, 378), (517, 378), (517, 378), (518, 378), (518, 378), (520, 377), (520, 377), (520, 377), (520, 377), (520, 377), (520, 377), (521, 377), (521, 377), (521, 377), (521, 377), (521, 377), (521, 377), (521, 377), (521, 377), (521, 377), (521, 377), (521, 377), (521, 377), (521, 377), (521, 377), (521, 377), (522, 377), (523, 377), (524, 377), (525, 377), (527, 377), (533, 374), (535, 373), (538, 372), (540, 371), (541, 370), (541, 370), (541, 370), (545, 371), (554, 390), (563, 406), (567, 418), (573, 433), (585, 467), (587, 477), (591, 487), (593, 492), (595, 497), (595, 497), (595, 497), (595, 497), (595, 497), (595, 497), (595, 497), (595, 497), (595, 497), (595, 497), (595, 497), (595, 497), (595, 497), (595, 497), (595, 497), (596, 498), (596, 500), (596, 500), (596, 501), (597, 504), (600, 511), (600, 515), (601, 522), (602, 529), (605, 548), (606, 558), (607, 568), (609, 576), (611, 590), (614, 596), (615, 603), (616, 608), (619, 619)]",65.51931716082372,"[6, 3, 7, 1, 4, 8, 5, 2, 9]","(0, 0.25)",CHN009D,CHN,D,Chinese,Tue Oct 23 16:54:32 2018,Mouse
2,1,4,0,91,8,6,0,-699,19,680,137,0,500,200,8000,"[(515, 384), (518, 384), (522, 384), (526, 382), (529, 381), (531, 381), (534, 381), (535, 380), (536, 379), (536, 379), (537, 379), (537, 379), (538, 379), (539, 379), (541, 379), (548, 379), (553, 379), (558, 379), (561, 379), (562, 379), (562, 379), (562, 379), (562, 379), (562, 379), (562, 379), (562, 379), (562, 379), (562, 379), (562, 379), (562, 379), (562, 379), (562, 379), (562, 379), (562, 379), (562, 379), (562, 379), (562, 379), (562, 379), (562, 379), (562, 379), (562, 379), (562, 379), (562, 379), (562, 379), (562, 379), (562, 379), (562, 379), (562, 379), (562, 379), (562, 379), (562, 379), (562, 379), (562, 379), (562, 379), (562, 379), (562, 379), (562, 379), (562, 379), (562, 379), (564, 379), (565, 380), (566, 381), (569, 386), (577, 392), (587, 398), (600, 404), (621, 415), (687, 440), (726, 453), (759, 461)]",17.314391869112516,"[6, 3, 7, 1, 4, 8, 5, 2, 9]","(0, 0.25)",CHN009D,CHN,D,Chinese,Tue Oct 23 16:54:32 2018,Mouse
2,1,4,0,92,9,9,1,2630,1320,1310,138,0,500,200,8000,"[(512, 384), (512, 384), (512, 384), (512, 384), (512, 384), (512, 384), (512, 384), (512, 384), (512, 384), (512, 384), (512, 384), (512, 384), (512, 384), (512, 384), (512, 384), (512, 384), (512, 384), (512, 384), (512, 384), (512, 384), (512, 384), (512, 384), (512, 384), (512, 384), (512, 384), (512, 384), (512, 384), (512, 384), (512, 384), (512, 384), (512, 384), (512, 384), (512, 384), (512, 384), (512, 384), (512, 384), (512, 384), (512, 384), (512, 384), (512, 384), (512, 384), (512, 384), (512, 384), (512, 384), (512, 384), (512, 384), (512, 384), (512, 384), (512, 384), (512, 384), (512, 384), (512, 384), (512, 384), (512, 384), (512, 384), (512, 384), (512, 384), (512, 384), (512, 384), (512, 384), (512, 384), (512, 384), (512, 384), (512, 384), (512, 384), (512, 384), (512, 384), (512, 384), (512, 384), (512, 384), (512, 384), (512, 384), (512, 384), (512, 384), (512, 384), (512, 384), (512, 384), (512, 384), (512, 384), (512, 384), (512, 384), (512, 384), (512, 384), (512, 384), (512, 384), (512, 384), (512, 384), (512, 384), (512, 384), (512, 384), (512, 384), (512, 384), (512, 384), (512, 384), (512, 384), (512, 384), (512, 384), (512, 384), (512, 384), (512, 384), (512, 384), (512, 384), (512, 384), (512, 384), (512, 384), (512, 384), (512, 384), (512, 384), (512, 384), (512, 384), (512, 384), (512, 384), (512, 384), (512, 384), (512, 384), (512, 384), (512, 384), (512, 384), (512, 384), (512, 384), (512, 384), (512, 384), (512, 384), (512, 384), (512, 384), (512, 384), (512, 384), (512, 384), (512, 384), (512, 384), (512, 384), (511, 384), (510, 384), (510, 384), (510, 384), (510, 384), (510, 384), (510, 384), (510, 384), (510, 384), (510, 384), (510, 384), (510, 384), (510, 384), (510, 384), (510, 384), (510, 384), (510, 384), (510, 384), (510, 384), (510, 384), (510, 384), (510, 384), (510, 384), (510, 384), (510, 384), (510, 384), (508, 383), (508, 383), (508, 383), (508, 382), (508, 382), (508, 381), (508, 380), (508, 380), (508, 380), (508, 379), (508, 379), (508, 377), (508, 376), (505, 373), (505, 370), (505, 364), (505, 359), (505, 354), (505, 348), (505, 343), (505, 341), (505, 337), (505, 335), (506, 332), (507, 328), (508, 327), (509, 326), (511, 324), (513, 323), (514, 323), (516, 322), (521, 322), (524, 322), (529, 322), (536, 322), (546, 322), (550, 322), (554, 322), (557, 322), (561, 321), (563, 320), (565, 318), (565, 318), (566, 317), (567, 316), (567, 316), (567, 316), (567, 312), (565, 309), (562, 304), (558, 301), (551, 290), (547, 280), (541, 270), (533, 259), (516, 233), (512, 221), (507, 211), (503, 201), (498, 189), (496, 184), (495, 180), (494, 177), (494, 176), (494, 176), (494, 176), (494, 176), (494, 176), (494, 176), (494, 176), (494, 176), (494, 176), (494, 176), (494, 176), (494, 177), (496, 188), (499, 194), (501, 200), (503, 207), (512, 218), (517, 228), (520, 238), (522, 248), (526, 261), (527, 265), (528, 268), (528, 269), (529, 271), (529, 271), (529, 271), (529, 271), (532, 277), (535, 281), (540, 286), (546, 290), (561, 302), (575, 312), (586, 316), (596, 320), (627, 326), (649, 330), (673, 333), (688, 333), (724, 333), (743, 328), (763, 323)]",346.34034308714604,"[6, 3, 7, 1, 4, 8, 5, 2, 9]","(0, 0.25)",CHN009D,CHN,D,Chinese,Tue Oct 23 16:54:32 2018,Mouse
2,1,4,0,93,9,9,1,591,221,370,138,0,500,200,8000,"[(512, 384), (512, 384), (512, 384), (512, 384), (512, 384), (512, 384), (512, 384), (512, 384), (512, 384), (512, 384), (512, 384), (512, 384), (512, 384), (512, 384), (512, 384), (512, 384), (512, 384), (512, 384), (512, 384), (512, 384), (512, 384), (512, 384), (511, 384), (509, 385), (505, 387), (498, 390), (490, 392), (485, 394), (482, 394), (481, 395), (479, 396), (479, 396), (479, 396), (479, 396), (479, 396), (479, 396), (479, 396), (479, 396), (479, 396), (479, 396), (479, 396), (479, 396), (479, 396), (479, 396), (479, 396), (482, 395), (506, 383), (523, 378), (539, 372), (557, 363), (582, 356), (594, 352), (609, 347), (624, 345), (672, 337), (685, 335), (702, 332), (720, 331), (749, 320), (758, 316)]",344.5479893588703,"[6, 3, 7, 1, 4, 8, 5, 2, 9]","(0, 0.25)",CHN009D,CHN,D,Chinese,Tue Oct 23 16:54:32 2018,Mouse
2,1,4,0,94,3,3,1,740,40,700,137,0,500,200,8000,"[(512, 384), (512, 384), (512, 384), (511, 384), (510, 384), (508, 384), (504, 384), (504, 384), (501, 385), (501, 385), (498, 386), (494, 388), (491, 389), (487, 392), (480, 397), (477, 400), (474, 402), (473, 403), (470, 404), (470, 404), (469, 404), (469, 404), (469, 404), (469, 404), (469, 404), (469, 404), (469, 404), (469, 404), (469, 404), (469, 404), (469, 404), (469, 404), (469, 404), (470, 404), (475, 397), (479, 393), (480, 392), (481, 391), (481, 391), (481, 391), (482, 391), (483, 391), (491, 391), (499, 400), (508, 411), (517, 422), (534, 441), (541, 451), (545, 457), (550, 465), (556, 474), (559, 478), (560, 479), (560, 481), (560, 481), (560, 481), (560, 481), (560, 481), (560, 481), (560, 481), (560, 481), (560, 481), (560, 481), (560, 481), (560, 481), (560, 481), (565, 485), (571, 489), (578, 496), (585, 505), (614, 540), (632, 563), (649, 589), (670, 619)]",56.085464358920134,"[6, 3, 7, 1, 4, 8, 5, 2, 9]","(0, 0.25)",CHN009D,CHN,D,Chinese,Tue Oct 23 16:54:32 2018,Mouse
