NativeLangNumber,LanuageNumber,SessionNumber,Block,TrialNum,ConditionNumber,Response,Accuracy,RT,MovementOnsetTime,TimeInMotion,SignalContrast,SignalContrastNumber,StimDisplayTime,MaskTime,MaxResponseTime,MousePositionXY,MouseAngle,WheelOrder,NoiseMuSigma,ParticipantID,LanuageTested,SessionTested,NativeLanuage,Date,ResponseDevice
1,3,3,0,1,7,7,1,488,78,410,153,0,500,200,8000,"[(960, 540), (960, 540), (960, 540), (960, 540), (960, 540), (960, 540), (960, 540), (956, 541), (953, 544), (951, 545), (948, 548), (941, 555), (939, 559), (935, 564), (933, 567), (930, 574), (925, 581), (919, 592), (914, 600), (903, 619), (898, 628), (895, 634), (890, 641), (879, 662), (875, 673), (872, 684), (868, 694), (862, 716), (859, 726), (857, 737), (853, 750), (851, 769), (851, 777), (850, 784), (848, 794), (846, 810), (845, 818), (843, 828), (842, 841), (842, 859), (842, 870), (842, 879), (842, 888), (841, 898), (841, 903), (839, 908), (837, 911), (834, 916), (832, 921)]",108.57018644631471,"[4, 5, 7, 3, 1, 2, 8, 9, 6]","(0, 0.25)",DOT007C,DOT,C,English,Fri Aug 24 13:11:16 2018,Mouse
1,3,3,0,2,9,9,1,291,11,280,153,0,500,200,8000,"[(960, 540), (967, 532), (976, 521), (981, 516), (986, 510), (991, 504), (1000, 497), (1003, 493), (1006, 490), (1009, 487), (1011, 484), (1012, 481), (1013, 477), (1014, 473), (1019, 457), (1024, 447), (1032, 433), (1041, 420), (1054, 398), (1059, 387), (1065, 377), (1072, 364), (1084, 336), (1087, 322), (1093, 300), (1096, 279), (1104, 223), (1108, 201), (1116, 176), (1119, 162)]",292.81332210655205,"[4, 5, 7, 3, 1, 2, 8, 9, 6]","(0, 0.25)",DOT007C,DOT,C,English,Fri Aug 24 13:11:16 2018,Mouse
1,3,3,0,3,1,1,1,570,120,450,152,0,500,200,8000,"[(960, 540), (960, 540), (960, 540), (960, 540), (960, 540), (960, 540), (960, 540), (960, 540), (960, 540), (960, 540), (960, 540), (959, 540), (959, 540), (959, 540), (959, 540), (959, 540), (959, 540), (959, 540), (959, 540), (959, 540), (959, 540), (959, 540), (959, 540), (959, 540), (959, 540), (958, 540), (958, 540), (958, 540), (958, 540), (958, 540), (958, 540), (957, 540), (957, 540), (957, 540), (957, 540), (957, 540), (957, 540), (957, 540), (957, 540), (957, 540), (957, 540), (957, 540), (957, 540), (955, 540), (952, 540), (947, 540), (940, 540), (922, 540), (911, 540), (895, 540), (872, 540), (808, 540), (767, 540), (714, 540), (672, 538), (580, 538), (547, 538)]",180.2774592331225,"[4, 5, 7, 3, 1, 2, 8, 9, 6]","(0, 0.25)",DOT007C,DOT,C,English,Fri Aug 24 13:11:16 2018,Mouse
1,3,3,0,4,5,5,1,460,20,440,151,0,500,200,8000,"[(961, 541), (961, 542), (961, 542), (961, 542), (962, 543), (962, 544), (963, 544), (963, 545), (963, 546), (965, 548), (967, 549), (967, 550), (969, 551), (971, 554), (972, 554), (972, 555), (973, 555), (974, 557), (974, 557), (975, 558), (975, 559), (976, 560), (977, 561), (977, 561), (977, 561), (978, 562), (979, 563), (980, 563), (982, 566), (988, 570), (993, 573), (999, 577), (1005, 581), (1013, 588), (1015, 590), (1019, 597), (1023, 605), (1043, 648), (1057, 680), (1069, 709), (1086, 747), (1115, 818), (1129, 850), (1139, 876), (1144, 893), (1151, 918)]",63.19294063378546,"[4, 5, 7, 3, 1, 2, 8, 9, 6]","(0, 0.25)",DOT007C,DOT,C,English,Fri Aug 24 13:11:16 2018,Mouse
1,3,3,0,5,7,7,1,331,11,320,150,0,500,200,8000,"[(960, 540), (962, 543), (963, 549), (965, 566), (965, 577), (965, 593), (965, 616), (965, 649), (965, 659), (965, 667), (965, 676), (965, 696), (965, 704), (963, 714), (963, 722), (962, 746), (961, 759), (957, 772), (955, 781), (952, 793), (950, 798), (950, 804), (949, 810), (945, 824), (942, 830), (940, 837), (936, 847), (928, 867), (922, 876), (918, 885), (912, 897), (903, 921), (900, 931), (894, 940)]",99.36938509648748,"[4, 5, 7, 3, 1, 2, 8, 9, 6]","(0, 0.25)",DOT007C,DOT,C,English,Fri Aug 24 13:11:16 2018,Mouse
1,3,3,0,6,6,6,1,701,221,480,149,0,500,200,8000,"[(960, 540), (960, 540), (960, 540), (960, 540), (960, 540), (960, 540), (960, 540), (960, 540), (960, 540), (960, 540), (960, 540), (960, 540), (960, 540), (960, 540), (960, 540), (960, 540), (960, 540), (960, 540), (960, 540), (960, 540), (960, 540), (960, 540), (961, 540), (961, 540), (962, 540), (963, 540), (963, 540), (963, 540), (963, 540), (967, 540), (970, 540), (973, 540), (977, 540), (989, 540), (992, 540), (997, 540), (1001, 540), (1007, 539), (1009, 539), (1013, 538), (1017, 537), (1037, 534), (1049, 529), (1061, 526), (1073, 520), (1099, 508), (1111, 504), (1122, 498), (1132, 494), (1159, 486), (1175, 481), (1197, 475), (1216, 472), (1243, 462), (1252, 458), (1258, 455), (1261, 451), (1264, 448), (1266, 443), (1274, 434), (1278, 429), (1291, 413), (1295, 409), (1299, 400), (1302, 397), (1305, 393), (1306, 391), (1308, 390), (1309, 389), (1321, 381), (1331, 375)]",336.0231834989605,"[4, 5, 7, 3, 1, 2, 8, 9, 6]","(0, 0.25)",DOT007C,DOT,C,English,Fri Aug 24 13:11:16 2018,Mouse
1,3,3,0,7,7,7,1,399,59,340,148,0,500,200,8000,"[(960, 540), (960, 540), (960, 540), (960, 540), (960, 540), (959, 543), (959, 547), (959, 550), (959, 554), (959, 561), (959, 565), (960, 570), (962, 575), (963, 583), (965, 590), (965, 595), (965, 605), (963, 630), (959, 641), (954, 652), (948, 664), (936, 693), (929, 708), (925, 719), (921, 728), (916, 740), (914, 750), (911, 759), (907, 769), (900, 789), (895, 800), (891, 815), (887, 827), (877, 849), (872, 860), (862, 874), (857, 884), (848, 909), (848, 917), (845, 925)]",106.63095370672143,"[4, 5, 7, 3, 1, 2, 8, 9, 6]","(0, 0.25)",DOT007C,DOT,C,English,Fri Aug 24 13:11:16 2018,Mouse
1,3,3,0,8,3,3,1,510,130,380,147,0,500,200,8000,"[(960, 540), (960, 540), (960, 540), (960, 540), (960, 540), (960, 540), (960, 540), (960, 540), (960, 540), (960, 540), (960, 540), (960, 540), (960, 541), (960, 541), (960, 541), (960, 542), (960, 542), (960, 542), (960, 542), (960, 542), (960, 542), (960, 543), (960, 543), (960, 543), (957, 545), (956, 546), (954, 547), (953, 549), (949, 550), (948, 551), (947, 552), (946, 552), (942, 555), (938, 557), (932, 560), (925, 565), (903, 578), (893, 586), (881, 594), (871, 603), (856, 617), (848, 623), (846, 628), (842, 637), (836, 662), (828, 687), (817, 721), (795, 754), (752, 813), (731, 835), (708, 855)]",128.6598082540901,"[4, 5, 7, 3, 1, 2, 8, 9, 6]","(0, 0.25)",DOT007C,DOT,C,English,Fri Aug 24 13:11:16 2018,Mouse
1,3,3,0,9,7,7,1,350,30,320,146,0,500,200,8000,"[(960, 542), (960, 542), (960, 543), (959, 545), (958, 549), (957, 555), (955, 560), (955, 568), (955, 597), (955, 619), (955, 639), (955, 658), (952, 702), (948, 718), (945, 731), (940, 742), (930, 757), (930, 764), (930, 773), (930, 784), (930, 805), (930, 811), (929, 820), (926, 827), (918, 839), (910, 847), (901, 854), (891, 864), (876, 881), (871, 890), (868, 898), (865, 907), (863, 920), (861, 924), (860, 929)]",104.41682577791248,"[4, 5, 7, 3, 1, 2, 8, 9, 6]","(0, 0.25)",DOT007C,DOT,C,English,Fri Aug 24 13:11:16 2018,Mouse
1,3,3,0,10,7,7,1,290,20,270,145,0,500,200,8000,"[(960, 556), (960, 565), (961, 574), (963, 584), (966, 604), (967, 617), (967, 631), (967, 643), (967, 667), (963, 679), (960, 690), (956, 700), (950, 718), (948, 725), (945, 737), (943, 745), (935, 771), (930, 785), (923, 803), (912, 824), (903, 848), (898, 859), (894, 866), (890, 875), (887, 888), (885, 895), (884, 904), (882, 916), (879, 932)]",101.67486880975086,"[4, 5, 7, 3, 1, 2, 8, 9, 6]","(0, 0.25)",DOT007C,DOT,C,English,Fri Aug 24 13:11:16 2018,Mouse
1,3,3,0,11,2,2,1,540,20,520,144,0,500,200,8000,"[(960, 540), (959, 540), (959, 541), (959, 541), (958, 541), (958, 541), (958, 541), (958, 541), (958, 541), (958, 541), (958, 541), (958, 541), (957, 542), (956, 542), (955, 542), (954, 542), (953, 542), (951, 542), (943, 542), (937, 542), (927, 542), (917, 542), (894, 542), (882, 542), (870, 542), (856, 542), (835, 542), (826, 542), (817, 542), (811, 542), (799, 542), (793, 542), (788, 542), (784, 542), (775, 542), (770, 541), (765, 537), (761, 532), (753, 515), (750, 506), (745, 496), (743, 487), (741, 463), (741, 450), (741, 438), (741, 425), (739, 396), (733, 377), (725, 354), (715, 335), (691, 292), (681, 280), (670, 267), (660, 258)]",223.2285302599659,"[4, 5, 7, 3, 1, 2, 8, 9, 6]","(0, 0.25)",DOT007C,DOT,C,English,Fri Aug 24 13:11:16 2018,Mouse
1,3,3,0,12,8,8,1,282,11,271,143,0,500,200,8000,"[(960, 540), (960, 538), (960, 534), (961, 531), (964, 521), (965, 515), (966, 509), (966, 502), (970, 493), (970, 490), (970, 487), (972, 482), (972, 467), (972, 454), (972, 439), (972, 420), (972, 367), (972, 339), (974, 314), (974, 297), (976, 267), (976, 257), (976, 244), (976, 231), (971, 198), (967, 179), (963, 165), (960, 151), (958, 129)]",269.72119062155525,"[4, 5, 7, 3, 1, 2, 8, 9, 6]","(0, 0.25)",DOT007C,DOT,C,English,Fri Aug 24 13:11:16 2018,Mouse
1,3,3,0,13,8,8,1,300,20,280,142,0,500,200,8000,"[(954, 522), (951, 506), (935, 460), (927, 432), (922, 413), (916, 390), (907, 356), (904, 345), (903, 334), (902, 325), (896, 304), (893, 294), (890, 282), (886, 272), (884, 257), (882, 252), (882, 248), (882, 245), (882, 237), (882, 232), (882, 227), (882, 217), (882, 199), (882, 187), (882, 178), (882, 169), (882, 158), (882, 154), (883, 148), (884, 142)]",259.18924368152983,"[4, 5, 7, 3, 1, 2, 8, 9, 6]","(0, 0.25)",DOT007C,DOT,C,English,Fri Aug 24 13:11:16 2018,Mouse
1,3,3,0,14,5,5,1,439,19,420,141,0,500,200,8000,"[(961, 540), (962, 541), (966, 543), (969, 546), (974, 550), (979, 554), (985, 560), (995, 568), (1000, 572), (1001, 574), (1006, 576), (1009, 579), (1011, 581), (1016, 586), (1021, 590), (1032, 597), (1039, 602), (1046, 606), (1056, 611), (1073, 621), (1076, 624), (1077, 624), (1077, 625), (1079, 626), (1080, 627), (1082, 630), (1087, 634), (1097, 640), (1103, 646), (1112, 655), (1120, 664), (1130, 686), (1137, 693), (1138, 699), (1141, 708), (1149, 728), (1153, 741), (1159, 755), (1165, 775), (1172, 815), (1172, 832), (1172, 849), (1172, 864), (1172, 894)]",59.08387087134813,"[4, 5, 7, 3, 1, 2, 8, 9, 6]","(0, 0.25)",DOT007C,DOT,C,English,Fri Aug 24 13:11:16 2018,Mouse
1,3,3,0,15,6,6,1,441,31,410,140,0,500,200,8000,"[(960, 540), (960, 540), (960, 540), (961, 540), (962, 540), (962, 540), (963, 540), (963, 540), (964, 540), (965, 540), (966, 540), (967, 540), (968, 540), (969, 540), (970, 540), (971, 539), (972, 538), (972, 538), (973, 537), (975, 535), (976, 535), (977, 535), (979, 534), (982, 532), (983, 532), (985, 531), (988, 529), (991, 528), (993, 527), (996, 527), (999, 525), (1011, 520), (1021, 514), (1031, 506), (1043, 497), (1071, 471), (1087, 458), (1100, 448), (1116, 437), (1152, 424), (1183, 420), (1218, 415), (1261, 411), (1321, 396), (1344, 390)]",338.66314070819436,"[4, 5, 7, 3, 1, 2, 8, 9, 6]","(0, 0.25)",DOT007C,DOT,C,English,Fri Aug 24 13:11:16 2018,Mouse
1,3,3,0,16,7,7,1,329,19,310,139,0,500,200,8000,"[(958, 543), (953, 556), (951, 565), (948, 576), (945, 586), (939, 608), (934, 622), (930, 636), (927, 647), (921, 677), (918, 690), (913, 700), (910, 710), (900, 735), (895, 746), (892, 760), (888, 770), (882, 783), (880, 787), (875, 794), (873, 799), (867, 819), (863, 826), (858, 839), (853, 850), (845, 864), (841, 871), (837, 877), (834, 885), (828, 895), (827, 904), (826, 909), (822, 916)]",110.15421115684555,"[4, 5, 7, 3, 1, 2, 8, 9, 6]","(0, 0.25)",DOT007C,DOT,C,English,Fri Aug 24 13:11:16 2018,Mouse
1,3,3,0,17,2,2,1,651,31,620,138,0,500,200,8000,"[(960, 540), (960, 540), (960, 540), (959, 540), (959, 540), (959, 540), (957, 540), (957, 540), (955, 540), (955, 540), (955, 540), (955, 540), (955, 540), (955, 540), (955, 540), (955, 540), (954, 540), (953, 540), (953, 540), (952, 540), (951, 541), (951, 541), (950, 541), (950, 541), (949, 541), (947, 541), (946, 542), (944, 542), (940, 543), (939, 544), (936, 546), (936, 546), (934, 546), (934, 546), (933, 546), (933, 546), (932, 547), (932, 547), (931, 547), (929, 547), (923, 547), (921, 547), (916, 546), (914, 543), (908, 537), (905, 534), (900, 528), (897, 520), (882, 496), (874, 484), (863, 474), (852, 462), (838, 443), (829, 435), (821, 427), (814, 421), (793, 403), (777, 389), (751, 364), (725, 344), (683, 317), (670, 310), (660, 308), (650, 304), (642, 303), (637, 301)]",216.49914864743457,"[4, 5, 7, 3, 1, 2, 8, 9, 6]","(0, 0.25)",DOT007C,DOT,C,English,Fri Aug 24 13:11:16 2018,Mouse
1,3,3,0,18,6,4,0,-2222,31,2191,137,0,500,200,8000,"[(960, 540), (960, 540), (960, 540), (961, 541), (962, 541), (962, 541), (962, 541), (963, 541), (963, 541), (963, 541), (964, 541), (964, 541), (964, 541), (964, 541), (964, 542), (964, 542), (965, 542), (965, 542), (967, 542), (967, 542), (967, 542), (968, 542), (968, 542), (968, 542), (968, 542), (968, 542), (970, 542), (970, 542), (971, 542), (972, 542), (976, 542), (980, 542), (980, 542), (981, 542), (981, 542), (981, 542), (981, 542), (981, 542), (981, 542), (981, 542), (981, 542), (981, 542), (981, 542), (981, 542), (981, 542), (981, 542), (981, 542), (981, 542), (981, 542), (982, 542), (982, 542), (982, 542), (982, 542), (982, 542), (982, 542), (983, 542), (983, 542), (983, 542), (983, 542), (983, 542), (983, 542), (983, 542), (983, 542), (983, 542), (983, 542), (983, 542), (984, 542), (985, 542), (985, 542), (986, 543), (986, 543), (987, 543), (987, 544), (987, 544), (988, 546), (988, 547), (988, 547), (989, 549), (989, 551), (989, 551), (989, 552), (989, 553), (990, 554), (990, 555), (990, 556), (990, 557), (991, 559), (991, 559), (991, 560), (991, 560), (991, 561), (991, 561), (991, 561), (991, 561), (991, 561), (991, 561), (991, 561), (991, 561), (991, 561), (991, 561), (994, 559), (997, 550), (1004, 533), (1009, 523), (1012, 515), (1015, 506), (1020, 489), (1020, 477), (1023, 461), (1027, 442), (1032, 395), (1036, 366), (1043, 333), (1044, 305), (1050, 259), (1055, 243), (1058, 230), (1061, 220), (1067, 206), (1069, 202), (1070, 200), (1071, 199), (1072, 198), (1072, 198), (1072, 198), (1072, 198), (1072, 198), (1072, 198), (1072, 200), (1071, 203), (1070, 207), (1068, 210), (1067, 211), (1066, 213), (1063, 218), (1062, 220), (1061, 220), (1061, 221), (1060, 223), (1059, 225), (1058, 226), (1058, 227), (1056, 229), (1055, 231), (1055, 232), (1053, 234), (1051, 236), (1051, 236), (1050, 237), (1050, 238), (1048, 240), (1048, 240), (1047, 241), (1046, 242), (1045, 244), (1042, 247), (1040, 250), (1039, 251), (1033, 262), (1032, 268), (1029, 274), (1028, 280), (1027, 295), (1025, 303), (1024, 309), (1023, 316), (1022, 330), (1022, 338), (1022, 344), (1022, 351), (1022, 373), (1024, 384), (1026, 395), (1027, 403), (1036, 429), (1038, 438), (1045, 453), (1052, 468), (1069, 507), (1078, 528), (1085, 541), (1092, 556), (1099, 575), (1103, 581), (1106, 586), (1107, 589), (1109, 596), (1110, 598), (1112, 602), (1114, 606), (1116, 613), (1119, 618), (1120, 624), (1121, 630), (1124, 641), (1125, 647), (1125, 650), (1126, 652), (1129, 661), (1130, 664), (1130, 664), (1130, 665), (1130, 665), (1130, 665), (1130, 665), (1131, 665), (1135, 665), (1137, 663), (1139, 662), (1143, 658), (1149, 654), (1152, 653), (1157, 649), (1163, 646), (1185, 637), (1195, 633), (1208, 633), (1220, 632), (1253, 632), (1276, 632), (1308, 636), (1340, 641), (1402, 651)]",14.097228840864808,"[4, 5, 7, 3, 1, 2, 8, 9, 6]","(0, 0.25)",DOT007C,DOT,C,English,Fri Aug 24 13:11:16 2018,Mouse
1,3,3,0,19,7,7,1,310,20,290,138,0,500,200,8000,"[(959, 540), (958, 540), (958, 540), (958, 540), (958, 540), (957, 541), (956, 541), (952, 544), (948, 548), (943, 553), (931, 564), (922, 573), (916, 580), (911, 588), (904, 602), (899, 609), (898, 615), (894, 622), (890, 638), (888, 649), (885, 659), (884, 667), (870, 720), (867, 749), (867, 774), (867, 802), (871, 844), (872, 856), (874, 873), (877, 890), (883, 934)]",101.05802300018519,"[4, 5, 7, 3, 1, 2, 8, 9, 6]","(0, 0.25)",DOT007C,DOT,C,English,Fri Aug 24 13:11:16 2018,Mouse
1,3,3,0,20,6,6,1,819,59,760,138,0,500,200,8000,"[(960, 540), (960, 540), (960, 540), (960, 540), (960, 540), (961, 540), (963, 542), (964, 544), (965, 547), (966, 549), (967, 550), (967, 551), (968, 552), (968, 552), (968, 552), (969, 552), (970, 554), (971, 556), (977, 562), (981, 566), (983, 568), (986, 571), (988, 573), (989, 574), (990, 574), (990, 575), (991, 575), (991, 576), (992, 577), (992, 577), (992, 579), (993, 579), (993, 580), (993, 580), (995, 582), (996, 582), (998, 582), (1002, 582), (1018, 582), (1028, 582), (1040, 578), (1049, 575), (1073, 569), (1080, 567), (1086, 565), (1094, 560), (1109, 556), (1121, 554), (1132, 554), (1143, 553), (1166, 553), (1173, 551), (1177, 550), (1181, 549), (1186, 545), (1189, 541), (1192, 537), (1194, 532), (1204, 517), (1211, 507), (1217, 497), (1225, 487), (1233, 475), (1236, 472), (1237, 471), (1237, 470), (1239, 469), (1239, 468), (1241, 467), (1242, 466), (1246, 465), (1247, 463), (1250, 462), (1255, 460), (1270, 458), (1279, 457), (1287, 456), (1297, 455), (1319, 447), (1330, 444), (1345, 438), (1367, 424)]",344.0917970698433,"[4, 5, 7, 3, 1, 2, 8, 9, 6]","(0, 0.25)",DOT007C,DOT,C,English,Fri Aug 24 13:11:16 2018,Mouse
1,3,3,0,21,3,3,1,660,20,640,137,0,500,200,8000,"[(959, 540), (957, 540), (957, 540), (956, 540), (956, 540), (955, 540), (955, 540), (954, 540), (954, 540), (953, 540), (951, 540), (949, 540), (948, 540), (947, 540), (946, 540), (943, 541), (943, 541), (943, 541), (942, 541), (938, 542), (936, 542), (933, 542), (929, 542), (920, 542), (913, 542), (906, 542), (896, 542), (877, 542), (868, 542), (858, 542), (848, 542), (837, 542), (834, 542), (834, 542), (832, 542), (832, 542), (832, 542), (832, 542), (832, 542), (832, 542), (831, 543), (831, 544), (831, 545), (831, 550), (831, 553), (831, 557), (831, 560), (831, 570), (831, 579), (831, 591), (831, 606), (823, 642), (816, 659), (809, 671), (800, 680), (783, 697), (772, 706), (763, 713), (753, 720), (733, 735), (724, 742), (714, 751), (704, 760), (676, 782), (662, 791), (644, 804)]",140.12316553712816,"[4, 5, 7, 3, 1, 2, 8, 9, 6]","(0, 0.25)",DOT007C,DOT,C,English,Fri Aug 24 13:11:16 2018,Mouse
1,3,3,0,22,7,7,1,470,20,450,136,0,500,200,8000,"[(959, 540), (959, 541), (959, 543), (959, 543), (959, 546), (959, 546), (959, 547), (959, 548), (959, 550), (959, 553), (959, 557), (961, 561), (964, 574), (964, 582), (966, 591), (967, 598), (968, 617), (969, 625), (971, 635), (972, 645), (972, 660), (972, 667), (972, 675), (972, 679), (972, 685), (972, 687), (972, 688), (972, 691), (972, 695), (972, 698), (972, 702), (972, 709), (971, 724), (968, 737), (963, 749), (958, 762), (953, 786), (952, 803), (952, 816), (952, 833), (952, 863), (957, 879), (960, 891), (963, 903), (964, 924), (964, 930), (964, 949)]",89.43966794243231,"[4, 5, 7, 3, 1, 2, 8, 9, 6]","(0, 0.25)",DOT007C,DOT,C,English,Fri Aug 24 13:11:16 2018,Mouse
1,3,3,0,23,1,1,1,490,200,290,135,0,500,200,8000,"[(960, 540), (960, 540), (960, 540), (960, 540), (960, 540), (960, 540), (960, 540), (960, 540), (960, 540), (960, 540), (960, 540), (960, 540), (960, 540), (960, 540), (960, 540), (960, 540), (960, 540), (960, 540), (960, 540), (959, 540), (957, 540), (957, 540), (955, 538), (953, 538), (949, 535), (946, 533), (946, 533), (944, 531), (942, 530), (942, 530), (940, 530), (939, 530), (933, 530), (931, 530), (927, 530), (919, 530), (900, 530), (883, 530), (861, 530), (841, 530), (799, 530), (779, 530), (762, 530), (746, 530), (701, 541), (663, 548), (629, 552), (589, 557), (522, 566)]",176.60286708066025,"[4, 5, 7, 3, 1, 2, 8, 9, 6]","(0, 0.25)",DOT007C,DOT,C,English,Fri Aug 24 13:11:16 2018,Mouse
1,3,3,0,24,1,1,1,169,19,150,134,0,500,200,8000,"[(943, 540), (929, 540), (901, 540), (889, 540), (875, 540), (862, 540), (835, 540), (816, 538), (788, 538), (760, 538), (707, 538), (676, 538), (654, 538), (631, 538), (585, 536), (563, 536), (542, 533)]",180.95940902039604,"[4, 5, 7, 3, 1, 2, 8, 9, 6]","(0, 0.25)",DOT007C,DOT,C,English,Fri Aug 24 13:11:16 2018,Mouse
1,3,3,0,25,4,4,1,592,422,170,133,0,500,200,8000,"[(960, 540), (960, 540), (960, 540), (960, 540), (960, 540), (960, 540), (960, 540), (960, 540), (960, 540), (960, 540), (960, 540), (960, 540), (960, 540), (960, 540), (960, 540), (960, 540), (960, 540), (960, 540), (960, 540), (960, 540), (960, 540), (960, 540), (960, 540), (960, 540), (960, 540), (960, 540), (960, 540), (960, 540), (960, 540), (960, 540), (960, 540), (960, 540), (960, 540), (960, 540), (960, 540), (960, 540), (960, 540), (960, 540), (960, 540), (960, 540), (960, 540), (960, 540), (961, 540), (966, 540), (973, 541), (985, 542), (990, 543), (996, 546), (1004, 547), (1024, 553), (1038, 557), (1054, 562), (1073, 566), (1141, 580), (1182, 587), (1219, 591), (1254, 596), (1318, 606), (1342, 609), (1363, 613)]",10.267308291446628,"[4, 5, 7, 3, 1, 2, 8, 9, 6]","(0, 0.25)",DOT007C,DOT,C,English,Fri Aug 24 13:11:16 2018,Mouse
1,3,3,0,26,4,4,1,729,269,460,132,0,500,200,8000,"[(960, 540), (960, 540), (960, 540), (960, 540), (960, 540), (960, 540), (960, 540), (960, 540), (960, 540), (960, 540), (960, 540), (960, 540), (960, 540), (960, 540), (960, 540), (960, 540), (960, 540), (960, 540), (960, 540), (960, 540), (960, 540), (960, 540), (960, 540), (960, 540), (960, 540), (960, 540), (961, 540), (964, 540), (969, 542), (974, 542), (975, 543), (976, 544), (983, 545), (990, 547), (998, 550), (1008, 554), (1059, 564), (1086, 569), (1115, 572), (1139, 578), (1191, 588), (1210, 593), (1230, 599), (1243, 601), (1271, 609), (1284, 612), (1295, 613), (1306, 616), (1316, 618), (1319, 618), (1321, 618), (1322, 618), (1323, 618), (1323, 618), (1323, 618), (1323, 618), (1323, 618), (1323, 618), (1323, 618), (1323, 618), (1323, 618), (1323, 618), (1323, 618), (1323, 618), (1323, 618), (1323, 619), (1324, 620), (1325, 620), (1328, 622), (1330, 624), (1335, 628), (1341, 630), (1361, 640)]",14.002619188034716,"[4, 5, 7, 3, 1, 2, 8, 9, 6]","(0, 0.25)",DOT007C,DOT,C,English,Fri Aug 24 13:11:16 2018,Mouse
1,3,3,0,27,4,5,0,-450,200,250,131,0,500,200,8000,"[(960, 540), (960, 540), (960, 540), (960, 540), (960, 540), (960, 540), (960, 540), (960, 540), (960, 540), (960, 540), (960, 540), (960, 540), (960, 540), (960, 540), (960, 540), (960, 540), (960, 540), (960, 540), (960, 540), (960, 541), (965, 547), (971, 552), (976, 558), (977, 561), (978, 562), (979, 564), (980, 566), (982, 567), (983, 569), (985, 573), (997, 585), (1004, 596), (1010, 610), (1018, 626), (1028, 651), (1032, 662), (1033, 671), (1035, 678), (1039, 690), (1044, 698), (1051, 711), (1063, 731), (1105, 807), (1134, 859), (1164, 921)]",61.833930820679164,"[4, 5, 7, 3, 1, 2, 8, 9, 6]","(0, 0.25)",DOT007C,DOT,C,English,Fri Aug 24 13:11:16 2018,Mouse
1,3,3,0,28,4,4,1,181,71,110,132,0,500,200,8000,"[(960, 540), (960, 540), (960, 540), (960, 540), (960, 540), (960, 540), (960, 540), (964, 544), (973, 546), (1002, 553), (1022, 560), (1055, 569), (1088, 576), (1170, 595), (1208, 602), (1245, 606), (1289, 613), (1350, 621), (1377, 626)]",11.653016873543741,"[4, 5, 7, 3, 1, 2, 8, 9, 6]","(0, 0.25)",DOT007C,DOT,C,English,Fri Aug 24 13:11:16 2018,Mouse
1,3,3,0,29,9,5,0,-520,90,430,132,0,500,200,8000,"[(960, 540), (960, 540), (960, 540), (960, 540), (960, 540), (960, 540), (960, 540), (960, 540), (960, 542), (960, 543), (960, 544), (963, 546), (967, 548), (980, 554), (984, 555), (987, 558), (990, 559), (994, 562), (996, 564), (1001, 566), (1007, 571), (1025, 580), (1039, 586), (1052, 591), (1059, 594), (1083, 600), (1092, 602), (1096, 603), (1099, 603), (1102, 606), (1103, 606), (1103, 607), (1103, 607), (1105, 609), (1107, 611), (1108, 613), (1113, 617), (1116, 626), (1117, 630), (1117, 636), (1117, 644), (1117, 662), (1117, 674), (1117, 691), (1117, 710), (1117, 766), (1117, 786), (1117, 797), (1117, 810), (1118, 846), (1123, 878), (1126, 910)]",65.83667536494353,"[4, 5, 7, 3, 1, 2, 8, 9, 6]","(0, 0.25)",DOT007C,DOT,C,English,Fri Aug 24 13:11:16 2018,Mouse
1,3,3,0,30,5,4,0,-541,371,170,133,0,500,200,8000,"[(960, 540), (960, 540), (960, 540), (960, 540), (960, 540), (960, 540), (960, 540), (960, 540), (960, 540), (960, 540), (960, 540), (960, 540), (960, 540), (960, 540), (960, 540), (960, 540), (960, 540), (960, 540), (960, 540), (960, 540), (960, 540), (960, 540), (960, 540), (960, 540), (960, 540), (960, 540), (960, 540), (960, 540), (960, 540), (960, 540), (960, 540), (960, 540), (960, 540), (960, 540), (960, 540), (960, 540), (960, 540), (966, 540), (984, 553), (1006, 567), (1030, 570), (1094, 579), (1124, 587), (1150, 597), (1165, 603), (1186, 615), (1193, 619), (1202, 623), (1213, 627), (1246, 637), (1268, 643), (1283, 644), (1297, 646), (1337, 658), (1348, 663)]",17.58915182673573,"[4, 5, 7, 3, 1, 2, 8, 9, 6]","(0, 0.25)",DOT007C,DOT,C,English,Fri Aug 24 13:11:16 2018,Mouse
1,3,3,0,31,5,5,1,331,71,260,134,0,500,200,8000,"[(960, 540), (960, 540), (960, 540), (960, 540), (960, 540), (960, 540), (960, 540), (960, 544), (960, 551), (961, 562), (965, 583), (965, 592), (966, 598), (966, 602), (967, 607), (967, 609), (967, 612), (969, 616), (972, 636), (974, 649), (975, 662), (976, 673), (977, 691), (980, 700), (981, 706), (983, 715), (990, 733), (997, 746), (1009, 766), (1021, 785), (1054, 845), (1067, 879), (1080, 908), (1095, 942)]",71.43687291325445,"[4, 5, 7, 3, 1, 2, 8, 9, 6]","(0, 0.25)",DOT007C,DOT,C,English,Fri Aug 24 13:11:16 2018,Mouse
1,3,3,0,32,2,5,0,-261,11,250,134,0,500,200,8000,"[(960, 540), (959, 542), (960, 545), (965, 553), (971, 561), (975, 571), (979, 583), (984, 594), (995, 621), (1001, 638), (1010, 658), (1015, 668), (1025, 691), (1029, 701), (1032, 711), (1037, 721), (1046, 741), (1049, 748), (1053, 759), (1057, 771), (1065, 793), (1072, 810), (1085, 832), (1093, 850), (1114, 883), (1124, 897), (1130, 905)]",65.0260890941166,"[4, 5, 7, 3, 1, 2, 8, 9, 6]","(0, 0.25)",DOT007C,DOT,C,English,Fri Aug 24 13:11:16 2018,Mouse
1,3,3,0,33,3,1,0,-489,219,270,135,0,500,200,8000,"[(960, 540), (960, 540), (960, 540), (960, 540), (960, 540), (960, 540), (960, 540), (960, 540), (960, 540), (960, 540), (960, 540), (960, 540), (960, 540), (960, 540), (960, 540), (960, 540), (960, 540), (960, 540), (960, 540), (960, 540), (960, 540), (958, 540), (956, 540), (955, 540), (949, 540), (943, 540), (940, 540), (938, 540), (932, 540), (929, 539), (927, 539), (922, 538), (907, 536), (893, 536), (879, 536), (865, 536), (835, 536), (822, 536), (808, 536), (796, 536), (770, 536), (757, 536), (733, 538), (703, 544), (639, 553), (610, 556), (589, 560), (572, 560), (532, 567)]",176.390329902502,"[4, 5, 7, 3, 1, 2, 8, 9, 6]","(0, 0.25)",DOT007C,DOT,C,English,Fri Aug 24 13:11:16 2018,Mouse
1,3,3,0,34,3,3,1,491,251,240,136,0,500,200,8000,"[(960, 540), (960, 540), (960, 540), (960, 540), (960, 540), (960, 540), (960, 540), (960, 540), (960, 540), (960, 540), (960, 540), (960, 540), (960, 540), (960, 540), (960, 540), (960, 540), (960, 540), (960, 540), (960, 540), (960, 540), (960, 540), (960, 540), (960, 540), (960, 540), (960, 540), (960, 539), (957, 539), (950, 539), (947, 539), (944, 539), (942, 539), (937, 539), (934, 539), (926, 542), (920, 545), (902, 556), (892, 562), (883, 569), (873, 577), (853, 594), (847, 602), (839, 612), (830, 622), (804, 653), (789, 667), (771, 682), (751, 696), (692, 754), (653, 794), (621, 825)]",139.94596654710415,"[4, 5, 7, 3, 1, 2, 8, 9, 6]","(0, 0.25)",DOT007C,DOT,C,English,Fri Aug 24 13:11:16 2018,Mouse
1,3,3,0,35,8,4,0,-289,79,210,136,0,500,200,8000,"[(960, 540), (960, 540), (960, 540), (960, 540), (960, 540), (960, 540), (960, 540), (960, 542), (965, 546), (967, 548), (971, 551), (974, 553), (989, 560), (1000, 563), (1013, 564), (1029, 567), (1080, 575), (1095, 578), (1112, 583), (1132, 588), (1174, 602), (1188, 604), (1204, 609), (1220, 611), (1248, 619), (1270, 624), (1292, 631), (1323, 640), (1390, 663)]",15.962992884249509,"[4, 5, 7, 3, 1, 2, 8, 9, 6]","(0, 0.25)",DOT007C,DOT,C,English,Fri Aug 24 13:11:16 2018,Mouse
1,3,3,0,36,9,5,0,-1709,139,1570,137,0,500,200,8000,"[(960, 540), (960, 540), (960, 540), (960, 540), (960, 540), (960, 540), (960, 540), (960, 540), (960, 540), (960, 540), (960, 540), (960, 540), (960, 540), (959, 542), (962, 551), (965, 556), (966, 559), (970, 566), (972, 573), (973, 579), (975, 583), (976, 590), (981, 609), (987, 620), (993, 633), (999, 649), (1013, 687), (1018, 702), (1020, 710), (1022, 715), (1023, 721), (1023, 724), (1026, 731), (1026, 735), (1028, 746), (1028, 752), (1029, 754), (1029, 760), (1032, 770), (1033, 774), (1036, 780), (1041, 788), (1047, 800), (1049, 803), (1052, 808), (1056, 813), (1060, 819), (1062, 820), (1063, 822), (1064, 824), (1068, 830), (1070, 833), (1074, 839), (1076, 841), (1086, 844), (1086, 845), (1088, 848), (1088, 848), (1090, 851), (1095, 853), (1095, 853), (1095, 853), (1095, 853), (1095, 853), (1095, 853), (1095, 853), (1095, 853), (1095, 853), (1095, 853), (1095, 853), (1095, 853), (1095, 853), (1095, 853), (1095, 853), (1095, 853), (1095, 853), (1095, 853), (1095, 853), (1095, 853), (1095, 853), (1095, 853), (1095, 853), (1095, 853), (1095, 853), (1095, 853), (1095, 853), (1095, 853), (1095, 853), (1095, 853), (1095, 853), (1095, 853), (1095, 853), (1095, 853), (1095, 853), (1095, 853), (1095, 853), (1095, 853), (1095, 853), (1095, 853), (1095, 853), (1095, 853), (1095, 853), (1095, 853), (1095, 853), (1095, 853), (1095, 853), (1095, 852), (1094, 852), (1094, 852), (1094, 852), (1093, 851), (1092, 850), (1092, 850), (1092, 850), (1092, 849), (1092, 849), (1092, 849), (1092, 849), (1092, 849), (1092, 849), (1092, 849), (1092, 849), (1092, 849), (1092, 849), (1092, 849), (1092, 849), (1092, 849), (1092, 849), (1092, 849), (1092, 849), (1092, 849), (1092, 848), (1093, 848), (1095, 848), (1095, 848), (1095, 848), (1096, 848), (1096, 848), (1098, 848), (1100, 847), (1104, 847), (1105, 847), (1105, 847), (1105, 847), (1105, 847), (1105, 847), (1106, 848), (1106, 848), (1106, 849), (1106, 849), (1106, 853), (1108, 856), (1108, 858), (1108, 860), (1109, 864), (1110, 866), (1110, 867), (1111, 869), (1113, 873), (1113, 875), (1116, 878), (1117, 879), (1120, 884), (1121, 886), (1121, 886), (1121, 887), (1124, 889), (1124, 892), (1127, 894), (1132, 899), (1144, 911)]",63.62057164924068,"[4, 5, 7, 3, 1, 2, 8, 9, 6]","(0, 0.25)",DOT007C,DOT,C,English,Fri Aug 24 13:11:16 2018,Mouse
1,3,3,0,37,1,1,1,351,91,260,138,0,500,200,8000,"[(960, 540), (960, 540), (960, 540), (960, 540), (960, 540), (960, 540), (960, 540), (960, 540), (960, 540), (958, 540), (955, 540), (946, 540), (942, 540), (938, 540), (931, 540), (920, 540), (916, 540), (914, 540), (910, 539), (904, 538), (900, 538), (891, 536), (880, 535), (853, 533), (836, 533), (820, 533), (807, 533), (780, 533), (768, 533), (753, 530), (732, 529), (671, 521), (640, 519), (608, 514), (582, 512), (531, 511)]",183.86725778267336,"[4, 5, 7, 3, 1, 2, 8, 9, 6]","(0, 0.25)",DOT007C,DOT,C,English,Fri Aug 24 13:11:16 2018,Mouse
1,3,3,0,38,8,6,0,-440,100,340,138,0,500,200,8000,"[(960, 540), (960, 540), (960, 540), (960, 540), (960, 540), (960, 540), (960, 540), (960, 540), (960, 540), (961, 540), (962, 540), (963, 540), (964, 542), (965, 542), (967, 542), (969, 542), (970, 542), (973, 542), (980, 542), (982, 542), (988, 542), (994, 542), (1011, 538), (1016, 536), (1020, 536), (1028, 535), (1045, 535), (1051, 535), (1061, 535), (1069, 535), (1092, 535), (1107, 535), (1124, 535), (1149, 534), (1193, 530), (1214, 527), (1231, 523), (1245, 521), (1268, 513), (1283, 507), (1298, 500), (1311, 495), (1348, 485), (1365, 480)]",351.57303097851934,"[4, 5, 7, 3, 1, 2, 8, 9, 6]","(0, 0.25)",DOT007C,DOT,C,English,Fri Aug 24 13:11:16 2018,Mouse
1,3,3,0,39,1,1,1,298,148,150,139,0,500,200,8000,"[(960, 540), (960, 540), (960, 540), (960, 540), (960, 540), (960, 540), (960, 540), (960, 540), (960, 540), (960, 540), (960, 540), (960, 540), (960, 540), (960, 540), (955, 540), (947, 540), (936, 540), (911, 540), (897, 540), (882, 540), (866, 540), (833, 542), (812, 544), (792, 546), (765, 552), (710, 557), (675, 563), (629, 572), (578, 588), (485, 610)]",171.61675151907065,"[4, 5, 7, 3, 1, 2, 8, 9, 6]","(0, 0.25)",DOT007C,DOT,C,English,Fri Aug 24 13:11:16 2018,Mouse
1,3,3,0,40,9,9,1,280,150,130,139,0,500,200,8000,"[(960, 540), (960, 540), (960, 540), (960, 540), (960, 540), (960, 540), (960, 540), (960, 540), (960, 540), (960, 540), (960, 540), (960, 540), (960, 540), (960, 540), (961, 531), (966, 526), (972, 523), (981, 516), (992, 509), (998, 505), (1005, 501), (1012, 496), (1024, 483), (1033, 468), (1047, 438), (1075, 374), (1143, 211), (1174, 128)]",297.4481531785647,"[4, 5, 7, 3, 1, 2, 8, 9, 6]","(0, 0.25)",DOT007C,DOT,C,English,Fri Aug 24 13:11:16 2018,Mouse
1,3,3,0,41,2,2,1,519,189,330,138,0,500,200,8000,"[(960, 540), (960, 540), (960, 540), (960, 540), (960, 540), (960, 540), (960, 540), (960, 540), (960, 540), (960, 540), (960, 540), (960, 540), (960, 540), (960, 540), (960, 540), (960, 540), (960, 540), (960, 540), (960, 539), (958, 539), (954, 539), (939, 539), (928, 539), (914, 539), (902, 539), (878, 539), (867, 539), (857, 539), (846, 539), (824, 535), (813, 533), (802, 529), (792, 527), (769, 519), (758, 516), (747, 510), (739, 505), (730, 490), (725, 480), (722, 470), (717, 457), (705, 428), (701, 417), (694, 404), (688, 391), (677, 364), (673, 350), (670, 336), (667, 322), (663, 294), (658, 284), (652, 274)]",220.8150838748816,"[4, 5, 7, 3, 1, 2, 8, 9, 6]","(0, 0.25)",DOT007C,DOT,C,English,Fri Aug 24 13:11:16 2018,Mouse
1,3,3,0,42,4,5,0,-259,19,240,137,0,500,200,8000,"[(968, 545), (977, 554), (990, 567), (1007, 580), (1030, 600), (1038, 607), (1044, 613), (1047, 617), (1052, 631), (1057, 638), (1063, 648), (1068, 658), (1087, 685), (1097, 697), (1114, 718), (1146, 746), (1172, 774), (1179, 783), (1183, 789), (1185, 793), (1191, 803), (1197, 810), (1202, 816), (1208, 823), (1220, 841), (1226, 849)]",49.276767194826945,"[4, 5, 7, 3, 1, 2, 8, 9, 6]","(0, 0.25)",DOT007C,DOT,C,English,Fri Aug 24 13:11:16 2018,Mouse
1,3,3,0,43,4,4,1,181,11,170,138,0,500,200,8000,"[(960, 540), (970, 543), (992, 550), (1007, 554), (1024, 561), (1049, 567), (1099, 588), (1125, 600), (1151, 611), (1166, 617), (1190, 629), (1205, 635), (1216, 639), (1229, 646), (1262, 666), (1280, 676), (1301, 685), (1326, 701), (1383, 732)]",24.41333170502512,"[4, 5, 7, 3, 1, 2, 8, 9, 6]","(0, 0.25)",DOT007C,DOT,C,English,Fri Aug 24 13:11:16 2018,Mouse
1,3,3,0,44,4,4,1,171,11,160,138,0,500,200,8000,"[(960, 540), (980, 548), (1006, 556), (1055, 575), (1084, 586), (1112, 598), (1139, 612), (1183, 630), (1203, 637), (1219, 645), (1229, 652), (1250, 662), (1263, 668), (1274, 672), (1286, 678), (1310, 688), (1323, 694), (1331, 696)]",22.806031772193,"[4, 5, 7, 3, 1, 2, 8, 9, 6]","(0, 0.25)",DOT007C,DOT,C,English,Fri Aug 24 13:11:16 2018,Mouse
1,3,3,0,45,4,4,1,171,11,160,137,0,500,200,8000,"[(960, 540), (988, 546), (999, 548), (1010, 551), (1026, 556), (1047, 563), (1060, 568), (1072, 573), (1087, 579), (1131, 598), (1157, 607), (1185, 619), (1207, 623), (1255, 637), (1280, 645), (1300, 651), (1319, 656), (1348, 666)]",17.99080438981008,"[4, 5, 7, 3, 1, 2, 8, 9, 6]","(0, 0.25)",DOT007C,DOT,C,English,Fri Aug 24 13:11:16 2018,Mouse
1,3,3,0,46,3,1,0,-300,50,250,136,0,500,200,8000,"[(960, 540), (960, 540), (960, 540), (960, 540), (959, 540), (957, 539), (949, 538), (945, 538), (939, 537), (935, 537), (923, 534), (916, 533), (909, 533), (902, 530), (882, 528), (870, 525), (857, 521), (842, 518), (820, 515), (807, 513), (794, 512), (781, 510), (751, 506), (730, 503), (704, 500), (677, 497), (624, 489), (606, 488), (585, 484), (552, 477)]",188.7778173861372,"[4, 5, 7, 3, 1, 2, 8, 9, 6]","(0, 0.25)",DOT007C,DOT,C,English,Fri Aug 24 13:11:16 2018,Mouse
1,3,3,0,47,4,4,1,241,61,180,137,0,500,200,8000,"[(960, 540), (960, 540), (960, 540), (960, 540), (960, 540), (960, 540), (960, 541), (968, 549), (1003, 580), (1020, 600), (1032, 615), (1042, 627), (1056, 644), (1061, 648), (1067, 652), (1075, 654), (1093, 660), (1106, 664), (1126, 669), (1151, 679), (1219, 700), (1250, 714), (1278, 722), (1304, 730), (1344, 737)]",27.158768573290573,"[4, 5, 7, 3, 1, 2, 8, 9, 6]","(0, 0.25)",DOT007C,DOT,C,English,Fri Aug 24 13:11:16 2018,Mouse
1,3,3,0,48,1,1,1,180,20,160,137,0,500,200,8000,"[(957, 540), (950, 541), (936, 544), (929, 545), (918, 545), (907, 547), (874, 547), (851, 547), (823, 547), (798, 547), (745, 547), (723, 547), (698, 547), (675, 547), (622, 541), (599, 540), (574, 540), (555, 540)]",180.0,"[4, 5, 7, 3, 1, 2, 8, 9, 6]","(0, 0.25)",DOT007C,DOT,C,English,Fri Aug 24 13:11:16 2018,Mouse
1,3,3,0,49,7,7,1,1051,241,810,136,0,500,200,8000,"[(960, 540), (960, 540), (960, 540), (960, 540), (960, 540), (960, 540), (960, 540), (960, 540), (960, 540), (960, 540), (960, 540), (960, 540), (960, 540), (960, 540), (960, 540), (960, 540), (960, 540), (960, 540), (960, 540), (960, 540), (960, 540), (960, 540), (960, 540), (960, 540), (960, 539), (961, 538), (964, 537), (964, 536), (968, 534), (968, 534), (968, 533), (968, 533), (969, 533), (970, 533), (971, 533), (973, 535), (976, 548), (976, 558), (976, 567), (976, 574), (974, 587), (973, 592), (972, 599), (971, 608), (968, 637), (966, 651), (963, 663), (961, 676), (958, 695), (957, 706), (956, 717), (953, 730), (950, 754), (949, 768), (946, 783), (946, 795), (946, 810), (946, 811), (946, 811), (946, 811), (946, 811), (946, 811), (946, 811), (946, 811), (946, 811), (946, 811), (946, 811), (946, 811), (946, 811), (946, 811), (946, 811), (946, 811), (946, 811), (946, 811), (946, 811), (946, 811), (946, 811), (946, 811), (946, 811), (946, 811), (946, 811), (946, 811), (946, 811), (946, 811), (946, 811), (946, 811), (946, 811), (947, 814), (947, 814), (947, 814), (947, 814), (947, 814), (947, 814), (947, 815), (947, 815), (947, 815), (947, 820), (948, 825), (950, 833), (953, 841), (959, 865), (960, 877), (963, 891), (964, 905), (968, 932), (968, 942)]",88.85993596621361,"[4, 5, 7, 3, 1, 2, 8, 9, 6]","(0, 0.25)",DOT007C,DOT,C,English,Fri Aug 24 13:11:16 2018,Mouse
1,3,3,0,50,6,4,0,-181,11,170,135,0,500,200,8000,"[(960, 540), (966, 540), (987, 544), (998, 545), (1010, 549), (1026, 551), (1062, 560), (1085, 562), (1112, 568), (1136, 571), (1191, 586), (1217, 594), (1239, 601), (1260, 604), (1292, 614), (1304, 617), (1317, 621), (1331, 626), (1370, 635)]",13.045637062948602,"[4, 5, 7, 3, 1, 2, 8, 9, 6]","(0, 0.25)",DOT007C,DOT,C,English,Fri Aug 24 13:11:16 2018,Mouse
1,3,3,0,51,7,9,0,-541,271,270,136,0,500,200,8000,"[(960, 540), (960, 540), (960, 540), (960, 540), (960, 540), (960, 540), (960, 540), (960, 540), (960, 540), (960, 540), (960, 540), (960, 540), (960, 540), (960, 540), (960, 540), (960, 540), (960, 540), (960, 540), (960, 540), (960, 540), (960, 540), (960, 540), (960, 540), (960, 540), (960, 540), (960, 540), (960, 540), (961, 540), (961, 541), (962, 542), (963, 545), (968, 555), (972, 560), (976, 565), (978, 567), (983, 572), (983, 573), (983, 573), (983, 573), (983, 573), (984, 573), (987, 573), (990, 573), (997, 562), (1001, 554), (1005, 542), (1008, 522), (1013, 459), (1020, 421), (1023, 390), (1029, 365), (1048, 309), (1069, 268), (1097, 221), (1126, 175)]",294.4557805345341,"[4, 5, 7, 3, 1, 2, 8, 9, 6]","(0, 0.25)",DOT007C,DOT,C,English,Fri Aug 24 13:11:16 2018,Mouse
1,3,3,0,52,5,5,1,200,20,180,137,0,500,200,8000,"[(960, 540), (960, 541), (962, 544), (970, 556), (973, 564), (979, 576), (985, 591), (1006, 643), (1019, 674), (1029, 711), (1044, 742), (1067, 800), (1077, 826), (1083, 848), (1087, 861), (1091, 880), (1091, 886), (1094, 892), (1095, 900), (1106, 925)]",69.23223171521327,"[4, 5, 7, 3, 1, 2, 8, 9, 6]","(0, 0.25)",DOT007C,DOT,C,English,Fri Aug 24 13:11:16 2018,Mouse
1,3,3,0,53,8,9,0,-241,111,130,137,0,500,200,8000,"[(960, 540), (960, 540), (960, 540), (960, 540), (960, 540), (960, 540), (960, 540), (960, 540), (960, 540), (960, 540), (960, 540), (965, 533), (968, 525), (971, 520), (976, 510), (984, 494), (988, 484), (993, 476), (998, 456), (1011, 403), (1023, 375), (1032, 339), (1048, 289), (1082, 180), (1096, 128)]",288.26790620724114,"[4, 5, 7, 3, 1, 2, 8, 9, 6]","(0, 0.25)",DOT007C,DOT,C,English,Fri Aug 24 13:11:16 2018,Mouse
1,3,3,0,54,1,1,1,460,20,440,138,0,500,200,8000,"[(956, 540), (947, 540), (944, 540), (940, 540), (934, 540), (922, 540), (918, 540), (914, 540), (909, 540), (898, 540), (894, 539), (888, 539), (884, 539), (877, 539), (874, 539), (869, 539), (857, 541), (826, 545), (808, 550), (789, 554), (776, 556), (747, 560), (734, 562), (722, 563), (713, 564), (701, 565), (697, 565), (694, 565), (689, 565), (681, 565), (674, 565), (665, 565), (653, 565), (632, 565), (623, 565), (614, 565), (606, 567), (592, 568), (586, 568), (583, 568), (581, 568), (578, 569), (574, 569), (571, 570), (567, 570), (557, 573)]",175.31873049663668,"[4, 5, 7, 3, 1, 2, 8, 9, 6]","(0, 0.25)",DOT007C,DOT,C,English,Fri Aug 24 13:11:16 2018,Mouse
1,3,3,0,55,3,1,0,-411,11,400,138,0,500,200,8000,"[(960, 540), (958, 541), (953, 541), (930, 541), (919, 541), (908, 541), (894, 541), (867, 541), (852, 541), (834, 541), (814, 541), (778, 541), (764, 541), (753, 541), (741, 544), (719, 544), (711, 544), (704, 544), (694, 545), (679, 545), (671, 545), (664, 545), (658, 545), (647, 545), (645, 545), (643, 545), (642, 545), (641, 546), (640, 546), (639, 546), (636, 547), (632, 547), (629, 547), (624, 547), (620, 547), (611, 548), (605, 548), (598, 551), (591, 552), (572, 553), (564, 553), (556, 553)]",178.15695986875787,"[4, 5, 7, 3, 1, 2, 8, 9, 6]","(0, 0.25)",DOT007C,DOT,C,English,Fri Aug 24 13:11:16 2018,Mouse
1,3,3,0,56,5,5,1,539,19,520,139,0,500,200,8000,"[(962, 540), (964, 541), (965, 541), (967, 541), (972, 542), (976, 544), (981, 546), (987, 548), (993, 550), (995, 550), (995, 550), (997, 550), (999, 551), (999, 551), (1002, 553), (1003, 553), (1007, 555), (1009, 556), (1010, 557), (1012, 558), (1017, 561), (1021, 563), (1026, 565), (1033, 568), (1045, 573), (1051, 576), (1057, 578), (1061, 579), (1067, 582), (1068, 582), (1069, 582), (1070, 584), (1074, 585), (1078, 588), (1083, 592), (1091, 598), (1100, 612), (1104, 620), (1106, 627), (1108, 634), (1112, 646), (1113, 651), (1117, 660), (1121, 669), (1136, 695), (1148, 715), (1159, 738), (1172, 758), (1189, 791), (1194, 801), (1198, 807), (1202, 816), (1215, 833), (1228, 848)]",48.97249594075066,"[4, 5, 7, 3, 1, 2, 8, 9, 6]","(0, 0.25)",DOT007C,DOT,C,English,Fri Aug 24 13:11:16 2018,Mouse
1,3,3,0,57,9,9,1,282,102,180,139,0,500,200,8000,"[(960, 540), (960, 540), (960, 540), (960, 540), (960, 540), (960, 540), (960, 540), (960, 540), (960, 540), (960, 540), (960, 533), (960, 526), (960, 518), (960, 510), (960, 488), (961, 475), (963, 461), (968, 448), (990, 391), (1002, 363), (1018, 335), (1032, 311), (1053, 273), (1062, 257), (1074, 235), (1087, 214), (1104, 184), (1111, 171), (1118, 158)]",292.4706019970631,"[4, 5, 7, 3, 1, 2, 8, 9, 6]","(0, 0.25)",DOT007C,DOT,C,English,Fri Aug 24 13:11:16 2018,Mouse
1,3,3,0,58,6,6,1,750,520,230,138,0,500,200,8000,"[(960, 540), (960, 540), (960, 540), (960, 540), (960, 540), (960, 540), (960, 540), (960, 540), (960, 540), (960, 540), (960, 540), (960, 540), (960, 540), (960, 540), (960, 540), (960, 540), (960, 540), (960, 540), (960, 540), (960, 540), (960, 540), (960, 540), (960, 540), (960, 540), (960, 540), (960, 540), (960, 540), (960, 540), (960, 540), (960, 540), (960, 540), (960, 540), (960, 540), (960, 540), (960, 540), (960, 540), (960, 540), (960, 540), (960, 540), (960, 540), (960, 540), (960, 540), (960, 540), (960, 540), (960, 540), (960, 540), (960, 540), (960, 540), (960, 540), (960, 540), (960, 540), (962, 540), (966, 539), (968, 539), (972, 539), (976, 538), (986, 536), (990, 535), (995, 535), (999, 533), (1008, 530), (1014, 528), (1019, 527), (1023, 526), (1034, 525), (1042, 523), (1049, 522), (1058, 521), (1082, 518), (1096, 515), (1110, 510), (1145, 493), (1231, 433), (1283, 397), (1333, 362)]",334.48897303546653,"[4, 5, 7, 3, 1, 2, 8, 9, 6]","(0, 0.25)",DOT007C,DOT,C,English,Fri Aug 24 13:11:16 2018,Mouse
1,3,3,0,59,6,6,1,1059,929,130,137,0,500,200,8000,"[(960, 540), (960, 540), (960, 540), (960, 540), (960, 540), (960, 540), (960, 540), (960, 540), (960, 540), (960, 540), (960, 540), (960, 540), (960, 540), (960, 540), (960, 540), (960, 540), (960, 540), (960, 540), (960, 540), (960, 540), (960, 540), (960, 540), (960, 540), (960, 540), (960, 540), (960, 540), (960, 540), (960, 540), (960, 540), (960, 540), (960, 540), (960, 540), (960, 540), (960, 540), (960, 540), (960, 540), (960, 540), (960, 540), (960, 540), (960, 540), (960, 540), (960, 540), (960, 540), (960, 540), (960, 540), (960, 540), (960, 540), (960, 540), (960, 540), (960, 540), (960, 540), (960, 540), (960, 540), (960, 540), (960, 540), (960, 540), (960, 540), (960, 540), (960, 540), (960, 540), (960, 540), (960, 540), (960, 540), (960, 540), (960, 540), (960, 540), (960, 540), (960, 540), (960, 540), (960, 540), (960, 540), (960, 540), (960, 540), (960, 540), (960, 540), (960, 540), (960, 540), (960, 540), (960, 540), (960, 540), (960, 540), (960, 540), (960, 540), (960, 540), (960, 540), (960, 540), (960, 540), (960, 540), (960, 540), (960, 540), (960, 540), (960, 540), (961, 540), (966, 539), (972, 538), (979, 535), (1000, 530), (1011, 527), (1024, 523), (1035, 521), (1068, 512), (1091, 505), (1127, 496), (1171, 482), (1278, 441), (1340, 415)]",341.7915155294192,"[4, 5, 7, 3, 1, 2, 8, 9, 6]","(0, 0.25)",DOT007C,DOT,C,English,Fri Aug 24 13:11:16 2018,Mouse
1,3,3,0,60,5,5,1,241,21,220,136,0,500,200,8000,"[(960, 540), (960, 540), (962, 543), (964, 548), (969, 554), (973, 558), (979, 572), (982, 581), (983, 588), (983, 593), (987, 609), (989, 618), (995, 632), (1003, 650), (1025, 695), (1033, 714), (1046, 735), (1054, 747), (1072, 776), (1083, 788), (1096, 806), (1109, 819), (1144, 847), (1162, 863), (1180, 878)]",56.94039703541936,"[4, 5, 7, 3, 1, 2, 8, 9, 6]","(0, 0.25)",DOT007C,DOT,C,English,Fri Aug 24 13:11:16 2018,Mouse
1,3,3,0,61,2,1,0,-461,281,180,135,0,500,200,8000,"[(960, 540), (960, 540), (960, 540), (960, 540), (960, 540), (960, 540), (960, 540), (960, 540), (960, 540), (960, 540), (960, 540), (960, 540), (960, 540), (960, 540), (960, 540), (960, 540), (960, 540), (960, 540), (960, 540), (960, 540), (960, 540), (960, 540), (960, 540), (960, 540), (960, 540), (960, 540), (960, 540), (960, 540), (959, 540), (955, 540), (954, 540), (950, 542), (945, 542), (930, 546), (917, 547), (902, 549), (886, 552), (838, 559), (815, 561), (794, 564), (775, 564), (727, 564), (696, 564), (666, 564), (635, 564), (576, 564), (554, 564)]",176.6169942086694,"[4, 5, 7, 3, 1, 2, 8, 9, 6]","(0, 0.25)",DOT007C,DOT,C,English,Fri Aug 24 13:11:16 2018,Mouse
1,3,3,0,62,8,9,0,-281,71,210,136,0,500,200,8000,"[(960, 540), (960, 540), (960, 540), (960, 540), (960, 540), (960, 540), (960, 540), (961, 540), (961, 540), (961, 540), (961, 540), (961, 540), (963, 542), (966, 551), (968, 567), (968, 569), (969, 571), (969, 571), (969, 571), (970, 571), (975, 566), (977, 554), (984, 512), (989, 483), (992, 443), (1008, 401), (1067, 284), (1105, 218), (1140, 168)]",295.82099197418927,"[4, 5, 7, 3, 1, 2, 8, 9, 6]","(0, 0.25)",DOT007C,DOT,C,English,Fri Aug 24 13:11:16 2018,Mouse
1,3,3,0,63,1,1,1,200,50,150,137,0,500,200,8000,"[(960, 540), (960, 540), (960, 540), (960, 540), (953, 540), (944, 540), (933, 542), (915, 547), (866, 557), (836, 565), (808, 573), (780, 582), (727, 598), (699, 606), (668, 614), (643, 622), (604, 632), (592, 633), (582, 634), (571, 635)]",166.27608657925617,"[4, 5, 7, 3, 1, 2, 8, 9, 6]","(0, 0.25)",DOT007C,DOT,C,English,Fri Aug 24 13:11:16 2018,Mouse
1,3,3,0,64,3,2,0,-461,221,240,137,0,500,200,8000,"[(960, 540), (960, 540), (960, 540), (960, 540), (960, 540), (960, 540), (960, 540), (960, 540), (960, 540), (960, 540), (960, 540), (960, 540), (960, 540), (960, 540), (960, 540), (960, 540), (960, 540), (960, 540), (960, 540), (960, 540), (960, 540), (960, 540), (960, 539), (960, 536), (956, 529), (956, 528), (955, 527), (955, 527), (955, 524), (955, 523), (953, 520), (952, 519), (943, 508), (935, 500), (926, 493), (914, 483), (887, 459), (875, 450), (861, 441), (849, 431), (830, 418), (818, 402), (799, 384), (773, 357), (711, 297), (677, 270), (654, 254)]",223.06506769044722,"[4, 5, 7, 3, 1, 2, 8, 9, 6]","(0, 0.25)",DOT007C,DOT,C,English,Fri Aug 24 13:11:16 2018,Mouse
1,3,3,0,65,1,1,1,228,18,210,138,0,500,200,8000,"[(955, 541), (947, 542), (939, 543), (929, 545), (908, 546), (896, 546), (885, 546), (873, 546), (835, 546), (815, 546), (785, 546), (754, 546), (706, 546), (681, 546), (662, 546), (642, 546), (617, 546), (607, 546), (597, 546), (587, 546), (571, 546), (562, 546), (555, 546)]",179.1512357284464,"[4, 5, 7, 3, 1, 2, 8, 9, 6]","(0, 0.25)",DOT007C,DOT,C,English,Fri Aug 24 13:11:16 2018,Mouse
1,3,3,0,66,9,9,1,171,11,160,138,0,500,200,8000,"[(960, 540), (960, 537), (960, 534), (963, 530), (964, 526), (969, 514), (974, 508), (980, 500), (985, 495), (1004, 476), (1016, 464), (1032, 439), (1057, 405), (1091, 335), (1111, 287), (1127, 239), (1141, 210), (1155, 190)]",299.1240534947774,"[4, 5, 7, 3, 1, 2, 8, 9, 6]","(0, 0.25)",DOT007C,DOT,C,English,Fri Aug 24 13:11:16 2018,Mouse
1,3,3,0,67,1,1,1,310,20,290,137,0,500,200,8000,"[(948, 540), (939, 540), (923, 541), (913, 543), (903, 544), (894, 545), (870, 549), (857, 550), (844, 551), (831, 551), (812, 551), (804, 551), (798, 551), (792, 552), (785, 552), (781, 552), (778, 552), (775, 552), (764, 552), (756, 552), (749, 552), (741, 552), (728, 552), (723, 552), (716, 552), (706, 552), (683, 552), (664, 549), (640, 546), (610, 541), (546, 533)]",180.96867691493372,"[4, 5, 7, 3, 1, 2, 8, 9, 6]","(0, 0.25)",DOT007C,DOT,C,English,Fri Aug 24 13:11:16 2018,Mouse
1,3,3,0,68,7,7,1,410,160,250,136,0,500,200,8000,"[(960, 540), (960, 540), (960, 540), (960, 540), (960, 540), (960, 540), (960, 540), (960, 540), (960, 540), (960, 540), (960, 540), (960, 540), (960, 540), (960, 540), (960, 540), (961, 541), (963, 541), (963, 542), (964, 544), (966, 545), (967, 547), (970, 552), (974, 556), (976, 562), (976, 566), (979, 573), (982, 590), (984, 602), (987, 615), (991, 632), (994, 671), (994, 685), (994, 705), (994, 731), (980, 776), (973, 801), (966, 826), (961, 856), (955, 908), (950, 935), (950, 958)]",91.37045101779961,"[4, 5, 7, 3, 1, 2, 8, 9, 6]","(0, 0.25)",DOT007C,DOT,C,English,Fri Aug 24 13:11:16 2018,Mouse
1,3,3,0,69,6,7,0,-1050,20,1030,135,0,500,200,8000,"[(960, 552), (960, 561), (960, 574), (958, 586), (954, 608), (953, 619), (949, 629), (945, 639), (937, 655), (932, 665), (929, 672), (924, 680), (911, 696), (904, 705), (896, 713), (887, 722), (874, 737), (868, 746), (861, 754), (853, 763), (841, 777), (832, 786), (826, 793), (820, 803), (813, 818), (810, 827), (807, 830), (807, 830), (807, 830), (807, 830), (807, 830), (807, 830), (807, 830), (807, 830), (807, 830), (807, 830), (807, 830), (807, 830), (807, 830), (807, 830), (807, 830), (807, 830), (807, 830), (807, 830), (807, 830), (807, 830), (807, 830), (807, 830), (807, 830), (807, 830), (807, 830), (807, 830), (807, 830), (807, 830), (807, 830), (807, 830), (807, 830), (807, 830), (807, 830), (807, 830), (807, 830), (807, 830), (807, 830), (807, 830), (807, 830), (807, 830), (807, 830), (807, 830), (807, 830), (807, 830), (807, 830), (807, 830), (807, 830), (807, 830), (807, 830), (807, 830), (807, 830), (807, 830), (807, 830), (807, 830), (807, 830), (807, 830), (807, 830), (807, 830), (807, 830), (807, 830), (807, 830), (807, 830), (807, 830), (807, 830), (807, 830), (807, 830), (807, 830), (807, 830), (807, 830), (807, 830), (807, 854), (807, 859), (807, 864), (806, 872), (806, 887), (806, 894), (807, 902), (807, 908), (809, 918)]",111.77527090262086,"[4, 5, 7, 3, 1, 2, 8, 9, 6]","(0, 0.25)",DOT007C,DOT,C,English,Fri Aug 24 13:11:16 2018,Mouse
1,3,3,0,70,5,5,1,350,20,330,136,0,500,200,8000,"[(962, 541), (967, 543), (979, 546), (986, 547), (991, 547), (1000, 547), (1015, 551), (1022, 551), (1032, 552), (1042, 555), (1060, 559), (1074, 563), (1088, 567), (1100, 570), (1123, 580), (1132, 585), (1138, 587), (1141, 589), (1145, 593), (1149, 597), (1153, 602), (1158, 609), (1168, 624), (1172, 636), (1174, 645), (1177, 657), (1177, 678), (1177, 689), (1177, 701), (1177, 716), (1180, 755), (1184, 784), (1187, 813), (1192, 842), (1193, 879)]",55.498650641881326,"[4, 5, 7, 3, 1, 2, 8, 9, 6]","(0, 0.25)",DOT007C,DOT,C,English,Fri Aug 24 13:11:16 2018,Mouse
1,3,3,0,71,2,3,0,-609,159,450,136,0,500,200,8000,"[(960, 540), (960, 540), (960, 540), (960, 540), (960, 540), (960, 540), (960, 540), (960, 540), (960, 540), (960, 540), (960, 540), (960, 540), (960, 540), (960, 540), (960, 540), (959, 540), (956, 540), (956, 540), (955, 540), (954, 540), (953, 540), (953, 540), (952, 540), (952, 540), (950, 540), (950, 540), (946, 539), (942, 538), (939, 535), (934, 533), (922, 528), (915, 525), (910, 524), (908, 523), (901, 521), (898, 521), (896, 521), (893, 520), (893, 520), (890, 520), (889, 520), (887, 520), (885, 520), (883, 523), (879, 526), (877, 530), (866, 545), (858, 553), (849, 563), (838, 577), (815, 602), (803, 617), (785, 637), (770, 658), (733, 699), (719, 715), (704, 732), (689, 750), (666, 778), (658, 789), (648, 801)]",140.08622170963463,"[4, 5, 7, 3, 1, 2, 8, 9, 6]","(0, 0.25)",DOT007C,DOT,C,English,Fri Aug 24 13:11:16 2018,Mouse
1,3,3,0,72,9,9,1,179,19,160,137,0,500,200,8000,"[(963, 540), (968, 537), (971, 530), (975, 523), (984, 501), (986, 487), (995, 465), (1007, 436), (1038, 359), (1056, 329), (1068, 309), (1075, 298), (1093, 276), (1103, 264), (1111, 254), (1120, 237), (1140, 197), (1152, 170)]",297.4256526669119,"[4, 5, 7, 3, 1, 2, 8, 9, 6]","(0, 0.25)",DOT007C,DOT,C,English,Fri Aug 24 13:11:16 2018,Mouse
1,3,3,0,73,9,9,1,180,60,120,137,0,500,200,8000,"[(960, 540), (960, 540), (960, 540), (960, 540), (960, 540), (960, 539), (961, 537), (963, 533), (966, 526), (976, 501), (988, 474), (1003, 435), (1019, 390), (1064, 282), (1083, 240), (1098, 205), (1105, 185), (1128, 135)]",292.52939800293683,"[4, 5, 7, 3, 1, 2, 8, 9, 6]","(0, 0.25)",DOT007C,DOT,C,English,Fri Aug 24 13:11:16 2018,Mouse
1,3,3,0,74,8,9,0,-199,69,130,136,0,500,200,8000,"[(960, 540), (960, 540), (960, 540), (960, 540), (960, 540), (960, 540), (959, 538), (959, 534), (961, 526), (966, 516), (979, 493), (990, 474), (1001, 453), (1013, 424), (1031, 368), (1039, 342), (1050, 316), (1064, 289), (1099, 227), (1131, 172)]",294.92306393943255,"[4, 5, 7, 3, 1, 2, 8, 9, 6]","(0, 0.25)",DOT007C,DOT,C,English,Fri Aug 24 13:11:16 2018,Mouse
1,3,3,0,75,6,7,0,-460,220,240,137,0,500,200,8000,"[(960, 540), (960, 540), (960, 540), (960, 540), (960, 540), (960, 540), (960, 540), (960, 540), (960, 540), (960, 540), (960, 540), (960, 540), (960, 540), (960, 540), (960, 540), (960, 540), (960, 540), (960, 540), (960, 540), (960, 540), (960, 540), (962, 540), (962, 540), (963, 543), (964, 547), (966, 558), (966, 569), (966, 583), (966, 597), (966, 633), (965, 651), (965, 665), (965, 688), (965, 733), (961, 757), (958, 776), (954, 795), (943, 823), (940, 835), (936, 845), (932, 856), (924, 877), (919, 888), (913, 905), (906, 922), (900, 948)]",98.3658861240326,"[4, 5, 7, 3, 1, 2, 8, 9, 6]","(0, 0.25)",DOT007C,DOT,C,English,Fri Aug 24 13:11:16 2018,Mouse
1,3,3,0,76,6,6,1,670,20,650,138,0,500,200,8000,"[(963, 535), (966, 530), (972, 523), (979, 519), (981, 517), (985, 515), (995, 510), (997, 509), (1000, 507), (1001, 507), (1004, 506), (1004, 505), (1004, 505), (1006, 505), (1008, 503), (1009, 503), (1010, 503), (1010, 503), (1014, 502), (1017, 502), (1020, 501), (1024, 501), (1034, 499), (1041, 498), (1050, 497), (1057, 496), (1069, 492), (1073, 489), (1076, 488), (1083, 484), (1103, 475), (1112, 472), (1120, 471), (1129, 470), (1146, 470), (1152, 470), (1156, 470), (1160, 470), (1163, 470), (1165, 470), (1167, 471), (1168, 472), (1171, 477), (1173, 479), (1173, 482), (1175, 483), (1176, 484), (1179, 484), (1181, 484), (1183, 484), (1187, 484), (1189, 484), (1190, 483), (1191, 483), (1193, 480), (1196, 476), (1198, 472), (1206, 465), (1222, 453), (1231, 448), (1242, 442), (1252, 436), (1275, 426), (1286, 419), (1299, 414), (1315, 407), (1349, 393)]",339.29882083369097,"[4, 5, 7, 3, 1, 2, 8, 9, 6]","(0, 0.25)",DOT007C,DOT,C,English,Fri Aug 24 13:11:16 2018,Mouse
1,3,3,0,77,1,1,1,311,11,300,138,0,500,200,8000,"[(960, 540), (956, 540), (949, 540), (931, 540), (922, 539), (915, 538), (905, 535), (893, 535), (884, 534), (874, 533), (862, 532), (836, 528), (822, 527), (807, 524), (795, 522), (773, 522), (766, 522), (759, 522), (754, 522), (738, 522), (730, 522), (718, 522), (706, 522), (680, 519), (667, 517), (658, 516), (647, 515), (629, 512), (618, 512), (604, 512), (591, 512), (558, 512)]",183.9843160023722,"[4, 5, 7, 3, 1, 2, 8, 9, 6]","(0, 0.25)",DOT007C,DOT,C,English,Fri Aug 24 13:11:16 2018,Mouse
1,3,3,0,78,4,5,0,-629,90,539,137,0,500,200,8000,"[(960, 540), (960, 540), (960, 540), (960, 540), (960, 540), (960, 540), (960, 540), (960, 540), (962, 542), (963, 543), (965, 544), (966, 545), (966, 545), (967, 546), (967, 546), (967, 547), (968, 548), (968, 550), (971, 554), (974, 558), (976, 561), (980, 569), (985, 576), (989, 582), (992, 585), (995, 590), (1004, 599), (1008, 605), (1015, 613), (1023, 623), (1047, 646), (1063, 665), (1077, 684), (1089, 699), (1107, 727), (1112, 736), (1115, 743), (1116, 748), (1120, 759), (1122, 763), (1123, 771), (1126, 778), (1128, 794), (1130, 802), (1130, 809), (1130, 819), (1130, 830), (1130, 834), (1130, 838), (1131, 841), (1131, 844), (1132, 845), (1132, 845), (1133, 848), (1134, 848), (1135, 850), (1136, 851), (1137, 852), (1143, 860), (1148, 867), (1153, 872), (1158, 877), (1167, 886)]",59.109355864882666,"[4, 5, 7, 3, 1, 2, 8, 9, 6]","(0, 0.25)",DOT007C,DOT,C,English,Fri Aug 24 13:11:16 2018,Mouse
1,3,3,0,79,5,5,1,361,211,150,138,0,500,200,8000,"[(960, 540), (960, 540), (960, 540), (960, 540), (960, 540), (960, 540), (960, 540), (960, 540), (960, 540), (960, 540), (960, 540), (960, 540), (960, 540), (960, 540), (960, 540), (960, 540), (960, 540), (960, 540), (960, 540), (960, 540), (960, 540), (960, 542), (960, 547), (968, 562), (974, 574), (988, 601), (1000, 635), (1015, 690), (1020, 705), (1022, 718), (1023, 729), (1029, 756), (1034, 774), (1044, 799), (1054, 828), (1078, 891), (1100, 924)]",69.96898731910227,"[4, 5, 7, 3, 1, 2, 8, 9, 6]","(0, 0.25)",DOT007C,DOT,C,English,Fri Aug 24 13:11:16 2018,Mouse
1,3,3,0,80,4,4,1,410,20,390,138,0,500,200,8000,"[(964, 550), (978, 572), (985, 585), (991, 595), (998, 608), (1009, 631), (1013, 641), (1016, 648), (1020, 655), (1025, 666), (1027, 670), (1030, 674), (1034, 681), (1043, 692), (1045, 695), (1048, 699), (1049, 700), (1051, 704), (1051, 704), (1051, 704), (1051, 704), (1051, 704), (1051, 704), (1051, 704), (1051, 704), (1052, 704), (1053, 704), (1055, 704), (1058, 704), (1066, 704), (1071, 701), (1078, 696), (1090, 692), (1117, 686), (1127, 686), (1141, 685), (1164, 685), (1233, 685), (1275, 685), (1317, 688), (1364, 697)]",21.236816395098145,"[4, 5, 7, 3, 1, 2, 8, 9, 6]","(0, 0.25)",DOT007C,DOT,C,English,Fri Aug 24 13:11:16 2018,Mouse
1,3,3,0,81,6,9,0,-2120,330,1790,137,0,500,200,8000,"[(960, 540), (960, 540), (960, 540), (960, 540), (960, 540), (960, 540), (960, 540), (960, 540), (960, 540), (960, 540), (960, 540), (960, 540), (960, 540), (960, 540), (960, 540), (960, 540), (960, 540), (960, 540), (960, 540), (960, 540), (960, 540), (960, 540), (960, 540), (960, 540), (960, 540), (960, 540), (960, 540), (960, 540), (960, 540), (960, 540), (960, 540), (960, 540), (960, 539), (960, 539), (957, 540), (955, 541), (954, 541), (952, 542), (952, 542), (950, 542), (950, 543), (950, 543), (950, 543), (949, 543), (949, 543), (947, 543), (945, 544), (940, 544), (937, 545), (935, 545), (932, 545), (928, 547), (926, 548), (924, 549), (918, 551), (906, 557), (901, 558), (897, 558), (892, 561), (885, 562), (884, 562), (881, 564), (880, 564), (879, 565), (878, 565), (878, 565), (878, 565), (878, 565), (878, 565), (878, 565), (878, 565), (878, 565), (878, 565), (878, 568), (878, 571), (883, 583), (885, 593), (888, 609), (892, 638), (900, 696), (902, 710), (903, 721), (904, 727), (904, 731), (904, 733), (904, 733), (904, 733), (904, 733), (904, 733), (905, 733), (905, 733), (907, 733), (907, 733), (907, 733), (907, 732), (908, 730), (908, 730), (908, 730), (909, 730), (909, 730), (909, 730), (909, 730), (909, 730), (909, 734), (909, 738), (910, 744), (910, 746), (911, 750), (911, 750), (911, 751), (911, 751), (911, 751), (911, 751), (911, 751), (911, 751), (911, 751), (913, 746), (914, 742), (916, 735), (917, 727), (918, 723), (919, 720), (919, 720), (921, 718), (921, 718), (921, 718), (921, 718), (921, 718), (923, 720), (923, 726), (923, 733), (923, 744), (923, 749), (923, 754), (923, 757), (923, 761), (923, 763), (923, 765), (923, 767), (923, 770), (922, 772), (922, 773), (921, 774), (921, 774), (921, 774), (921, 774), (921, 775), (921, 775), (921, 775), (921, 775), (921, 775), (921, 775), (921, 775), (921, 774), (920, 769), (920, 750), (920, 737), (920, 718), (926, 690), (932, 638), (932, 621), (932, 604), (934, 593), (937, 579), (938, 576), (940, 574), (940, 574), (941, 573), (944, 572), (944, 572), (945, 572), (945, 579), (945, 592), (945, 609), (945, 631), (945, 693), (945, 712), (945, 729), (945, 743), (941, 768), (936, 780), (932, 793), (928, 804), (921, 823), (918, 829), (915, 835), (912, 841), (909, 844), (909, 844), (909, 844), (909, 844), (907, 844), (907, 844), (906, 844), (906, 841), (906, 835), (906, 831), (906, 824), (906, 819), (906, 796), (909, 776), (914, 749), (922, 718), (946, 643), (966, 597), (986, 549), (1006, 506), (1043, 421), (1063, 370), (1089, 306), (1119, 241), (1160, 152)]",297.26947198845806,"[4, 5, 7, 3, 1, 2, 8, 9, 6]","(0, 0.25)",DOT007C,DOT,C,English,Fri Aug 24 13:11:16 2018,Mouse
1,3,3,0,82,6,6,1,299,149,150,138,0,500,200,8000,"[(960, 540), (960, 540), (960, 540), (960, 540), (960, 540), (960, 540), (960, 540), (960, 540), (960, 540), (960, 540), (960, 540), (960, 540), (960, 540), (960, 540), (960, 544), (969, 548), (978, 548), (989, 548), (1008, 548), (1018, 548), (1026, 548), (1036, 547), (1065, 546), (1087, 546), (1118, 546), (1157, 546), (1260, 528), (1315, 512), (1355, 499), (1386, 484)]",352.51110079835996,"[4, 5, 7, 3, 1, 2, 8, 9, 6]","(0, 0.25)",DOT007C,DOT,C,English,Fri Aug 24 13:11:16 2018,Mouse
1,3,3,0,83,5,5,1,661,231,430,138,0,500,200,8000,"[(960, 540), (960, 540), (960, 540), (960, 540), (960, 540), (960, 540), (960, 540), (960, 540), (960, 540), (960, 540), (960, 540), (960, 540), (960, 540), (960, 540), (960, 540), (960, 540), (960, 540), (960, 540), (960, 540), (960, 540), (960, 540), (960, 540), (960, 540), (961, 540), (961, 540), (961, 540), (961, 540), (961, 542), (961, 542), (961, 543), (961, 543), (961, 543), (961, 543), (961, 543), (961, 543), (961, 543), (961, 543), (961, 543), (961, 543), (961, 546), (967, 554), (972, 561), (977, 565), (983, 571), (990, 579), (997, 586), (1002, 591), (1012, 601), (1029, 629), (1033, 640), (1040, 658), (1047, 679), (1066, 718), (1071, 740), (1075, 754), (1083, 770), (1096, 799), (1100, 808), (1103, 816), (1105, 822), (1109, 834), (1110, 837), (1114, 843), (1118, 849), (1132, 868), (1143, 880), (1155, 895)]",61.22019369560279,"[4, 5, 7, 3, 1, 2, 8, 9, 6]","(0, 0.25)",DOT007C,DOT,C,English,Fri Aug 24 13:11:16 2018,Mouse
1,3,3,0,84,7,7,1,650,360,290,137,0,500,200,8000,"[(960, 540), (960, 540), (960, 540), (960, 540), (960, 540), (960, 540), (960, 540), (960, 540), (960, 540), (960, 540), (960, 540), (960, 540), (960, 540), (960, 540), (960, 540), (960, 540), (960, 540), (960, 540), (960, 540), (960, 540), (960, 540), (960, 540), (960, 540), (960, 540), (960, 540), (960, 540), (960, 540), (960, 540), (960, 540), (960, 540), (960, 540), (960, 540), (960, 540), (960, 540), (960, 540), (959, 539), (959, 539), (959, 539), (959, 539), (958, 538), (958, 537), (958, 536), (958, 536), (958, 534), (958, 534), (958, 534), (958, 534), (958, 534), (958, 534), (958, 534), (958, 536), (958, 545), (958, 569), (959, 588), (959, 619), (959, 652), (959, 688), (959, 703), (959, 722), (959, 741), (954, 794), (939, 833), (922, 871), (902, 901), (859, 953)]",103.74208631733217,"[4, 5, 7, 3, 1, 2, 8, 9, 6]","(0, 0.25)",DOT007C,DOT,C,English,Fri Aug 24 13:11:16 2018,Mouse
1,3,3,0,85,3,3,1,420,270,150,136,0,500,200,8000,"[(960, 540), (960, 540), (960, 540), (960, 540), (960, 540), (960, 540), (960, 540), (960, 540), (960, 540), (960, 540), (960, 540), (960, 540), (960, 540), (960, 540), (960, 540), (960, 540), (960, 540), (960, 540), (960, 540), (960, 540), (960, 540), (960, 540), (960, 540), (960, 540), (960, 540), (960, 540), (959, 540), (955, 540), (948, 546), (933, 556), (902, 578), (877, 591), (856, 603), (831, 618), (787, 645), (763, 659), (738, 674), (719, 684), (674, 717), (653, 738), (637, 761), (620, 786)]",144.11315557507544,"[4, 5, 7, 3, 1, 2, 8, 9, 6]","(0, 0.25)",DOT007C,DOT,C,English,Fri Aug 24 13:11:16 2018,Mouse
1,3,3,0,86,7,7,1,681,481,200,135,0,500,200,8000,"[(960, 540), (960, 540), (960, 540), (960, 540), (960, 540), (960, 540), (960, 540), (960, 540), (960, 540), (960, 540), (960, 540), (960, 540), (960, 540), (960, 540), (960, 540), (960, 540), (960, 540), (960, 540), (960, 540), (960, 540), (960, 540), (960, 540), (960, 540), (960, 540), (960, 540), (960, 540), (960, 540), (960, 540), (960, 540), (960, 540), (960, 540), (960, 540), (960, 540), (960, 540), (960, 540), (960, 540), (960, 540), (960, 540), (960, 540), (960, 540), (960, 540), (960, 540), (960, 540), (960, 540), (960, 540), (960, 540), (960, 540), (960, 540), (964, 541), (969, 549), (977, 557), (983, 565), (993, 584), (994, 590), (995, 594), (997, 603), (999, 617), (1000, 624), (1002, 634), (1003, 643), (1005, 667), (1005, 683), (1005, 708), (995, 747), (960, 823), (940, 853), (924, 873), (912, 895), (896, 936)]",99.18054195762615,"[4, 5, 7, 3, 1, 2, 8, 9, 6]","(0, 0.25)",DOT007C,DOT,C,English,Fri Aug 24 13:11:16 2018,Mouse
1,3,3,0,87,8,9,0,-350,60,290,134,0,500,200,8000,"[(960, 540), (960, 540), (960, 540), (960, 540), (960, 540), (959, 540), (959, 540), (959, 540), (959, 540), (959, 540), (959, 540), (959, 540), (959, 537), (959, 532), (961, 520), (961, 514), (961, 509), (961, 502), (963, 484), (968, 470), (974, 448), (988, 413), (1022, 363), (1036, 345), (1049, 328), (1061, 311), (1074, 287), (1081, 271), (1088, 253), (1093, 236), (1105, 208), (1110, 198), (1117, 191), (1124, 182), (1138, 169)]",295.6309636231088,"[4, 5, 7, 3, 1, 2, 8, 9, 6]","(0, 0.25)",DOT007C,DOT,C,English,Fri Aug 24 13:11:16 2018,Mouse
1,3,3,0,88,1,1,1,760,50,710,135,0,500,200,8000,"[(960, 540), (960, 540), (960, 540), (960, 540), (959, 541), (959, 541), (957, 542), (953, 545), (952, 546), (949, 547), (940, 550), (935, 551), (931, 552), (926, 553), (917, 556), (907, 560), (896, 565), (879, 572), (848, 580), (832, 585), (817, 591), (805, 596), (781, 603), (768, 606), (757, 607), (746, 608), (729, 610), (722, 610), (716, 610), (713, 610), (708, 611), (707, 611), (706, 611), (706, 611), (705, 612), (705, 612), (705, 612), (705, 612), (705, 612), (705, 612), (705, 612), (705, 612), (705, 612), (705, 612), (705, 612), (705, 612), (705, 612), (705, 612), (705, 612), (705, 612), (705, 612), (705, 612), (705, 612), (705, 612), (705, 612), (705, 612), (705, 612), (705, 612), (704, 612), (703, 613), (702, 613), (700, 613), (696, 613), (693, 613), (688, 613), (681, 612), (666, 608), (655, 605), (645, 605), (634, 603), (612, 599), (602, 599), (593, 599), (586, 599), (571, 598), (561, 597)]",171.86989764584402,"[4, 5, 7, 3, 1, 2, 8, 9, 6]","(0, 0.25)",DOT007C,DOT,C,English,Fri Aug 24 13:11:16 2018,Mouse
1,3,3,0,89,8,9,0,-310,210,100,135,0,500,200,8000,"[(960, 540), (960, 540), (960, 540), (960, 540), (960, 540), (960, 540), (960, 540), (960, 540), (960, 540), (960, 540), (960, 540), (960, 540), (960, 540), (960, 540), (960, 540), (960, 540), (960, 540), (960, 540), (960, 540), (960, 540), (961, 540), (965, 536), (967, 535), (970, 531), (975, 526), (1002, 487), (1033, 432), (1061, 376), (1093, 313), (1151, 209), (1170, 171)]",299.64445058557817,"[4, 5, 7, 3, 1, 2, 8, 9, 6]","(0, 0.25)",DOT007C,DOT,C,English,Fri Aug 24 13:11:16 2018,Mouse
1,3,3,0,90,7,7,1,359,119,240,136,0,500,200,8000,"[(960, 540), (960, 540), (960, 540), (960, 540), (960, 540), (960, 540), (960, 540), (960, 540), (960, 540), (960, 540), (960, 540), (962, 542), (965, 545), (970, 555), (973, 562), (974, 569), (974, 575), (974, 597), (974, 611), (972, 629), (969, 647), (963, 679), (958, 696), (954, 708), (951, 719), (942, 738), (938, 747), (934, 755), (929, 764), (920, 787), (915, 805), (910, 826), (906, 851), (900, 898), (899, 921), (899, 943)]",98.6072248117589,"[4, 5, 7, 3, 1, 2, 8, 9, 6]","(0, 0.25)",DOT007C,DOT,C,English,Fri Aug 24 13:11:16 2018,Mouse
1,3,3,0,91,3,3,1,349,149,200,136,0,500,200,8000,"[(960, 540), (960, 540), (960, 540), (960, 540), (960, 540), (960, 540), (960, 540), (960, 540), (960, 540), (960, 540), (960, 540), (960, 540), (960, 540), (960, 540), (959, 540), (959, 540), (957, 540), (954, 540), (953, 542), (949, 545), (943, 551), (939, 558), (932, 564), (925, 569), (901, 590), (876, 610), (861, 623), (843, 636), (805, 670), (787, 690), (768, 711), (744, 736), (692, 779), (673, 791), (653, 804)]",139.30661470912182,"[4, 5, 7, 3, 1, 2, 8, 9, 6]","(0, 0.25)",DOT007C,DOT,C,English,Fri Aug 24 13:11:16 2018,Mouse
1,3,3,0,92,2,3,0,-340,20,320,135,0,500,200,8000,"[(920, 586), (907, 598), (893, 607), (884, 613), (857, 637), (837, 660), (820, 681), (807, 694), (781, 712), (770, 715), (759, 721), (750, 724), (734, 731), (725, 736), (722, 737), (720, 739), (714, 742), (712, 744), (709, 745), (708, 746), (706, 748), (706, 749), (705, 749), (705, 750), (703, 753), (698, 755), (691, 758), (684, 760), (670, 767), (666, 769), (658, 774), (655, 776), (643, 782), (635, 785)]",142.9893267663969,"[4, 5, 7, 3, 1, 2, 8, 9, 6]","(0, 0.25)",DOT007C,DOT,C,English,Fri Aug 24 13:11:16 2018,Mouse
1,3,3,0,93,2,3,0,-270,60,210,136,0,500,200,8000,"[(960, 540), (960, 540), (960, 540), (960, 540), (960, 540), (959, 540), (957, 541), (956, 542), (955, 544), (952, 550), (947, 557), (941, 563), (935, 569), (923, 583), (916, 590), (907, 597), (895, 607), (854, 640), (837, 653), (820, 664), (800, 678), (762, 699), (746, 711), (727, 719), (709, 729), (664, 762), (632, 787)]",143.01846921823326,"[4, 5, 7, 3, 1, 2, 8, 9, 6]","(0, 0.25)",DOT007C,DOT,C,English,Fri Aug 24 13:11:16 2018,Mouse
1,3,3,0,94,2,2,1,570,180,390,137,0,500,200,8000,"[(960, 540), (960, 540), (960, 540), (960, 540), (960, 540), (960, 540), (960, 540), (960, 540), (960, 540), (960, 540), (960, 540), (960, 540), (960, 540), (960, 540), (960, 540), (960, 540), (960, 540), (959, 540), (955, 540), (950, 540), (947, 540), (941, 540), (939, 541), (937, 542), (933, 543), (931, 544), (929, 544), (929, 544), (928, 544), (926, 544), (926, 544), (925, 544), (925, 544), (923, 544), (922, 545), (922, 545), (922, 545), (922, 545), (922, 545), (920, 545), (919, 545), (914, 524), (907, 506), (896, 485), (886, 470), (868, 450), (857, 441), (844, 431), (830, 422), (809, 405), (795, 392), (781, 377), (760, 357), (718, 319), (700, 300), (678, 272), (659, 244)]",224.52014706938678,"[4, 5, 7, 3, 1, 2, 8, 9, 6]","(0, 0.25)",DOT007C,DOT,C,English,Fri Aug 24 13:11:16 2018,Mouse
1,3,3,0,95,3,3,1,281,11,270,137,0,500,200,8000,"[(960, 540), (951, 548), (941, 555), (927, 565), (902, 582), (893, 590), (884, 596), (876, 601), (861, 611), (855, 616), (846, 621), (836, 628), (809, 641), (789, 652), (778, 659), (761, 668), (741, 681), (732, 687), (727, 691), (722, 696), (709, 706), (701, 711), (691, 714), (677, 717), (644, 720), (632, 721), (621, 725), (615, 727), (604, 735)]",151.28815191929266,"[4, 5, 7, 3, 1, 2, 8, 9, 6]","(0, 0.25)",DOT007C,DOT,C,English,Fri Aug 24 13:11:16 2018,Mouse
1,3,3,0,96,9,9,1,211,11,200,136,0,500,200,8000,"[(960, 540), (964, 533), (969, 526), (977, 511), (982, 502), (986, 495), (993, 486), (1009, 464), (1023, 444), (1039, 422), (1056, 394), (1095, 345), (1111, 323), (1121, 306), (1128, 291), (1139, 265), (1143, 255), (1146, 245), (1149, 235), (1156, 209), (1160, 196), (1166, 184)]",300.0558927269397,"[4, 5, 7, 3, 1, 2, 8, 9, 6]","(0, 0.25)",DOT007C,DOT,C,English,Fri Aug 24 13:11:16 2018,Mouse
1,3,3,0,97,5,5,1,289,19,270,135,0,500,200,8000,"[(961, 542), (962, 544), (963, 545), (965, 549), (970, 555), (976, 562), (977, 564), (982, 570), (995, 585), (1001, 593), (1007, 600), (1014, 612), (1033, 635), (1040, 642), (1047, 650), (1056, 658), (1071, 670), (1077, 675), (1083, 680), (1088, 684), (1100, 694), (1106, 699), (1115, 708), (1127, 724), (1158, 758), (1176, 781), (1193, 801), (1207, 817), (1227, 841)]",48.4255894138663,"[4, 5, 7, 3, 1, 2, 8, 9, 6]","(0, 0.25)",DOT007C,DOT,C,English,Fri Aug 24 13:11:16 2018,Mouse
1,3,3,0,98,8,9,0,-380,70,310,134,0,500,200,8000,"[(960, 540), (960, 540), (960, 540), (960, 540), (960, 540), (960, 540), (962, 541), (965, 541), (966, 540), (968, 540), (968, 539), (968, 539), (968, 538), (968, 538), (968, 537), (969, 537), (969, 535), (970, 534), (976, 525), (982, 516), (990, 503), (1002, 477), (1022, 430), (1027, 415), (1031, 405), (1033, 398), (1046, 378), (1057, 361), (1067, 342), (1081, 317), (1102, 284), (1108, 271), (1115, 258), (1121, 247), (1131, 220), (1136, 206), (1139, 192), (1143, 181)]",297.01018146275726,"[4, 5, 7, 3, 1, 2, 8, 9, 6]","(0, 0.25)",DOT007C,DOT,C,English,Fri Aug 24 13:11:16 2018,Mouse
1,3,3,0,99,4,5,0,-360,20,340,135,0,500,200,8000,"[(962, 554), (967, 565), (969, 574), (973, 588), (976, 594), (979, 603), (982, 609), (992, 626), (998, 636), (1001, 648), (1006, 658), (1012, 675), (1014, 679), (1015, 684), (1015, 687), (1016, 694), (1016, 696), (1019, 702), (1020, 709), (1024, 719), (1025, 728), (1028, 736), (1030, 744), (1039, 759), (1041, 764), (1041, 765), (1044, 770), (1078, 824), (1090, 835), (1104, 851), (1115, 861), (1131, 877), (1136, 882), (1142, 886), (1147, 890), (1160, 900)]",60.94539590092286,"[4, 5, 7, 3, 1, 2, 8, 9, 6]","(0, 0.25)",DOT007C,DOT,C,English,Fri Aug 24 13:11:16 2018,Mouse
1,3,3,0,100,2,2,1,451,31,420,136,0,500,200,8000,"[(960, 540), (960, 540), (960, 540), (959, 539), (959, 539), (959, 539), (959, 539), (959, 539), (959, 539), (959, 539), (959, 539), (958, 539), (958, 539), (958, 539), (958, 539), (957, 539), (957, 539), (957, 539), (956, 539), (954, 539), (952, 539), (949, 539), (944, 539), (935, 538), (931, 538), (925, 537), (921, 537), (911, 536), (907, 535), (898, 534), (891, 531), (872, 524), (860, 519), (848, 514), (836, 508), (803, 488), (787, 480), (770, 467), (756, 456), (725, 428), (718, 418), (708, 403), (698, 384), (679, 351), (662, 324), (644, 291)]",218.23721505908497,"[4, 5, 7, 3, 1, 2, 8, 9, 6]","(0, 0.25)",DOT007C,DOT,C,English,Fri Aug 24 13:11:16 2018,Mouse
1,3,3,0,101,2,2,1,450,20,430,136,0,500,200,8000,"[(960, 540), (960, 541), (960, 541), (960, 541), (958, 544), (958, 545), (958, 547), (957, 550), (952, 557), (948, 561), (944, 566), (940, 570), (934, 578), (931, 581), (930, 583), (928, 585), (927, 587), (926, 588), (926, 588), (924, 590), (924, 590), (923, 590), (923, 590), (921, 590), (920, 591), (920, 591), (920, 591), (920, 591), (917, 586), (914, 579), (907, 568), (899, 554), (876, 521), (857, 493), (835, 465), (816, 437), (778, 383), (765, 363), (755, 351), (748, 341), (730, 318), (722, 307), (710, 291), (694, 269), (673, 237)]",226.5534031241682,"[4, 5, 7, 3, 1, 2, 8, 9, 6]","(0, 0.25)",DOT007C,DOT,C,English,Fri Aug 24 13:11:16 2018,Mouse
1,3,3,0,102,3,3,1,351,20,331,135,0,500,200,8000,"[(959, 542), (957, 543), (951, 549), (947, 554), (937, 563), (924, 578), (893, 627), (883, 644), (877, 654), (872, 661), (867, 668), (865, 672), (864, 674), (864, 677), (858, 688), (854, 696), (849, 704), (845, 715), (838, 735), (834, 743), (831, 752), (827, 758), (815, 772), (810, 777), (802, 781), (792, 787), (773, 797), (762, 801), (750, 807), (741, 809), (720, 818), (710, 820), (700, 824), (690, 825), (671, 830)]",134.90104365709252,"[4, 5, 7, 3, 1, 2, 8, 9, 6]","(0, 0.25)",DOT007C,DOT,C,English,Fri Aug 24 13:11:16 2018,Mouse
1,3,3,0,103,2,3,0,-500,20,480,134,0,500,200,8000,"[(946, 552), (924, 576), (864, 638), (839, 656), (821, 669), (809, 679), (792, 698), (785, 708), (777, 723), (768, 735), (750, 760), (742, 771), (735, 780), (728, 786), (723, 793), (721, 795), (721, 796), (719, 798), (717, 801), (716, 805), (713, 808), (710, 811), (703, 816), (699, 816), (696, 818), (693, 819), (690, 819), (690, 819), (689, 819), (689, 819), (689, 819), (687, 819), (687, 819), (687, 819), (687, 819), (686, 819), (686, 819), (686, 819), (683, 819), (681, 819), (680, 819), (679, 819), (679, 819), (678, 819), (678, 819), (678, 819), (677, 820), (677, 820), (675, 820), (673, 820)]",135.70731936854426,"[4, 5, 7, 3, 1, 2, 8, 9, 6]","(0, 0.25)",DOT007C,DOT,C,English,Fri Aug 24 13:11:16 2018,Mouse
1,3,3,0,104,8,9,0,-829,39,790,135,0,500,200,8000,"[(960, 540), (960, 540), (960, 540), (959, 539), (959, 539), (959, 539), (959, 539), (959, 539), (959, 539), (959, 539), (959, 539), (959, 539), (959, 539), (959, 539), (959, 539), (959, 539), (959, 539), (959, 539), (959, 539), (959, 539), (959, 539), (959, 539), (960, 538), (965, 534), (969, 529), (973, 521), (977, 512), (991, 482), (1000, 459), (1007, 442), (1013, 429), (1025, 411), (1030, 407), (1034, 404), (1036, 402), (1040, 399), (1040, 399), (1040, 399), (1040, 399), (1040, 399), (1040, 399), (1040, 399), (1040, 399), (1040, 399), (1040, 399), (1040, 399), (1040, 399), (1040, 399), (1040, 399), (1040, 399), (1040, 399), (1040, 399), (1040, 399), (1040, 399), (1040, 399), (1040, 399), (1040, 399), (1040, 399), (1040, 399), (1040, 399), (1040, 399), (1040, 399), (1040, 399), (1043, 396), (1044, 395), (1045, 394), (1046, 393), (1047, 392), (1047, 391), (1047, 390), (1050, 386), (1051, 380), (1055, 371), (1058, 355), (1064, 338), (1075, 299), (1077, 281), (1082, 259), (1084, 245), (1091, 209), (1096, 194), (1103, 174), (1109, 161)]",291.46176680095266,"[4, 5, 7, 3, 1, 2, 8, 9, 6]","(0, 0.25)",DOT007C,DOT,C,English,Fri Aug 24 13:11:16 2018,Mouse
1,3,3,0,105,3,3,1,369,99,270,136,0,500,200,8000,"[(960, 540), (960, 540), (960, 540), (960, 540), (960, 540), (960, 540), (960, 540), (960, 540), (960, 540), (958, 543), (956, 545), (949, 553), (947, 555), (944, 558), (941, 559), (935, 560), (932, 560), (925, 560), (920, 560), (910, 562), (902, 564), (892, 569), (881, 573), (856, 584), (845, 589), (831, 596), (818, 598), (794, 606), (783, 608), (772, 613), (761, 619), (738, 653), (726, 684), (714, 716), (703, 749), (679, 810), (669, 824)]",135.69747938246385,"[4, 5, 7, 3, 1, 2, 8, 9, 6]","(0, 0.25)",DOT007C,DOT,C,English,Fri Aug 24 13:11:16 2018,Mouse
1,3,3,0,106,2,2,1,300,20,280,136,0,500,200,8000,"[(960, 540), (959, 541), (958, 541), (955, 541), (948, 543), (927, 546), (915, 546), (902, 546), (889, 543), (861, 537), (847, 536), (835, 533), (822, 529), (789, 519), (766, 512), (740, 500), (716, 489), (677, 472), (667, 467), (661, 462), (656, 458), (650, 449), (650, 446), (650, 439), (648, 433), (638, 409), (630, 394), (620, 378), (613, 358), (612, 331)]",210.98796260562833,"[4, 5, 7, 3, 1, 2, 8, 9, 6]","(0, 0.25)",DOT007C,DOT,C,English,Fri Aug 24 13:11:16 2018,Mouse
1,3,3,0,107,6,6,1,789,249,540,135,0,500,200,8000,"[(960, 540), (960, 540), (960, 540), (960, 540), (960, 540), (960, 540), (960, 540), (960, 540), (960, 540), (960, 540), (960, 540), (960, 540), (960, 540), (960, 540), (960, 540), (960, 540), (960, 540), (960, 540), (960, 540), (960, 540), (960, 540), (960, 540), (960, 540), (960, 540), (966, 538), (973, 532), (988, 520), (993, 514), (998, 509), (1000, 506), (1007, 502), (1010, 500), (1011, 500), (1013, 499), (1021, 495), (1026, 493), (1032, 488), (1040, 481), (1050, 464), (1052, 460), (1055, 450), (1057, 437), (1063, 410), (1068, 396), (1071, 383), (1075, 367), (1084, 344), (1086, 338), (1089, 330), (1091, 324), (1094, 315), (1094, 315), (1094, 314), (1095, 312), (1097, 310), (1098, 309), (1100, 307), (1100, 307), (1101, 306), (1102, 305), (1102, 305), (1102, 305), (1102, 305), (1104, 305), (1106, 305), (1108, 305), (1117, 307), (1119, 309), (1122, 309), (1123, 309), (1128, 311), (1133, 313), (1140, 315), (1149, 316), (1179, 326), (1207, 334), (1235, 342), (1263, 350), (1322, 367)]",334.45683875168885,"[4, 5, 7, 3, 1, 2, 8, 9, 6]","(0, 0.25)",DOT007C,DOT,C,English,Fri Aug 24 13:11:16 2018,Mouse
1,3,3,0,108,9,9,1,221,51,170,134,0,500,200,8000,"[(960, 540), (960, 540), (960, 540), (960, 540), (960, 540), (960, 539), (960, 535), (961, 524), (965, 513), (971, 498), (982, 474), (1010, 418), (1027, 373), (1036, 345), (1039, 316), (1044, 280), (1047, 261), (1051, 240), (1058, 212), (1069, 173), (1073, 166), (1077, 158), (1082, 152)]",287.4548677932286,"[4, 5, 7, 3, 1, 2, 8, 9, 6]","(0, 0.25)",DOT007C,DOT,C,English,Fri Aug 24 13:11:16 2018,Mouse
1,3,3,0,109,5,1,0,-332,92,240,133,0,500,200,8000,"[(960, 540), (960, 540), (960, 540), (960, 540), (960, 540), (960, 540), (960, 540), (960, 540), (960, 540), (958, 540), (958, 540), (956, 540), (952, 540), (950, 540), (946, 540), (939, 540), (928, 540), (924, 540), (918, 540), (911, 540), (885, 534), (865, 529), (845, 527), (820, 523), (767, 515), (744, 513), (724, 513), (710, 513), (679, 513), (665, 513), (648, 513), (628, 512), (578, 506), (558, 506)]",184.83440630626328,"[4, 5, 7, 3, 1, 2, 8, 9, 6]","(0, 0.25)",DOT007C,DOT,C,English,Fri Aug 24 13:11:16 2018,Mouse
1,3,3,0,110,5,5,1,438,19,419,134,0,500,200,8000,"[(960, 541), (960, 543), (960, 544), (960, 546), (961, 548), (966, 556), (971, 561), (976, 565), (982, 568), (995, 573), (999, 575), (1006, 579), (1014, 585), (1025, 593), (1032, 598), (1037, 604), (1045, 609), (1056, 618), (1061, 622), (1066, 624), (1068, 626), (1076, 635), (1081, 640), (1085, 646), (1090, 654), (1102, 671), (1107, 680), (1111, 689), (1114, 696), (1119, 712), (1123, 723), (1125, 731), (1131, 750), (1140, 793), (1144, 807), (1145, 819), (1146, 827), (1149, 843), (1150, 849), (1153, 855), (1154, 859), (1159, 875), (1160, 883), (1167, 898)]",59.96297118943869,"[4, 5, 7, 3, 1, 2, 8, 9, 6]","(0, 0.25)",DOT007C,DOT,C,English,Fri Aug 24 13:11:16 2018,Mouse
1,3,3,0,111,7,7,1,671,481,190,134,0,500,200,8000,"[(960, 540), (960, 540), (960, 540), (960, 540), (960, 540), (960, 540), (960, 540), (960, 540), (960, 540), (960, 540), (960, 540), (960, 540), (960, 540), (960, 540), (960, 540), (960, 540), (960, 540), (960, 540), (960, 540), (960, 540), (960, 540), (960, 540), (960, 540), (960, 540), (960, 540), (960, 540), (960, 540), (960, 540), (960, 540), (960, 540), (960, 540), (960, 540), (960, 540), (960, 540), (960, 540), (960, 540), (960, 540), (960, 540), (960, 540), (960, 540), (960, 540), (960, 540), (960, 540), (960, 540), (960, 540), (960, 540), (960, 540), (960, 540), (959, 543), (959, 555), (959, 559), (959, 563), (957, 569), (956, 580), (956, 588), (956, 602), (956, 615), (956, 683), (956, 733), (945, 769), (930, 796), (901, 829), (880, 851), (868, 866), (854, 881), (841, 907), (837, 917), (836, 931)]",107.59567206994399,"[4, 5, 7, 3, 1, 2, 8, 9, 6]","(0, 0.25)",DOT007C,DOT,C,English,Fri Aug 24 13:11:16 2018,Mouse
1,3,3,0,112,4,5,0,-210,70,140,133,0,500,200,8000,"[(960, 540), (960, 540), (960, 540), (960, 540), (960, 540), (960, 540), (963, 540), (970, 546), (987, 555), (990, 558), (998, 566), (1004, 572), (1021, 590), (1036, 605), (1051, 619), (1077, 641), (1139, 697), (1168, 734), (1190, 760), (1217, 787), (1263, 839)]",44.61930274857324,"[4, 5, 7, 3, 1, 2, 8, 9, 6]","(0, 0.25)",DOT007C,DOT,C,English,Fri Aug 24 13:11:16 2018,Mouse
1,3,3,0,113,6,7,0,-660,270,390,134,0,500,200,8000,"[(960, 540), (960, 540), (960, 540), (960, 540), (960, 540), (960, 540), (960, 540), (960, 540), (960, 540), (960, 540), (960, 540), (960, 540), (960, 540), (960, 540), (960, 540), (960, 540), (960, 540), (960, 540), (960, 540), (960, 540), (960, 540), (960, 540), (960, 540), (960, 540), (960, 540), (960, 540), (959, 540), (959, 540), (959, 540), (959, 540), (958, 537), (958, 537), (958, 536), (958, 536), (958, 535), (958, 534), (958, 533), (958, 533), (958, 532), (958, 531), (958, 531), (958, 531), (958, 531), (958, 531), (958, 531), (958, 531), (958, 531), (958, 531), (958, 531), (958, 531), (958, 531), (958, 531), (958, 531), (957, 530), (952, 547), (949, 569), (944, 601), (939, 639), (920, 721), (911, 751), (903, 782), (895, 805), (881, 857), (873, 885), (868, 915), (863, 944)]",103.5010970496917,"[4, 5, 7, 3, 1, 2, 8, 9, 6]","(0, 0.25)",DOT007C,DOT,C,English,Fri Aug 24 13:11:16 2018,Mouse
1,3,3,0,114,6,7,0,-149,19,130,135,0,500,200,8000,"[(960, 559), (960, 579), (960, 604), (960, 657), (960, 679), (960, 702), (960, 738), (957, 789), (953, 819), (941, 845), (938, 869), (924, 907), (920, 919), (914, 929), (912, 939)]",96.85976000552581,"[4, 5, 7, 3, 1, 2, 8, 9, 6]","(0, 0.25)",DOT007C,DOT,C,English,Fri Aug 24 13:11:16 2018,Mouse
1,3,3,0,115,2,3,0,-200,20,180,136,0,500,200,8000,"[(958, 542), (955, 544), (951, 549), (944, 569), (933, 584), (921, 596), (909, 604), (889, 618), (881, 625), (872, 633), (861, 641), (834, 655), (814, 669), (787, 684), (764, 692), (723, 709), (702, 720), (680, 732), (660, 746), (628, 769)]",145.40367867035758,"[4, 5, 7, 3, 1, 2, 8, 9, 6]","(0, 0.25)",DOT007C,DOT,C,English,Fri Aug 24 13:11:16 2018,Mouse
1,3,3,0,116,1,1,1,301,11,290,137,0,500,200,8000,"[(960, 540), (954, 537), (950, 536), (936, 532), (928, 531), (919, 530), (909, 526), (891, 524), (881, 522), (873, 521), (866, 521), (856, 519), (847, 517), (840, 516), (832, 515), (815, 514), (804, 511), (794, 510), (783, 508), (765, 506), (756, 506), (745, 506), (733, 506), (700, 503), (679, 498), (658, 496), (637, 493), (601, 489), (588, 487), (575, 485), (561, 485)]",187.84845402122374,"[4, 5, 7, 3, 1, 2, 8, 9, 6]","(0, 0.25)",DOT007C,DOT,C,English,Fri Aug 24 13:11:16 2018,Mouse
1,3,3,0,117,8,9,0,-619,69,550,137,0,500,200,8000,"[(960, 540), (960, 540), (960, 540), (960, 540), (960, 540), (960, 540), (962, 539), (966, 536), (968, 533), (972, 530), (973, 528), (974, 527), (975, 527), (975, 527), (977, 525), (980, 523), (985, 519), (993, 514), (999, 510), (1013, 494), (1020, 486), (1025, 478), (1028, 473), (1035, 466), (1040, 462), (1046, 459), (1055, 456), (1077, 450), (1088, 448), (1099, 446), (1110, 442), (1126, 436), (1130, 433), (1131, 432), (1133, 430), (1133, 430), (1134, 430), (1135, 429), (1135, 429), (1136, 429), (1137, 428), (1138, 426), (1138, 423), (1138, 419), (1139, 414), (1139, 411), (1139, 407), (1139, 400), (1140, 395), (1141, 389), (1141, 382), (1142, 355), (1144, 341), (1144, 329), (1147, 320), (1152, 298), (1157, 285), (1160, 272), (1165, 256), (1172, 226), (1176, 210), (1177, 199)]",302.4711922908485,"[4, 5, 7, 3, 1, 2, 8, 9, 6]","(0, 0.25)",DOT007C,DOT,C,English,Fri Aug 24 13:11:16 2018,Mouse
1,3,3,0,118,4,5,0,-260,20,240,138,0,500,200,8000,"[(982, 592), (993, 634), (1000, 677), (1007, 707), (1019, 749), (1023, 758), (1026, 764), (1027, 767), (1031, 776), (1032, 782), (1036, 789), (1037, 796), (1041, 813), (1042, 819), (1045, 826), (1046, 831), (1049, 837), (1051, 841), (1053, 845), (1055, 849), (1066, 864), (1072, 872), (1081, 883), (1089, 892), (1106, 910), (1119, 924)]",67.50738810094131,"[4, 5, 7, 3, 1, 2, 8, 9, 6]","(0, 0.25)",DOT007C,DOT,C,English,Fri Aug 24 13:11:16 2018,Mouse
1,3,3,0,119,3,3,1,501,131,370,139,0,500,200,8000,"[(960, 540), (960, 540), (960, 540), (960, 540), (960, 540), (960, 540), (960, 540), (960, 540), (960, 540), (960, 540), (960, 540), (960, 540), (960, 540), (959, 540), (955, 536), (952, 534), (951, 533), (950, 532), (944, 528), (941, 526), (938, 524), (936, 523), (932, 521), (931, 520), (929, 520), (925, 518), (917, 513), (913, 512), (904, 507), (894, 503), (874, 495), (864, 492), (854, 491), (848, 491), (832, 491), (822, 495), (813, 503), (804, 511), (784, 529), (775, 539), (767, 550), (759, 561), (732, 595), (716, 615), (697, 636), (676, 662), (648, 695), (638, 707), (630, 717), (623, 725), (610, 744)]",149.76392380914353,"[4, 5, 7, 3, 1, 2, 8, 9, 6]","(0, 0.25)",DOT007C,DOT,C,English,Fri Aug 24 13:11:16 2018,Mouse
1,3,3,0,120,9,9,1,150,20,130,139,0,500,200,8000,"[(964, 535), (966, 530), (975, 507), (980, 489), (994, 455), (1008, 426), (1037, 372), (1050, 352), (1065, 327), (1083, 297), (1118, 247), (1132, 227), (1145, 207), (1153, 196), (1164, 173)]",299.0678578068012,"[4, 5, 7, 3, 1, 2, 8, 9, 6]","(0, 0.25)",DOT007C,DOT,C,English,Fri Aug 24 13:11:16 2018,Mouse
1,3,3,0,121,2,3,0,-280,20,260,138,0,500,200,8000,"[(960, 540), (960, 543), (955, 552), (951, 557), (944, 564), (935, 572), (912, 592), (904, 597), (896, 600), (889, 603), (856, 622), (839, 633), (812, 650), (789, 668), (742, 710), (729, 728), (719, 740), (711, 751), (702, 764), (698, 767), (696, 770), (691, 775), (681, 782), (675, 785), (671, 789), (666, 795), (660, 803), (657, 808)]",138.50761195951287,"[4, 5, 7, 3, 1, 2, 8, 9, 6]","(0, 0.25)",DOT007C,DOT,C,English,Fri Aug 24 13:11:16 2018,Mouse
1,3,3,0,122,9,9,1,91,11,80,139,0,500,200,8000,"[(960, 540), (978, 521), (1022, 457), (1043, 419), (1063, 376), (1082, 336), (1119, 253), (1130, 226), (1141, 203), (1150, 182)]",297.9560660636843,"[4, 5, 7, 3, 1, 2, 8, 9, 6]","(0, 0.25)",DOT007C,DOT,C,English,Fri Aug 24 13:11:16 2018,Mouse
1,3,3,0,123,1,1,1,331,21,310,139,0,500,200,8000,"[(960, 540), (960, 540), (957, 541), (951, 542), (941, 542), (933, 542), (924, 542), (915, 542), (900, 542), (892, 542), (883, 542), (874, 542), (857, 542), (850, 542), (844, 542), (839, 542), (829, 542), (827, 542), (822, 542), (815, 542), (798, 542), (788, 542), (777, 542), (766, 542), (743, 542), (734, 542), (726, 542), (717, 542), (695, 540), (683, 539), (662, 539), (633, 534), (577, 526), (539, 518)]",182.99135784073437,"[4, 5, 7, 3, 1, 2, 8, 9, 6]","(0, 0.25)",DOT007C,DOT,C,English,Fri Aug 24 13:11:16 2018,Mouse
1,3,3,0,124,5,5,1,519,19,500,138,0,500,200,8000,"[(962, 540), (965, 541), (966, 542), (968, 542), (969, 542), (975, 544), (978, 544), (982, 546), (986, 547), (996, 552), (1002, 554), (1005, 556), (1008, 557), (1013, 560), (1015, 560), (1017, 560), (1018, 561), (1023, 564), (1025, 566), (1027, 567), (1031, 569), (1035, 573), (1037, 574), (1039, 577), (1041, 579), (1046, 584), (1049, 587), (1051, 590), (1055, 594), (1057, 597), (1059, 600), (1060, 603), (1060, 604), (1062, 609), (1063, 612), (1063, 616), (1064, 621), (1070, 631), (1075, 638), (1078, 642), (1082, 647), (1093, 661), (1097, 671), (1102, 680), (1112, 693), (1129, 732), (1139, 761), (1148, 787), (1157, 815), (1164, 848), (1168, 868), (1175, 888)]",58.291560386256535,"[4, 5, 7, 3, 1, 2, 8, 9, 6]","(0, 0.25)",DOT007C,DOT,C,English,Fri Aug 24 13:11:16 2018,Mouse
1,3,3,0,125,9,9,1,250,20,230,137,0,500,200,8000,"[(961, 539), (964, 535), (969, 528), (975, 519), (986, 498), (990, 485), (1000, 464), (1014, 422), (1040, 356), (1044, 344), (1046, 338), (1047, 335), (1052, 328), (1057, 320), (1060, 314), (1067, 303), (1080, 281), (1086, 270), (1092, 257), (1098, 243), (1105, 220), (1108, 210), (1110, 202), (1115, 192), (1125, 173)]",294.2082679998898,"[4, 5, 7, 3, 1, 2, 8, 9, 6]","(0, 0.25)",DOT007C,DOT,C,English,Fri Aug 24 13:11:16 2018,Mouse
1,3,3,0,126,5,5,1,650,220,430,136,0,500,200,8000,"[(960, 540), (960, 540), (960, 540), (960, 540), (960, 540), (960, 540), (960, 540), (960, 540), (960, 540), (960, 540), (960, 540), (960, 540), (960, 540), (960, 540), (960, 540), (960, 540), (960, 540), (960, 540), (960, 540), (960, 540), (960, 540), (962, 540), (966, 540), (967, 540), (969, 540), (971, 540), (976, 541), (981, 542), (987, 546), (991, 547), (1005, 552), (1011, 555), (1016, 557), (1018, 559), (1021, 560), (1021, 560), (1021, 560), (1021, 560), (1025, 563), (1025, 564), (1027, 564), (1028, 567), (1029, 567), (1029, 568), (1029, 568), (1029, 568), (1029, 568), (1031, 569), (1031, 569), (1032, 570), (1036, 574), (1040, 582), (1047, 591), (1052, 602), (1064, 625), (1067, 634), (1069, 640), (1071, 646), (1076, 658), (1079, 665), (1087, 673), (1100, 692), (1155, 773), (1197, 826), (1235, 859)]",49.23639479905884,"[4, 5, 7, 3, 1, 2, 8, 9, 6]","(0, 0.25)",DOT007C,DOT,C,English,Fri Aug 24 13:11:16 2018,Mouse
1,3,3,0,127,4,4,1,330,70,260,135,0,500,200,8000,"[(960, 540), (960, 540), (960, 540), (960, 540), (960, 540), (960, 540), (961, 539), (961, 539), (965, 539), (969, 539), (972, 540), (975, 540), (980, 541), (980, 541), (982, 541), (982, 541), (985, 541), (987, 541), (992, 541), (1000, 541), (1030, 547), (1055, 553), (1081, 561), (1100, 566), (1130, 572), (1145, 576), (1165, 581), (1188, 589), (1244, 607), (1279, 622), (1310, 634), (1341, 644), (1380, 662)]",16.197322956152853,"[4, 5, 7, 3, 1, 2, 8, 9, 6]","(0, 0.25)",DOT007C,DOT,C,English,Fri Aug 24 13:11:16 2018,Mouse
1,3,3,0,128,9,7,0,-490,310,180,134,0,500,200,8000,"[(960, 540), (960, 540), (960, 540), (960, 540), (960, 540), (960, 540), (960, 540), (960, 540), (960, 540), (960, 540), (960, 540), (960, 540), (960, 540), (960, 540), (960, 540), (960, 540), (960, 540), (960, 540), (960, 540), (960, 540), (960, 540), (960, 540), (960, 540), (960, 540), (960, 540), (960, 540), (960, 540), (960, 540), (960, 540), (960, 540), (958, 543), (958, 551), (958, 557), (958, 565), (953, 623), (949, 645), (943, 664), (937, 677), (927, 712), (924, 736), (919, 763), (919, 807), (913, 866), (912, 886), (908, 900), (905, 910), (901, 927), (899, 934), (899, 940)]",98.67080145359097,"[4, 5, 7, 3, 1, 2, 8, 9, 6]","(0, 0.25)",DOT007C,DOT,C,English,Fri Aug 24 13:11:16 2018,Mouse
1,3,3,0,129,3,3,1,331,11,320,135,0,500,200,8000,"[(960, 540), (939, 548), (937, 550), (935, 550), (932, 553), (928, 557), (926, 558), (924, 561), (923, 561), (916, 566), (914, 569), (910, 574), (907, 577), (903, 583), (902, 585), (901, 588), (901, 590), (896, 600), (892, 606), (888, 614), (881, 622), (869, 643), (859, 654), (854, 663), (847, 671), (836, 680), (831, 685), (823, 692), (817, 698), (788, 724), (760, 747), (724, 770), (689, 788), (603, 825)]",141.3989566273689,"[4, 5, 7, 3, 1, 2, 8, 9, 6]","(0, 0.25)",DOT007C,DOT,C,English,Fri Aug 24 13:11:16 2018,Mouse
1,3,3,0,130,8,9,0,-269,20,249,135,0,500,200,8000,"[(962, 540), (967, 537), (973, 535), (977, 533), (978, 531), (982, 527), (989, 514), (992, 507), (999, 494), (1015, 474), (1044, 434), (1056, 419), (1068, 405), (1077, 391), (1099, 359), (1110, 336), (1122, 314), (1132, 295), (1141, 273), (1143, 266), (1144, 260), (1146, 253), (1146, 236), (1146, 225), (1146, 212), (1150, 196), (1155, 172)]",297.91872744469174,"[4, 5, 7, 3, 1, 2, 8, 9, 6]","(0, 0.25)",DOT007C,DOT,C,English,Fri Aug 24 13:11:16 2018,Mouse
1,3,3,0,131,8,8,1,350,70,280,136,0,500,200,8000,"[(960, 540), (960, 540), (960, 540), (960, 540), (960, 540), (960, 540), (958, 537), (953, 529), (948, 518), (944, 507), (935, 468), (932, 447), (931, 429), (928, 417), (922, 397), (920, 387), (917, 377), (911, 367), (903, 346), (900, 335), (898, 325), (898, 317), (898, 294), (898, 279), (898, 264), (898, 250), (898, 223), (898, 214), (898, 205), (898, 196), (898, 181), (898, 173), (895, 164), (894, 153), (890, 133)]",260.24116565653316,"[4, 5, 7, 3, 1, 2, 8, 9, 6]","(0, 0.25)",DOT007C,DOT,C,English,Fri Aug 24 13:11:16 2018,Mouse
1,3,3,0,132,3,3,1,390,20,370,136,0,500,200,8000,"[(949, 546), (936, 553), (912, 568), (901, 574), (888, 582), (876, 591), (854, 606), (844, 615), (836, 621), (828, 627), (818, 638), (814, 645), (810, 651), (805, 661), (800, 679), (799, 690), (799, 701), (799, 713), (796, 735), (793, 746), (792, 756), (788, 766), (783, 779), (781, 784), (778, 787), (776, 791), (770, 796), (765, 798), (760, 800), (753, 802), (745, 806), (739, 810), (733, 813), (724, 817), (710, 821), (700, 822), (695, 822), (686, 824), (676, 826)]",134.7989630021654,"[4, 5, 7, 3, 1, 2, 8, 9, 6]","(0, 0.25)",DOT007C,DOT,C,English,Fri Aug 24 13:11:16 2018,Mouse
1,3,3,0,133,8,9,0,-241,11,230,135,0,500,200,8000,"[(960, 540), (961, 533), (963, 525), (971, 508), (974, 495), (981, 477), (992, 453), (1002, 427), (1008, 410), (1017, 396), (1023, 384), (1037, 352), (1046, 335), (1051, 323), (1058, 311), (1072, 288), (1078, 278), (1083, 267), (1088, 257), (1096, 233), (1100, 222), (1103, 209), (1105, 198), (1111, 170), (1112, 159)]",291.7495346435655,"[4, 5, 7, 3, 1, 2, 8, 9, 6]","(0, 0.25)",DOT007C,DOT,C,English,Fri Aug 24 13:11:16 2018,Mouse
1,3,3,0,134,1,1,1,299,19,280,136,0,500,200,8000,"[(953, 541), (941, 543), (935, 544), (928, 545), (921, 549), (908, 552), (901, 554), (895, 557), (887, 559), (872, 562), (865, 564), (855, 565), (847, 566), (827, 567), (816, 570), (804, 572), (789, 573), (765, 577), (753, 578), (739, 581), (730, 582), (702, 586), (687, 587), (674, 587), (657, 587), (621, 587), (604, 587), (589, 587), (575, 587), (551, 587)]",173.44464271159723,"[4, 5, 7, 3, 1, 2, 8, 9, 6]","(0, 0.25)",DOT007C,DOT,C,English,Fri Aug 24 13:11:16 2018,Mouse
1,3,3,0,135,9,9,1,720,20,700,136,0,500,200,8000,"[(963, 540), (967, 541), (971, 543), (973, 543), (976, 543), (979, 544), (984, 545), (985, 545), (985, 545), (985, 545), (985, 545), (985, 545), (985, 545), (985, 545), (988, 545), (989, 545), (992, 545), (996, 544), (1001, 541), (1005, 538), (1008, 537), (1013, 533), (1024, 524), (1031, 518), (1043, 506), (1063, 489), (1103, 459), (1118, 447), (1129, 438), (1136, 432), (1149, 422), (1152, 420), (1154, 418), (1158, 415), (1169, 406), (1178, 398), (1190, 387), (1198, 380), (1207, 367), (1208, 363), (1209, 360), (1211, 357), (1211, 356), (1211, 355), (1211, 355), (1211, 354), (1211, 353), (1211, 353), (1211, 351), (1211, 350), (1211, 347), (1211, 346), (1210, 345), (1208, 345), (1203, 341), (1201, 341), (1200, 340), (1197, 338), (1195, 333), (1192, 327), (1190, 322), (1190, 319), (1185, 313), (1184, 311), (1183, 309), (1182, 306), (1179, 295), (1179, 283), (1179, 269), (1179, 254), (1188, 217), (1192, 200)]",304.30778784471596,"[4, 5, 7, 3, 1, 2, 8, 9, 6]","(0, 0.25)",DOT007C,DOT,C,English,Fri Aug 24 13:11:16 2018,Mouse
1,3,3,1,1,3,3,1,1078,1028,50,136,3,500,200,8000,"[(960, 540), (960, 540), (960, 540), (960, 540), (960, 540), (960, 540), (960, 540), (960, 540), (960, 540), (960, 540), (960, 540), (960, 540), (960, 540), (960, 540), (960, 540), (960, 540), (960, 540), (960, 540), (960, 540), (960, 540), (960, 540), (960, 540), (960, 540), (960, 540), (960, 540), (960, 540), (960, 540), (960, 540), (960, 540), (960, 540), (960, 540), (960, 540), (960, 540), (960, 540), (960, 540), (960, 540), (960, 540), (960, 540), (960, 540), (960, 540), (960, 540), (960, 540), (960, 540), (960, 540), (960, 540), (960, 540), (960, 540), (960, 540), (960, 540), (960, 540), (960, 540), (960, 540), (960, 540), (960, 540), (960, 540), (960, 540), (960, 540), (960, 540), (960, 540), (960, 540), (960, 540), (960, 540), (960, 540), (960, 540), (960, 540), (960, 540), (960, 540), (960, 540), (960, 540), (960, 540), (960, 540), (960, 540), (960, 540), (960, 540), (960, 540), (960, 540), (960, 540), (960, 540), (960, 540), (960, 540), (960, 540), (960, 540), (960, 540), (960, 540), (960, 540), (960, 540), (960, 540), (960, 540), (960, 540), (960, 540), (960, 540), (960, 540), (960, 540), (960, 540), (960, 540), (960, 540), (960, 540), (960, 540), (960, 540), (960, 540), (960, 540), (960, 540), (954, 542), (922, 569), (874, 609), (809, 662), (676, 793), (613, 877)]",135.83759792228793,"[4, 5, 7, 3, 1, 2, 8, 9, 6]","(0, 0.25)",DOT007C,DOT,C,English,Fri Aug 24 13:11:16 2018,Mouse
1,3,3,1,2,9,9,1,383,83,300,136,3,500,200,8000,"[(960, 540), (960, 540), (960, 540), (960, 540), (960, 540), (960, 540), (960, 540), (960, 540), (962, 540), (964, 540), (972, 540), (977, 540), (990, 540), (995, 540), (1001, 537), (1007, 535), (1019, 530), (1023, 526), (1027, 521), (1030, 515), (1037, 502), (1044, 490), (1052, 479), (1062, 463), (1090, 435), (1099, 423), (1107, 407), (1117, 381), (1132, 323), (1137, 294), (1139, 273), (1142, 262), (1146, 250), (1149, 241), (1149, 232), (1149, 223), (1149, 203), (1146, 190), (1143, 181)]",297.01018146275726,"[4, 5, 7, 3, 1, 2, 8, 9, 6]","(0, 0.25)",DOT007C,DOT,C,English,Fri Aug 24 13:11:16 2018,Mouse
