NativeLangNumber,LanuageNumber,SessionNumber,Block,TrialNum,ConditionNumber,Response,Accuracy,RT,MovementOnsetTime,TimeInMotion,SignalContrast,SignalContrastNumber,StimDisplayTime,MaskTime,MaxResponseTime,MousePositionXY,MouseAngle,WheelOrder,NoiseMuSigma,ParticipantID,LanuageTested,SessionTested,NativeLanuage,Date,ResponseDevice
1,3,3,0,1,8,8,1,1455,1015,440,153,0,500,200,8000,"[(960, 540), (960, 540), (960, 540), (960, 540), (960, 540), (960, 540), (960, 540), (960, 540), (960, 540), (960, 540), (960, 540), (960, 540), (960, 540), (960, 540), (960, 540), (960, 540), (960, 540), (960, 540), (960, 540), (960, 540), (960, 540), (960, 540), (960, 540), (960, 540), (960, 540), (960, 540), (960, 540), (960, 540), (960, 540), (960, 540), (960, 540), (960, 540), (960, 540), (960, 540), (960, 540), (960, 540), (960, 540), (960, 540), (960, 540), (960, 540), (960, 540), (960, 540), (960, 540), (960, 540), (960, 540), (960, 540), (960, 540), (960, 540), (960, 540), (960, 540), (960, 540), (960, 540), (960, 540), (960, 540), (960, 540), (960, 540), (960, 540), (960, 540), (960, 540), (960, 540), (960, 540), (960, 540), (960, 540), (960, 540), (960, 540), (960, 540), (960, 540), (960, 540), (960, 540), (960, 540), (960, 540), (960, 540), (960, 540), (960, 540), (960, 540), (960, 540), (960, 540), (960, 540), (960, 540), (960, 540), (960, 540), (960, 540), (960, 540), (960, 540), (960, 540), (960, 540), (960, 540), (960, 540), (960, 540), (960, 540), (960, 540), (960, 540), (960, 540), (960, 540), (960, 540), (960, 540), (960, 540), (960, 540), (960, 540), (960, 540), (960, 540), (960, 544), (950, 559), (904, 601), (875, 628), (839, 655), (806, 687), (755, 739), (742, 756), (734, 767), (731, 775), (728, 780), (728, 781), (728, 782), (728, 783), (728, 783), (729, 784), (730, 784), (734, 784), (741, 784), (749, 784), (755, 781), (761, 780), (770, 776), (776, 773), (778, 772), (781, 772), (786, 769), (787, 769), (789, 768), (789, 768), (792, 768), (796, 766), (797, 765), (799, 765), (800, 765), (800, 765), (800, 765), (801, 766), (805, 780), (809, 792), (816, 809), (825, 832), (846, 882), (858, 903), (874, 931)]",102.40462306587325,"[1, 4, 8, 6, 5, 2, 7, 9, 3]","(0, 0.25)",DOT001C,DOT,C,English,Fri Aug 17 12:29:37 2018,Mouse
1,3,3,0,2,7,2,0,-1591,451,1140,153,0,500,200,8000,"[(960, 540), (960, 540), (960, 540), (960, 540), (960, 540), (960, 540), (960, 540), (960, 540), (960, 540), (960, 540), (960, 540), (960, 540), (960, 540), (960, 540), (960, 540), (960, 540), (960, 540), (960, 540), (960, 540), (960, 540), (960, 540), (960, 540), (960, 540), (960, 540), (960, 540), (960, 540), (960, 540), (960, 540), (960, 540), (960, 540), (960, 540), (960, 540), (960, 540), (960, 540), (960, 540), (960, 540), (960, 540), (960, 540), (960, 540), (960, 540), (960, 540), (960, 540), (960, 540), (960, 540), (960, 540), (958, 540), (948, 545), (918, 560), (875, 584), (763, 621), (709, 631), (655, 639), (620, 642), (586, 647), (578, 647), (578, 647), (578, 647), (578, 647), (578, 647), (578, 647), (579, 647), (588, 647), (590, 647), (593, 647), (596, 647), (598, 647), (599, 647), (600, 647), (602, 647), (602, 647), (602, 647), (602, 647), (602, 647), (603, 647), (603, 647), (603, 647), (603, 647), (605, 647), (606, 647), (606, 647), (606, 647), (608, 647), (608, 647), (610, 647), (612, 647), (616, 648), (619, 649), (623, 651), (625, 651), (628, 651), (631, 651), (631, 651), (634, 651), (637, 651), (641, 651), (642, 651), (642, 651), (642, 651), (642, 651), (642, 651), (642, 651), (642, 651), (642, 651), (642, 651), (642, 651), (642, 651), (642, 651), (642, 651), (642, 651), (642, 651), (642, 651), (642, 651), (642, 651), (642, 651), (642, 651), (642, 651), (642, 651), (642, 651), (642, 651), (642, 651), (642, 651), (642, 651), (642, 651), (642, 651), (642, 651), (642, 651), (642, 651), (642, 651), (642, 651), (642, 651), (642, 651), (642, 651), (642, 651), (642, 651), (642, 651), (642, 651), (642, 651), (642, 651), (642, 651), (642, 651), (642, 651), (642, 651), (642, 651), (642, 651), (642, 651), (642, 651), (642, 651), (642, 651), (642, 651), (644, 651), (650, 647), (655, 637), (660, 622), (678, 553), (682, 500), (692, 440), (700, 378), (712, 278), (718, 227), (728, 181)]",237.12785688818434,"[1, 4, 8, 6, 5, 2, 7, 9, 3]","(0, 0.25)",DOT001C,DOT,C,English,Fri Aug 17 12:29:37 2018,Mouse
1,3,3,0,3,3,3,1,418,308,110,154,0,500,200,8000,"[(960, 540), (960, 540), (960, 540), (960, 540), (960, 540), (960, 540), (960, 540), (960, 540), (960, 540), (960, 540), (960, 540), (960, 540), (960, 540), (960, 540), (960, 540), (960, 540), (960, 540), (960, 540), (960, 540), (960, 540), (960, 540), (960, 540), (960, 540), (960, 540), (960, 540), (960, 540), (960, 540), (960, 540), (960, 540), (960, 540), (962, 541), (963, 540), (969, 538), (974, 534), (983, 529), (994, 523), (1042, 493), (1081, 466), (1133, 434), (1181, 410), (1272, 358), (1309, 339)]",330.0610160964786,"[1, 4, 8, 6, 5, 2, 7, 9, 3]","(0, 0.25)",DOT001C,DOT,C,English,Fri Aug 17 12:29:37 2018,Mouse
1,3,3,0,4,6,6,1,790,720,70,154,0,500,200,8000,"[(960, 540), (960, 540), (960, 540), (960, 540), (960, 540), (960, 540), (960, 540), (960, 540), (960, 540), (960, 540), (960, 540), (960, 540), (960, 540), (960, 540), (960, 540), (960, 540), (960, 540), (960, 540), (960, 540), (960, 540), (960, 540), (960, 540), (960, 540), (960, 540), (960, 540), (960, 540), (960, 540), (960, 540), (960, 540), (960, 540), (960, 540), (960, 540), (960, 540), (960, 540), (960, 540), (960, 540), (960, 540), (960, 540), (960, 540), (960, 540), (960, 540), (960, 540), (960, 540), (960, 540), (960, 540), (960, 540), (960, 540), (960, 540), (960, 540), (960, 540), (960, 540), (960, 540), (960, 540), (960, 540), (960, 540), (960, 540), (960, 540), (960, 540), (960, 540), (960, 540), (960, 540), (960, 540), (960, 540), (960, 540), (960, 540), (960, 540), (960, 540), (960, 540), (960, 540), (960, 540), (960, 540), (959, 540), (957, 540), (921, 569), (886, 600), (840, 646), (788, 697), (681, 811), (633, 867)]",135.0,"[1, 4, 8, 6, 5, 2, 7, 9, 3]","(0, 0.25)",DOT001C,DOT,C,English,Fri Aug 17 12:29:37 2018,Mouse
1,3,3,0,5,7,7,1,1150,420,730,153,0,500,200,8000,"[(960, 540), (960, 540), (960, 540), (960, 540), (960, 540), (960, 540), (960, 540), (960, 540), (960, 540), (960, 540), (960, 540), (960, 540), (960, 540), (960, 540), (960, 540), (960, 540), (960, 540), (960, 540), (960, 540), (960, 540), (960, 540), (960, 540), (960, 540), (960, 540), (960, 540), (960, 540), (960, 540), (960, 540), (960, 540), (960, 540), (960, 540), (960, 540), (960, 540), (960, 540), (960, 540), (960, 540), (960, 540), (960, 540), (960, 540), (960, 540), (960, 540), (960, 539), (960, 539), (958, 539), (958, 539), (955, 540), (952, 541), (951, 542), (949, 543), (946, 544), (944, 544), (944, 544), (944, 544), (941, 544), (938, 546), (934, 546), (927, 547), (901, 549), (888, 549), (873, 549), (861, 549), (832, 549), (822, 549), (815, 549), (811, 549), (808, 549), (808, 549), (808, 549), (808, 549), (808, 549), (808, 549), (808, 549), (808, 549), (808, 549), (808, 549), (808, 549), (808, 549), (808, 549), (808, 549), (808, 549), (808, 549), (808, 549), (808, 549), (808, 549), (808, 549), (808, 549), (808, 549), (808, 549), (808, 549), (808, 549), (808, 549), (808, 549), (808, 549), (808, 549), (808, 549), (808, 549), (808, 549), (808, 549), (808, 549), (808, 549), (808, 549), (808, 549), (808, 549), (808, 549), (808, 549), (808, 547), (809, 543), (810, 536), (814, 521), (824, 462), (832, 405), (838, 343), (846, 286), (868, 153), (876, 91)]",259.4034602872141,"[1, 4, 8, 6, 5, 2, 7, 9, 3]","(0, 0.25)",DOT001C,DOT,C,English,Fri Aug 17 12:29:37 2018,Mouse
1,3,3,0,6,5,5,1,1580,1500,80,152,0,500,200,8000,"[(960, 540), (960, 540), (960, 540), (960, 540), (960, 540), (960, 540), (960, 540), (960, 540), (960, 540), (960, 540), (960, 540), (960, 540), (960, 540), (960, 540), (960, 540), (960, 540), (960, 540), (960, 540), (960, 540), (960, 540), (960, 540), (960, 540), (960, 540), (960, 540), (960, 540), (960, 540), (960, 540), (960, 540), (960, 540), (960, 540), (960, 540), (960, 540), (960, 540), (960, 540), (960, 540), (960, 540), (960, 540), (960, 540), (960, 540), (960, 540), (960, 540), (960, 540), (960, 540), (960, 540), (960, 540), (960, 540), (960, 540), (960, 540), (960, 540), (960, 540), (960, 540), (960, 540), (960, 540), (960, 540), (960, 540), (960, 540), (960, 540), (960, 540), (960, 540), (960, 540), (960, 540), (960, 540), (960, 540), (960, 540), (960, 540), (960, 540), (960, 540), (960, 540), (960, 540), (960, 540), (960, 540), (960, 540), (960, 540), (960, 540), (960, 540), (960, 540), (960, 540), (960, 540), (960, 540), (960, 540), (960, 540), (960, 540), (960, 540), (960, 540), (960, 540), (960, 540), (960, 540), (960, 540), (960, 540), (960, 540), (960, 540), (960, 540), (960, 540), (960, 540), (960, 540), (960, 540), (960, 540), (960, 540), (960, 540), (960, 540), (960, 540), (960, 540), (960, 540), (960, 540), (960, 540), (960, 540), (960, 540), (960, 540), (960, 540), (960, 540), (960, 540), (960, 540), (960, 540), (960, 540), (960, 540), (960, 540), (960, 540), (960, 540), (960, 540), (960, 540), (960, 540), (960, 540), (960, 540), (960, 540), (960, 540), (960, 540), (960, 540), (960, 540), (960, 540), (960, 540), (960, 540), (960, 540), (960, 540), (960, 540), (960, 540), (960, 540), (960, 540), (960, 540), (960, 540), (960, 540), (960, 540), (960, 540), (960, 540), (960, 540), (960, 540), (960, 540), (960, 540), (960, 540), (960, 540), (956, 540), (944, 542), (924, 545), (893, 549), (799, 560), (744, 570), (688, 576), (626, 579), (529, 580)]",174.6977147010259,"[1, 4, 8, 6, 5, 2, 7, 9, 3]","(0, 0.25)",DOT001C,DOT,C,English,Fri Aug 17 12:29:37 2018,Mouse
1,3,3,0,7,4,8,0,-3150,790,2360,151,0,500,200,8000,"[(960, 540), (960, 540), (960, 540), (960, 540), (960, 540), (960, 540), (960, 540), (960, 540), (960, 540), (960, 540), (960, 540), (960, 540), (960, 540), (960, 540), (960, 540), (960, 540), (960, 540), (960, 540), (960, 540), (960, 540), (960, 540), (960, 540), (960, 540), (960, 540), (960, 540), (960, 540), (960, 540), (960, 540), (960, 540), (960, 540), (960, 540), (960, 540), (960, 540), (960, 540), (960, 540), (960, 540), (960, 540), (960, 540), (960, 540), (960, 540), (960, 540), (960, 540), (960, 540), (960, 540), (960, 540), (960, 540), (960, 540), (960, 540), (960, 540), (960, 540), (960, 540), (960, 540), (960, 540), (960, 540), (960, 540), (960, 540), (960, 540), (960, 540), (960, 540), (960, 540), (960, 540), (960, 540), (960, 540), (960, 540), (960, 540), (960, 540), (960, 540), (960, 540), (960, 540), (960, 540), (960, 540), (960, 540), (960, 540), (960, 540), (960, 540), (960, 540), (960, 540), (960, 540), (961, 543), (961, 547), (962, 549), (962, 551), (963, 552), (963, 553), (963, 553), (963, 553), (963, 553), (963, 553), (963, 553), (963, 553), (963, 553), (963, 553), (963, 553), (963, 553), (963, 553), (963, 553), (963, 553), (963, 553), (963, 553), (963, 553), (963, 553), (963, 553), (963, 553), (963, 553), (963, 553), (963, 553), (963, 553), (963, 553), (963, 553), (963, 553), (963, 553), (963, 553), (963, 553), (963, 553), (963, 553), (963, 553), (963, 553), (963, 553), (963, 553), (963, 553), (963, 553), (963, 553), (963, 553), (963, 553), (963, 553), (963, 553), (963, 553), (963, 553), (963, 553), (963, 553), (963, 553), (963, 553), (963, 553), (963, 553), (963, 553), (963, 553), (963, 553), (963, 553), (963, 553), (963, 553), (963, 553), (963, 553), (963, 553), (963, 553), (963, 553), (963, 553), (963, 553), (963, 553), (963, 553), (963, 553), (963, 553), (963, 553), (963, 553), (963, 553), (963, 553), (963, 553), (963, 553), (963, 553), (963, 553), (963, 553), (963, 553), (963, 553), (963, 553), (963, 553), (963, 553), (963, 553), (963, 553), (963, 553), (963, 553), (963, 553), (963, 553), (963, 553), (963, 553), (963, 553), (963, 553), (963, 553), (963, 553), (963, 553), (963, 553), (963, 553), (963, 553), (963, 553), (963, 553), (963, 553), (963, 553), (963, 553), (963, 553), (963, 553), (963, 553), (963, 553), (963, 553), (963, 553), (963, 553), (963, 553), (963, 553), (963, 553), (963, 553), (963, 553), (963, 553), (963, 553), (963, 553), (963, 553), (963, 553), (963, 553), (963, 553), (963, 553), (963, 553), (963, 553), (963, 553), (963, 553), (963, 553), (963, 553), (963, 553), (963, 553), (963, 553), (963, 553), (963, 553), (963, 553), (963, 553), (963, 553), (963, 553), (963, 553), (963, 553), (963, 553), (963, 553), (963, 553), (963, 553), (963, 553), (963, 553), (963, 553), (963, 553), (963, 553), (963, 553), (963, 553), (963, 553), (963, 553), (963, 553), (963, 553), (963, 553), (963, 553), (963, 553), (963, 553), (963, 553), (963, 553), (963, 553), (963, 553), (963, 553), (963, 553), (963, 553), (963, 553), (963, 553), (963, 553), (963, 553), (963, 553), (963, 553), (963, 553), (963, 553), (963, 553), (963, 553), (963, 553), (963, 553), (963, 553), (963, 553), (963, 553), (963, 553), (963, 553), (963, 553), (963, 553), (963, 553), (963, 553), (963, 553), (963, 553), (963, 553), (963, 553), (963, 553), (963, 553), (963, 553), (963, 553), (963, 553), (963, 553), (963, 553), (963, 553), (963, 553), (963, 553), (963, 553), (963, 553), (963, 553), (963, 553), (963, 553), (963, 553), (963, 553), (963, 553), (963, 553), (963, 553), (963, 553), (963, 553), (963, 553), (963, 553), (963, 553), (963, 553), (963, 553), (963, 553), (963, 559), (963, 566), (963, 576), (962, 588), (954, 623), (946, 648), (938, 679), (929, 709), (904, 798), (891, 840), (881, 884), (874, 924), (864, 981)]",102.28095440509938,"[1, 4, 8, 6, 5, 2, 7, 9, 3]","(0, 0.25)",DOT001C,DOT,C,English,Fri Aug 17 12:29:37 2018,Mouse
1,3,3,0,8,2,2,1,530,450,80,152,0,500,200,8000,"[(960, 540), (960, 540), (960, 540), (960, 540), (960, 540), (960, 540), (960, 540), (960, 540), (960, 540), (960, 540), (960, 540), (960, 540), (960, 540), (960, 540), (960, 540), (960, 540), (960, 540), (960, 540), (960, 540), (960, 540), (960, 540), (960, 540), (960, 540), (960, 540), (960, 540), (960, 540), (960, 540), (960, 540), (960, 540), (960, 540), (960, 540), (960, 540), (960, 540), (960, 540), (960, 540), (960, 540), (960, 540), (960, 540), (960, 540), (960, 540), (960, 540), (960, 540), (960, 540), (960, 540), (960, 539), (959, 535), (936, 524), (909, 508), (884, 494), (836, 474), (728, 397), (675, 357), (614, 320)]",212.44975728267787,"[1, 4, 8, 6, 5, 2, 7, 9, 3]","(0, 0.25)",DOT001C,DOT,C,English,Fri Aug 17 12:29:37 2018,Mouse
1,3,3,0,9,5,5,1,449,369,80,152,0,500,200,8000,"[(960, 540), (960, 540), (960, 540), (960, 540), (960, 540), (960, 540), (960, 540), (960, 540), (960, 540), (960, 540), (960, 540), (960, 540), (960, 540), (960, 540), (960, 540), (960, 540), (960, 540), (960, 540), (960, 540), (960, 540), (960, 540), (960, 540), (960, 540), (960, 540), (960, 540), (960, 540), (960, 540), (960, 540), (960, 540), (960, 540), (960, 540), (960, 540), (960, 540), (960, 540), (960, 540), (960, 540), (944, 546), (925, 550), (901, 553), (866, 558), (770, 566), (712, 566), (648, 566), (579, 566), (479, 566)]",176.9059419410829,"[1, 4, 8, 6, 5, 2, 7, 9, 3]","(0, 0.25)",DOT001C,DOT,C,English,Fri Aug 17 12:29:37 2018,Mouse
1,3,3,0,10,8,8,1,1090,1000,90,151,0,500,200,8000,"[(960, 540), (960, 540), (960, 540), (960, 540), (960, 540), (960, 540), (960, 540), (960, 540), (960, 540), (960, 540), (960, 540), (960, 540), (960, 540), (960, 540), (960, 540), (960, 540), (960, 540), (960, 540), (960, 540), (960, 540), (960, 540), (960, 540), (960, 540), (960, 540), (960, 540), (960, 540), (960, 540), (960, 540), (960, 540), (960, 540), (960, 540), (960, 540), (960, 540), (960, 540), (960, 540), (960, 540), (960, 540), (960, 540), (960, 540), (960, 540), (960, 540), (960, 540), (960, 540), (960, 540), (960, 540), (960, 540), (960, 540), (960, 540), (960, 540), (960, 540), (960, 540), (960, 540), (960, 540), (960, 540), (960, 540), (960, 540), (960, 540), (960, 540), (960, 540), (960, 540), (960, 540), (960, 540), (960, 540), (960, 540), (960, 540), (960, 540), (960, 540), (960, 540), (960, 540), (960, 540), (960, 540), (960, 540), (960, 540), (960, 540), (960, 540), (960, 540), (960, 540), (960, 540), (960, 540), (960, 540), (960, 540), (960, 540), (960, 540), (960, 540), (960, 540), (960, 540), (960, 540), (960, 540), (960, 540), (960, 540), (960, 540), (960, 540), (960, 540), (960, 540), (960, 540), (960, 540), (960, 540), (960, 540), (960, 540), (961, 541), (960, 552), (952, 582), (925, 679), (915, 720), (912, 757), (907, 787), (893, 857), (887, 895), (882, 941)]",101.0073651595474,"[1, 4, 8, 6, 5, 2, 7, 9, 3]","(0, 0.25)",DOT001C,DOT,C,English,Fri Aug 17 12:29:37 2018,Mouse
1,3,3,0,11,4,4,1,351,251,100,150,0,500,200,8000,"[(960, 540), (960, 540), (960, 540), (960, 540), (960, 540), (960, 540), (960, 540), (960, 540), (960, 540), (960, 540), (960, 540), (960, 540), (960, 540), (960, 540), (960, 540), (960, 540), (960, 540), (960, 540), (960, 540), (960, 540), (960, 540), (960, 540), (960, 540), (960, 540), (960, 540), (965, 541), (971, 552), (980, 563), (988, 575), (1013, 610), (1030, 637), (1051, 675), (1074, 724), (1111, 815), (1131, 857), (1146, 905)]",62.997107502508335,"[1, 4, 8, 6, 5, 2, 7, 9, 3]","(0, 0.25)",DOT001C,DOT,C,English,Fri Aug 17 12:29:37 2018,Mouse
1,3,3,0,12,7,7,1,771,611,160,149,0,500,200,8000,"[(960, 540), (960, 540), (960, 540), (960, 540), (960, 540), (960, 540), (960, 540), (960, 540), (960, 540), (960, 540), (960, 540), (960, 540), (960, 540), (960, 540), (960, 540), (960, 540), (960, 540), (960, 540), (960, 540), (960, 540), (960, 540), (960, 540), (960, 540), (960, 540), (960, 540), (960, 540), (960, 540), (960, 540), (960, 540), (960, 540), (960, 540), (960, 540), (960, 540), (960, 540), (960, 540), (960, 540), (960, 540), (960, 540), (960, 540), (960, 540), (960, 540), (960, 540), (960, 540), (960, 540), (960, 540), (960, 540), (960, 540), (960, 540), (960, 540), (960, 540), (960, 540), (960, 540), (960, 540), (960, 540), (960, 540), (960, 540), (960, 540), (960, 540), (960, 540), (960, 540), (960, 540), (959, 534), (959, 532), (959, 529), (959, 526), (959, 516), (959, 511), (958, 501), (956, 490), (952, 465), (947, 447), (944, 424), (934, 393), (910, 317), (893, 277), (879, 233), (867, 196), (848, 137)]",254.46855655133885,"[1, 4, 8, 6, 5, 2, 7, 9, 3]","(0, 0.25)",DOT001C,DOT,C,English,Fri Aug 17 12:29:37 2018,Mouse
1,3,3,0,13,7,7,1,311,231,80,148,0,500,200,8000,"[(960, 540), (960, 540), (960, 540), (960, 540), (960, 540), (960, 540), (960, 540), (960, 540), (960, 540), (960, 540), (960, 540), (960, 540), (960, 540), (960, 540), (960, 540), (960, 540), (960, 540), (960, 540), (960, 540), (960, 540), (960, 540), (960, 540), (960, 540), (960, 521), (960, 505), (960, 479), (960, 446), (945, 351), (933, 299), (921, 236), (911, 179), (884, 66)]",260.89086647972255,"[1, 4, 8, 6, 5, 2, 7, 9, 3]","(0, 0.25)",DOT001C,DOT,C,English,Fri Aug 17 12:29:37 2018,Mouse
1,3,3,0,14,8,8,1,859,779,80,147,0,500,200,8000,"[(960, 540), (960, 540), (960, 540), (960, 540), (960, 540), (960, 540), (960, 540), (960, 540), (960, 540), (960, 540), (960, 540), (960, 540), (960, 540), (960, 540), (960, 540), (960, 540), (960, 540), (960, 540), (960, 540), (960, 540), (960, 540), (960, 540), (960, 540), (960, 540), (960, 540), (960, 540), (960, 540), (960, 540), (960, 540), (960, 540), (960, 540), (960, 540), (960, 540), (960, 540), (960, 540), (960, 540), (960, 540), (960, 540), (960, 540), (960, 540), (960, 540), (960, 540), (960, 540), (960, 540), (960, 540), (960, 540), (960, 540), (960, 540), (960, 540), (960, 540), (960, 540), (960, 540), (960, 540), (960, 540), (960, 540), (960, 540), (960, 540), (960, 540), (960, 540), (960, 540), (960, 540), (960, 540), (960, 540), (960, 540), (960, 540), (960, 540), (960, 540), (960, 540), (960, 540), (960, 540), (960, 540), (960, 540), (960, 540), (960, 540), (960, 540), (960, 540), (960, 540), (960, 541), (957, 573), (950, 609), (943, 652), (937, 698), (923, 800), (917, 857), (913, 910), (909, 961)]",96.90716272380465,"[1, 4, 8, 6, 5, 2, 7, 9, 3]","(0, 0.25)",DOT001C,DOT,C,English,Fri Aug 17 12:29:37 2018,Mouse
1,3,3,0,15,6,6,1,789,729,60,146,0,500,200,8000,"[(960, 540), (960, 540), (960, 540), (960, 540), (960, 540), (960, 540), (960, 540), (960, 540), (960, 540), (960, 540), (960, 540), (960, 540), (960, 540), (960, 540), (960, 540), (960, 540), (960, 540), (960, 540), (960, 540), (960, 540), (960, 540), (960, 540), (960, 540), (960, 540), (960, 540), (960, 540), (960, 540), (960, 540), (960, 540), (960, 540), (960, 540), (960, 540), (960, 540), (960, 540), (960, 540), (960, 540), (960, 540), (960, 540), (960, 540), (960, 540), (960, 540), (960, 540), (960, 540), (960, 540), (960, 540), (960, 540), (960, 540), (960, 540), (960, 540), (960, 540), (960, 540), (960, 540), (960, 540), (960, 540), (960, 540), (960, 540), (960, 540), (960, 540), (960, 540), (960, 540), (960, 540), (960, 540), (960, 540), (960, 540), (960, 540), (960, 540), (960, 540), (960, 540), (960, 540), (960, 540), (960, 540), (960, 540), (954, 545), (940, 564), (914, 596), (831, 690), (771, 749), (708, 815), (640, 883)]",133.0131603727672,"[1, 4, 8, 6, 5, 2, 7, 9, 3]","(0, 0.25)",DOT001C,DOT,C,English,Fri Aug 17 12:29:37 2018,Mouse
1,3,3,0,16,8,4,0,-780,660,120,145,0,500,200,8000,"[(960, 540), (960, 540), (960, 540), (960, 540), (960, 540), (960, 540), (960, 540), (960, 540), (960, 540), (960, 540), (960, 540), (960, 540), (960, 540), (960, 540), (960, 540), (960, 540), (960, 540), (960, 540), (960, 540), (960, 540), (960, 540), (960, 540), (960, 540), (960, 540), (960, 540), (960, 540), (960, 540), (960, 540), (960, 540), (960, 540), (960, 540), (960, 540), (960, 540), (960, 540), (960, 540), (960, 540), (960, 540), (960, 540), (960, 540), (960, 540), (960, 540), (960, 540), (960, 540), (960, 540), (960, 540), (960, 540), (960, 540), (960, 540), (960, 540), (960, 540), (960, 540), (960, 540), (960, 540), (960, 540), (960, 540), (960, 540), (960, 540), (960, 540), (960, 540), (960, 540), (960, 540), (960, 540), (960, 540), (960, 540), (960, 540), (963, 540), (968, 542), (978, 552), (985, 561), (995, 574), (1002, 586), (1023, 634), (1036, 668), (1056, 713), (1076, 759), (1123, 846), (1145, 877), (1167, 910)]",60.774756054084264,"[1, 4, 8, 6, 5, 2, 7, 9, 3]","(0, 0.25)",DOT001C,DOT,C,English,Fri Aug 17 12:29:37 2018,Mouse
1,3,3,0,17,2,2,1,511,441,70,146,0,500,200,8000,"[(960, 540), (960, 540), (960, 540), (960, 540), (960, 540), (960, 540), (960, 540), (960, 540), (960, 540), (960, 540), (960, 540), (960, 540), (960, 540), (960, 540), (960, 540), (960, 540), (960, 540), (960, 540), (960, 540), (960, 540), (960, 540), (960, 540), (960, 540), (960, 540), (960, 540), (960, 540), (960, 540), (960, 540), (960, 540), (960, 540), (960, 540), (960, 540), (960, 540), (960, 540), (960, 540), (960, 540), (960, 540), (960, 540), (960, 540), (960, 540), (960, 540), (960, 540), (960, 540), (960, 540), (960, 535), (936, 502), (912, 480), (881, 440), (842, 397), (753, 312), (710, 273), (660, 240)]",225.0,"[1, 4, 8, 6, 5, 2, 7, 9, 3]","(0, 0.25)",DOT001C,DOT,C,English,Fri Aug 17 12:29:37 2018,Mouse
1,3,3,0,18,8,8,1,921,851,70,146,0,500,200,8000,"[(960, 540), (960, 540), (960, 540), (960, 540), (960, 540), (960, 540), (960, 540), (960, 540), (960, 540), (960, 540), (960, 540), (960, 540), (960, 540), (960, 540), (960, 540), (960, 540), (960, 540), (960, 540), (960, 540), (960, 540), (960, 540), (960, 540), (960, 540), (960, 540), (960, 540), (960, 540), (960, 540), (960, 540), (960, 540), (960, 540), (960, 540), (960, 540), (960, 540), (960, 540), (960, 540), (960, 540), (960, 540), (960, 540), (960, 540), (960, 540), (960, 540), (960, 540), (960, 540), (960, 540), (960, 540), (960, 540), (960, 540), (960, 540), (960, 540), (960, 540), (960, 540), (960, 540), (960, 540), (960, 540), (960, 540), (960, 540), (960, 540), (960, 540), (960, 540), (960, 540), (960, 540), (960, 540), (960, 540), (960, 540), (960, 540), (960, 540), (960, 540), (960, 540), (960, 540), (960, 540), (960, 540), (960, 540), (960, 540), (960, 540), (960, 540), (960, 540), (960, 540), (960, 540), (960, 540), (960, 540), (960, 540), (960, 540), (960, 540), (960, 540), (960, 540), (961, 541), (957, 557), (948, 593), (932, 646), (900, 775), (889, 848), (887, 918), (885, 990)]",99.46232220802563,"[1, 4, 8, 6, 5, 2, 7, 9, 3]","(0, 0.25)",DOT001C,DOT,C,English,Fri Aug 17 12:29:37 2018,Mouse
1,3,3,0,19,2,2,1,432,362,70,145,0,500,200,8000,"[(960, 540), (960, 540), (960, 540), (960, 540), (960, 540), (960, 540), (960, 540), (960, 540), (960, 540), (960, 540), (960, 540), (960, 540), (960, 540), (960, 540), (960, 540), (960, 540), (960, 540), (960, 540), (960, 540), (960, 540), (960, 540), (960, 540), (960, 540), (960, 540), (960, 540), (960, 540), (960, 540), (960, 540), (960, 540), (960, 540), (960, 540), (960, 540), (960, 540), (960, 540), (960, 540), (960, 540), (960, 523), (947, 503), (925, 468), (900, 434), (818, 345), (774, 304), (724, 264), (685, 234)]",228.05419366103152,"[1, 4, 8, 6, 5, 2, 7, 9, 3]","(0, 0.25)",DOT001C,DOT,C,English,Fri Aug 17 12:29:37 2018,Mouse
1,3,3,0,20,9,9,1,389,279,110,144,0,500,200,8000,"[(960, 540), (960, 540), (960, 540), (960, 540), (960, 540), (960, 540), (960, 540), (960, 540), (960, 540), (960, 540), (960, 540), (960, 540), (960, 540), (960, 540), (960, 540), (960, 540), (960, 540), (960, 540), (960, 540), (960, 540), (960, 540), (960, 540), (960, 540), (960, 540), (960, 540), (960, 540), (960, 540), (961, 540), (967, 537), (975, 525), (984, 508), (1004, 466), (1015, 437), (1030, 403), (1045, 363), (1095, 276), (1114, 233), (1133, 195), (1151, 160)]",296.6855468554034,"[1, 4, 8, 6, 5, 2, 7, 9, 3]","(0, 0.25)",DOT001C,DOT,C,English,Fri Aug 17 12:29:37 2018,Mouse
1,3,3,0,21,9,9,1,360,290,70,143,0,500,200,8000,"[(960, 540), (960, 540), (960, 540), (960, 540), (960, 540), (960, 540), (960, 540), (960, 540), (960, 540), (960, 540), (960, 540), (960, 540), (960, 540), (960, 540), (960, 540), (960, 540), (960, 540), (960, 540), (960, 540), (960, 540), (960, 540), (960, 540), (960, 540), (960, 540), (960, 540), (960, 540), (960, 540), (960, 540), (966, 525), (986, 485), (1003, 437), (1056, 341), (1089, 294), (1121, 255), (1149, 220), (1193, 168)]",302.06072806361885,"[1, 4, 8, 6, 5, 2, 7, 9, 3]","(0, 0.25)",DOT001C,DOT,C,English,Fri Aug 17 12:29:37 2018,Mouse
1,3,3,0,22,2,2,1,390,310,80,142,0,500,200,8000,"[(960, 540), (960, 540), (960, 540), (960, 540), (960, 540), (960, 540), (960, 540), (960, 540), (960, 540), (960, 540), (960, 540), (960, 540), (960, 540), (960, 540), (960, 540), (960, 540), (960, 540), (960, 540), (960, 540), (960, 540), (960, 540), (960, 540), (960, 540), (960, 540), (960, 540), (960, 540), (960, 540), (960, 540), (960, 540), (960, 540), (960, 537), (955, 527), (946, 511), (926, 486), (867, 433), (815, 404), (762, 379), (703, 356), (602, 322)]",211.3388462930945,"[1, 4, 8, 6, 5, 2, 7, 9, 3]","(0, 0.25)",DOT001C,DOT,C,English,Fri Aug 17 12:29:37 2018,Mouse
1,3,3,0,23,8,8,1,650,540,110,141,0,500,200,8000,"[(960, 540), (960, 540), (960, 540), (960, 540), (960, 540), (960, 540), (960, 540), (960, 540), (960, 540), (960, 540), (960, 540), (960, 540), (960, 540), (960, 540), (960, 540), (960, 540), (960, 540), (960, 540), (960, 540), (960, 540), (960, 540), (960, 540), (960, 540), (960, 540), (960, 540), (960, 540), (960, 540), (960, 540), (960, 540), (960, 540), (960, 540), (960, 540), (960, 540), (960, 540), (960, 540), (960, 540), (960, 540), (960, 540), (960, 540), (960, 540), (960, 540), (960, 540), (960, 540), (960, 540), (960, 540), (960, 540), (960, 540), (960, 540), (960, 540), (960, 540), (960, 540), (960, 540), (960, 540), (961, 542), (960, 555), (960, 559), (959, 566), (958, 576), (954, 606), (951, 630), (946, 657), (935, 693), (905, 799), (888, 862), (873, 936)]",102.39085666068091,"[1, 4, 8, 6, 5, 2, 7, 9, 3]","(0, 0.25)",DOT001C,DOT,C,English,Fri Aug 17 12:29:37 2018,Mouse
1,3,3,0,24,1,1,1,321,151,170,140,0,500,200,8000,"[(960, 540), (960, 540), (960, 540), (960, 540), (960, 540), (960, 540), (960, 540), (960, 540), (960, 540), (960, 540), (960, 540), (960, 540), (960, 540), (960, 540), (960, 540), (961, 539), (961, 539), (965, 539), (968, 539), (970, 539), (973, 540), (979, 542), (983, 542), (990, 546), (1000, 548), (1033, 558), (1058, 564), (1094, 575), (1138, 586), (1241, 615), (1293, 629), (1343, 643), (1387, 654)]",14.948119051884879,"[1, 4, 8, 6, 5, 2, 7, 9, 3]","(0, 0.25)",DOT001C,DOT,C,English,Fri Aug 17 12:29:37 2018,Mouse
1,3,3,0,25,2,2,1,372,302,70,139,0,500,200,8000,"[(960, 540), (960, 540), (960, 540), (960, 540), (960, 540), (960, 540), (960, 540), (960, 540), (960, 540), (960, 540), (960, 540), (960, 540), (960, 540), (960, 540), (960, 540), (960, 540), (960, 540), (960, 540), (960, 540), (960, 540), (960, 540), (960, 540), (960, 540), (960, 540), (960, 540), (960, 540), (960, 540), (960, 540), (960, 540), (960, 540), (956, 540), (947, 534), (915, 500), (878, 465), (835, 426), (778, 378), (648, 290), (593, 254)]",217.9289853123116,"[1, 4, 8, 6, 5, 2, 7, 9, 3]","(0, 0.25)",DOT001C,DOT,C,English,Fri Aug 17 12:29:37 2018,Mouse
1,3,3,0,26,6,6,1,608,528,80,138,0,500,200,8000,"[(960, 540), (960, 540), (960, 540), (960, 540), (960, 540), (960, 540), (960, 540), (960, 540), (960, 540), (960, 540), (960, 540), (960, 540), (960, 540), (960, 540), (960, 540), (960, 540), (960, 540), (960, 540), (960, 540), (960, 540), (960, 540), (960, 540), (960, 540), (960, 540), (960, 540), (960, 540), (960, 540), (960, 540), (960, 540), (960, 540), (960, 540), (960, 540), (960, 540), (960, 540), (960, 540), (960, 540), (960, 540), (960, 540), (960, 540), (960, 540), (960, 540), (960, 540), (960, 540), (960, 540), (960, 540), (960, 540), (960, 540), (960, 540), (960, 540), (960, 540), (960, 540), (960, 540), (951, 544), (910, 572), (882, 591), (851, 615), (782, 664), (746, 687), (707, 712), (669, 733), (620, 763)]",146.739838167771,"[1, 4, 8, 6, 5, 2, 7, 9, 3]","(0, 0.25)",DOT001C,DOT,C,English,Fri Aug 17 12:29:37 2018,Mouse
1,3,3,0,27,2,2,1,349,269,80,137,0,500,200,8000,"[(960, 540), (960, 540), (960, 540), (960, 540), (960, 540), (960, 540), (960, 540), (960, 540), (960, 540), (960, 540), (960, 540), (960, 540), (960, 540), (960, 540), (960, 540), (960, 540), (960, 540), (960, 540), (960, 540), (960, 540), (960, 540), (960, 540), (960, 540), (960, 540), (960, 540), (960, 540), (958, 541), (931, 514), (903, 484), (877, 458), (840, 426), (758, 365), (716, 335), (669, 302), (633, 275)]",219.02122396206045,"[1, 4, 8, 6, 5, 2, 7, 9, 3]","(0, 0.25)",DOT001C,DOT,C,English,Fri Aug 17 12:29:37 2018,Mouse
1,3,3,0,28,9,9,1,289,189,100,136,0,500,200,8000,"[(960, 540), (960, 540), (960, 540), (960, 540), (960, 540), (960, 540), (960, 540), (960, 540), (960, 540), (960, 540), (960, 540), (960, 540), (960, 540), (960, 540), (960, 540), (960, 540), (960, 540), (960, 540), (961, 541), (966, 531), (970, 522), (976, 510), (985, 491), (1014, 422), (1037, 371), (1059, 317), (1080, 269), (1123, 177), (1141, 145)]",294.6185699488026,"[1, 4, 8, 6, 5, 2, 7, 9, 3]","(0, 0.25)",DOT001C,DOT,C,English,Fri Aug 17 12:29:37 2018,Mouse
1,3,3,0,29,1,1,1,260,150,110,135,0,500,200,8000,"[(960, 540), (960, 540), (960, 540), (960, 540), (960, 540), (960, 540), (960, 540), (960, 540), (960, 540), (960, 540), (960, 540), (960, 540), (960, 540), (960, 540), (960, 541), (961, 546), (966, 552), (986, 573), (1001, 587), (1024, 605), (1045, 621), (1124, 665), (1167, 689), (1214, 715), (1262, 737), (1349, 770)]",30.5941114702265,"[1, 4, 8, 6, 5, 2, 7, 9, 3]","(0, 0.25)",DOT001C,DOT,C,English,Fri Aug 17 12:29:37 2018,Mouse
1,3,3,0,30,9,9,1,330,270,60,134,0,500,200,8000,"[(960, 540), (960, 540), (960, 540), (960, 540), (960, 540), (960, 540), (960, 540), (960, 540), (960, 540), (960, 540), (960, 540), (960, 540), (960, 540), (960, 540), (960, 540), (960, 540), (960, 540), (960, 540), (960, 540), (960, 540), (960, 540), (960, 540), (960, 540), (960, 540), (960, 540), (960, 540), (962, 523), (973, 484), (990, 421), (1005, 350), (1026, 222), (1034, 162), (1043, 118)]",281.12704643002985,"[1, 4, 8, 6, 5, 2, 7, 9, 3]","(0, 0.25)",DOT001C,DOT,C,English,Fri Aug 17 12:29:37 2018,Mouse
1,3,3,0,31,1,1,1,520,260,260,133,0,500,200,8000,"[(960, 540), (960, 540), (960, 540), (960, 540), (960, 540), (960, 540), (960, 540), (960, 540), (960, 540), (960, 540), (960, 540), (960, 540), (960, 540), (960, 540), (960, 540), (960, 540), (960, 540), (960, 540), (960, 540), (960, 540), (960, 540), (960, 540), (960, 540), (960, 540), (960, 540), (960, 541), (964, 543), (967, 543), (975, 547), (977, 548), (980, 548), (983, 549), (989, 553), (991, 553), (991, 553), (992, 554), (994, 555), (994, 556), (996, 557), (1001, 560), (1016, 569), (1026, 573), (1041, 582), (1052, 590), (1110, 618), (1139, 630), (1176, 647), (1216, 664), (1282, 679), (1312, 684), (1332, 686), (1345, 688)]",21.027537869819657,"[1, 4, 8, 6, 5, 2, 7, 9, 3]","(0, 0.25)",DOT001C,DOT,C,English,Fri Aug 17 12:29:37 2018,Mouse
1,3,3,0,32,9,9,1,339,269,70,132,0,500,200,8000,"[(960, 540), (960, 540), (960, 540), (960, 540), (960, 540), (960, 540), (960, 540), (960, 540), (960, 540), (960, 540), (960, 540), (960, 540), (960, 540), (960, 540), (960, 540), (960, 540), (960, 540), (960, 540), (960, 540), (960, 540), (960, 540), (960, 540), (960, 540), (960, 540), (960, 540), (960, 540), (959, 523), (974, 423), (982, 361), (992, 309), (1004, 262), (1026, 187), (1038, 155), (1049, 129)]",282.2184647628192,"[1, 4, 8, 6, 5, 2, 7, 9, 3]","(0, 0.25)",DOT001C,DOT,C,English,Fri Aug 17 12:29:37 2018,Mouse
1,3,3,0,33,9,9,1,320,250,70,131,0,500,200,8000,"[(960, 540), (960, 540), (960, 540), (960, 540), (960, 540), (960, 540), (960, 540), (960, 540), (960, 540), (960, 540), (960, 540), (960, 540), (960, 540), (960, 540), (960, 540), (960, 540), (960, 540), (960, 540), (960, 540), (960, 540), (960, 540), (960, 540), (960, 540), (960, 540), (970, 529), (983, 512), (1006, 476), (1032, 429), (1088, 302), (1114, 241), (1138, 189), (1158, 144)]",296.565051177078,"[1, 4, 8, 6, 5, 2, 7, 9, 3]","(0, 0.25)",DOT001C,DOT,C,English,Fri Aug 17 12:29:37 2018,Mouse
1,3,3,0,34,7,9,0,-361,311,50,130,0,500,200,8000,"[(960, 540), (960, 540), (960, 540), (960, 540), (960, 540), (960, 540), (960, 540), (960, 540), (960, 540), (960, 540), (960, 540), (960, 540), (960, 540), (960, 540), (960, 540), (960, 540), (960, 540), (960, 540), (960, 540), (960, 540), (960, 540), (960, 540), (960, 540), (960, 540), (960, 540), (960, 540), (960, 540), (960, 540), (960, 540), (960, 540), (960, 540), (971, 527), (1044, 441), (1084, 396), (1127, 335), (1171, 276), (1250, 162)]",307.495267549388,"[1, 4, 8, 6, 5, 2, 7, 9, 3]","(0, 0.25)",DOT001C,DOT,C,English,Fri Aug 17 12:29:37 2018,Mouse
1,3,3,0,35,4,7,0,-330,160,170,131,0,500,200,8000,"[(960, 540), (960, 540), (960, 540), (960, 540), (960, 540), (960, 540), (960, 540), (960, 540), (960, 540), (960, 540), (960, 540), (960, 540), (960, 540), (960, 540), (960, 540), (960, 539), (960, 536), (960, 535), (960, 532), (960, 532), (960, 530), (960, 529), (958, 527), (958, 527), (958, 526), (958, 524), (958, 511), (958, 490), (958, 451), (958, 393), (958, 266), (954, 196), (941, 125)]",267.3786502434092,"[1, 4, 8, 6, 5, 2, 7, 9, 3]","(0, 0.25)",DOT001C,DOT,C,English,Fri Aug 17 12:29:37 2018,Mouse
1,3,3,0,36,1,1,1,310,130,180,132,0,500,200,8000,"[(960, 540), (960, 540), (960, 540), (960, 540), (960, 540), (960, 540), (960, 540), (960, 540), (960, 540), (960, 540), (960, 540), (960, 540), (960, 541), (960, 541), (960, 542), (961, 544), (968, 547), (974, 550), (978, 551), (986, 555), (999, 559), (1006, 561), (1017, 564), (1031, 568), (1077, 583), (1112, 599), (1149, 616), (1189, 633), (1280, 669), (1325, 686), (1375, 702)]",21.32375669626171,"[1, 4, 8, 6, 5, 2, 7, 9, 3]","(0, 0.25)",DOT001C,DOT,C,English,Fri Aug 17 12:29:37 2018,Mouse
1,3,3,0,37,3,1,0,-241,151,90,132,0,500,200,8000,"[(960, 540), (960, 540), (960, 540), (960, 540), (960, 540), (960, 540), (960, 540), (960, 540), (960, 540), (960, 540), (960, 540), (960, 540), (960, 540), (960, 540), (960, 540), (962, 541), (968, 543), (994, 555), (1012, 562), (1037, 572), (1075, 589), (1174, 629), (1230, 652), (1284, 677), (1340, 698)]",22.577026990031488,"[1, 4, 8, 6, 5, 2, 7, 9, 3]","(0, 0.25)",DOT001C,DOT,C,English,Fri Aug 17 12:29:37 2018,Mouse
1,3,3,0,38,6,8,0,-1491,1401,90,133,0,500,200,8000,"[(960, 540), (960, 540), (960, 540), (960, 540), (960, 540), (960, 540), (960, 540), (960, 540), (960, 540), (960, 540), (960, 540), (960, 540), (960, 540), (960, 540), (960, 540), (960, 540), (960, 540), (960, 540), (960, 540), (960, 540), (960, 540), (960, 540), (960, 540), (960, 540), (960, 540), (960, 540), (960, 540), (960, 540), (960, 540), (960, 540), (960, 540), (960, 540), (960, 540), (960, 540), (960, 540), (960, 540), (960, 540), (960, 540), (960, 540), (960, 540), (960, 540), (960, 540), (960, 540), (960, 540), (960, 540), (960, 540), (960, 540), (960, 540), (960, 540), (960, 540), (960, 540), (960, 540), (960, 540), (960, 540), (960, 540), (960, 540), (960, 540), (960, 540), (960, 540), (960, 540), (960, 540), (960, 540), (960, 540), (960, 540), (960, 540), (960, 540), (960, 540), (960, 540), (960, 540), (960, 540), (960, 540), (960, 540), (960, 540), (960, 540), (960, 540), (960, 540), (960, 540), (960, 540), (960, 540), (960, 540), (960, 540), (960, 540), (960, 540), (960, 540), (960, 540), (960, 540), (960, 540), (960, 540), (960, 540), (960, 540), (960, 540), (960, 540), (960, 540), (960, 540), (960, 540), (960, 540), (960, 540), (960, 540), (960, 540), (960, 540), (960, 540), (960, 540), (960, 540), (960, 540), (960, 540), (960, 540), (960, 540), (960, 540), (960, 540), (960, 540), (960, 540), (960, 540), (960, 540), (960, 540), (960, 540), (960, 540), (960, 540), (960, 540), (960, 540), (960, 540), (960, 540), (960, 540), (960, 540), (960, 540), (960, 540), (960, 540), (960, 540), (960, 540), (960, 540), (960, 540), (960, 540), (960, 540), (960, 540), (960, 540), (960, 540), (960, 540), (960, 540), (960, 540), (960, 540), (959, 545), (955, 569), (951, 601), (942, 636), (923, 721), (913, 758), (895, 800), (878, 843), (842, 920), (826, 963)]",107.57741387886952,"[1, 4, 8, 6, 5, 2, 7, 9, 3]","(0, 0.25)",DOT001C,DOT,C,English,Fri Aug 17 12:29:37 2018,Mouse
1,3,3,0,39,7,7,1,840,760,80,134,0,500,200,8000,"[(960, 540), (960, 540), (960, 540), (960, 540), (960, 540), (960, 540), (960, 540), (960, 540), (960, 540), (960, 540), (960, 540), (960, 540), (960, 540), (960, 540), (960, 540), (960, 540), (960, 540), (960, 540), (960, 540), (960, 540), (960, 540), (960, 540), (960, 540), (960, 540), (960, 540), (960, 540), (960, 540), (960, 540), (960, 540), (960, 540), (960, 540), (960, 540), (960, 540), (960, 540), (960, 540), (960, 540), (960, 540), (960, 540), (960, 540), (960, 540), (960, 540), (960, 540), (960, 540), (960, 540), (960, 540), (960, 540), (960, 540), (960, 540), (960, 540), (960, 540), (960, 540), (960, 540), (960, 540), (960, 540), (960, 540), (960, 540), (960, 540), (960, 540), (960, 540), (960, 540), (960, 540), (960, 540), (960, 540), (960, 540), (960, 540), (960, 540), (960, 540), (960, 540), (960, 540), (960, 540), (960, 540), (960, 540), (960, 540), (960, 540), (960, 540), (960, 535), (963, 524), (968, 480), (973, 445), (977, 397), (983, 291), (987, 229), (987, 179), (987, 127)]",273.7404062416324,"[1, 4, 8, 6, 5, 2, 7, 9, 3]","(0, 0.25)",DOT001C,DOT,C,English,Fri Aug 17 12:29:37 2018,Mouse
1,3,3,0,40,6,9,0,-640,560,80,134,0,500,200,8000,"[(960, 540), (960, 540), (960, 540), (960, 540), (960, 540), (960, 540), (960, 540), (960, 540), (960, 540), (960, 540), (960, 540), (960, 540), (960, 540), (960, 540), (960, 540), (960, 540), (960, 540), (960, 540), (960, 540), (960, 540), (960, 540), (960, 540), (960, 540), (960, 540), (960, 540), (960, 540), (960, 540), (960, 540), (960, 540), (960, 540), (960, 540), (960, 540), (960, 540), (960, 540), (960, 540), (960, 540), (960, 540), (960, 540), (960, 540), (960, 540), (960, 540), (960, 540), (960, 540), (960, 540), (960, 540), (960, 540), (960, 540), (960, 540), (960, 540), (960, 540), (960, 540), (960, 540), (960, 540), (960, 540), (960, 540), (960, 541), (981, 514), (1007, 483), (1034, 446), (1064, 402), (1126, 315), (1154, 271), (1184, 232), (1208, 201)]",306.1878372526714,"[1, 4, 8, 6, 5, 2, 7, 9, 3]","(0, 0.25)",DOT001C,DOT,C,English,Fri Aug 17 12:29:37 2018,Mouse
1,3,3,0,41,6,9,0,-390,300,90,135,0,500,200,8000,"[(960, 540), (960, 540), (960, 540), (960, 540), (960, 540), (960, 540), (960, 540), (960, 540), (960, 540), (960, 540), (960, 540), (960, 540), (960, 540), (960, 540), (960, 540), (960, 540), (960, 540), (960, 540), (960, 540), (960, 540), (960, 540), (960, 540), (960, 540), (960, 540), (960, 540), (960, 540), (960, 540), (960, 540), (960, 540), (960, 539), (968, 530), (995, 492), (1012, 462), (1033, 424), (1062, 379), (1120, 288), (1142, 248), (1159, 205), (1176, 163)]",299.81030608096813,"[1, 4, 8, 6, 5, 2, 7, 9, 3]","(0, 0.25)",DOT001C,DOT,C,English,Fri Aug 17 12:29:37 2018,Mouse
1,3,3,0,42,7,7,1,879,799,80,136,0,500,200,8000,"[(960, 540), (960, 540), (960, 540), (960, 540), (960, 540), (960, 540), (960, 540), (960, 540), (960, 540), (960, 540), (960, 540), (960, 540), (960, 540), (960, 540), (960, 540), (960, 540), (960, 540), (960, 540), (960, 540), (960, 540), (960, 540), (960, 540), (960, 540), (960, 540), (960, 540), (960, 540), (960, 540), (960, 540), (960, 540), (960, 540), (960, 540), (960, 540), (960, 540), (960, 540), (960, 540), (960, 540), (960, 540), (960, 540), (960, 540), (960, 540), (960, 540), (960, 540), (960, 540), (960, 540), (960, 540), (960, 540), (960, 540), (960, 540), (960, 540), (960, 540), (960, 540), (960, 540), (960, 540), (960, 540), (960, 540), (960, 540), (960, 540), (960, 540), (960, 540), (960, 540), (960, 540), (960, 540), (960, 540), (960, 540), (960, 540), (960, 540), (960, 540), (960, 540), (960, 540), (960, 540), (960, 540), (960, 540), (960, 540), (960, 540), (960, 540), (960, 540), (960, 540), (960, 540), (960, 540), (959, 538), (954, 516), (945, 483), (931, 431), (898, 314), (882, 267), (869, 225), (852, 188), (836, 149)]",252.404327930056,"[1, 4, 8, 6, 5, 2, 7, 9, 3]","(0, 0.25)",DOT001C,DOT,C,English,Fri Aug 17 12:29:37 2018,Mouse
1,3,3,0,43,7,7,1,339,19,320,136,0,500,200,8000,"[(960, 541), (960, 542), (960, 542), (960, 542), (960, 542), (960, 542), (960, 542), (960, 542), (960, 542), (960, 542), (960, 542), (960, 542), (960, 542), (960, 542), (960, 542), (960, 542), (960, 542), (960, 542), (960, 542), (960, 542), (960, 542), (960, 542), (960, 542), (960, 542), (963, 541), (968, 533), (983, 488), (990, 450), (992, 408), (992, 358), (992, 258), (992, 209), (989, 158), (977, 111)]",272.26927480641996,"[1, 4, 8, 6, 5, 2, 7, 9, 3]","(0, 0.25)",DOT001C,DOT,C,English,Fri Aug 17 12:29:37 2018,Mouse
1,3,3,0,44,2,1,0,-321,211,110,135,0,500,200,8000,"[(960, 540), (960, 540), (960, 540), (960, 540), (960, 540), (960, 540), (960, 540), (960, 540), (960, 540), (960, 540), (960, 540), (960, 540), (960, 540), (960, 540), (960, 540), (960, 540), (960, 540), (960, 540), (960, 540), (960, 540), (960, 541), (960, 546), (961, 552), (978, 571), (990, 582), (1012, 595), (1042, 612), (1126, 655), (1179, 676), (1241, 704), (1306, 729), (1439, 773)]",25.939681273533974,"[1, 4, 8, 6, 5, 2, 7, 9, 3]","(0, 0.25)",DOT001C,DOT,C,English,Fri Aug 17 12:29:37 2018,Mouse
1,3,3,0,45,5,5,1,1029,929,100,136,0,500,200,8000,"[(960, 540), (960, 540), (960, 540), (960, 540), (960, 540), (960, 540), (960, 540), (960, 540), (960, 540), (960, 540), (960, 540), (960, 540), (960, 540), (960, 540), (960, 540), (960, 540), (960, 540), (960, 540), (960, 540), (960, 540), (960, 540), (960, 540), (960, 540), (960, 540), (960, 540), (960, 540), (960, 540), (960, 540), (960, 540), (960, 540), (960, 540), (960, 540), (960, 540), (960, 540), (960, 540), (960, 540), (960, 540), (960, 540), (960, 540), (960, 540), (960, 540), (960, 540), (960, 540), (960, 540), (960, 540), (960, 540), (960, 540), (960, 540), (960, 540), (960, 540), (960, 540), (960, 540), (960, 540), (960, 540), (960, 540), (960, 540), (960, 540), (960, 540), (960, 540), (960, 540), (960, 540), (960, 540), (960, 540), (960, 540), (960, 540), (960, 540), (960, 540), (960, 540), (960, 540), (960, 540), (960, 540), (960, 540), (960, 540), (960, 540), (960, 540), (960, 540), (960, 540), (960, 540), (960, 540), (960, 540), (960, 540), (960, 540), (960, 540), (960, 540), (960, 540), (960, 540), (960, 540), (960, 540), (960, 540), (960, 540), (960, 540), (960, 540), (958, 540), (957, 540), (944, 540), (931, 539), (910, 538), (877, 531), (777, 519), (715, 511), (653, 502), (594, 496), (464, 482)]",186.66961984231233,"[1, 4, 8, 6, 5, 2, 7, 9, 3]","(0, 0.25)",DOT001C,DOT,C,English,Fri Aug 17 12:29:37 2018,Mouse
1,3,3,0,46,9,9,1,309,109,200,136,0,500,200,8000,"[(960, 540), (960, 540), (960, 540), (960, 540), (960, 540), (960, 540), (960, 540), (960, 540), (960, 540), (960, 540), (960, 538), (962, 538), (967, 535), (968, 534), (972, 533), (974, 531), (976, 530), (978, 530), (982, 527), (984, 526), (987, 524), (991, 522), (1007, 510), (1017, 499), (1032, 485), (1049, 464), (1091, 400), (1115, 359), (1143, 313), (1167, 269), (1202, 197)]",305.2044743011036,"[1, 4, 8, 6, 5, 2, 7, 9, 3]","(0, 0.25)",DOT001C,DOT,C,English,Fri Aug 17 12:29:37 2018,Mouse
1,3,3,0,47,5,7,0,-1170,850,320,135,0,500,200,8000,"[(960, 540), (960, 540), (960, 540), (960, 540), (960, 540), (960, 540), (960, 540), (960, 540), (960, 540), (960, 540), (960, 540), (960, 540), (960, 540), (960, 540), (960, 540), (960, 540), (960, 540), (960, 540), (960, 540), (960, 540), (960, 540), (960, 540), (960, 540), (960, 540), (960, 540), (960, 540), (960, 540), (960, 540), (960, 540), (960, 540), (960, 540), (960, 540), (960, 540), (960, 540), (960, 540), (960, 540), (960, 540), (960, 540), (960, 540), (960, 540), (960, 540), (960, 540), (960, 540), (960, 540), (960, 540), (960, 540), (960, 540), (960, 540), (960, 540), (960, 540), (960, 540), (960, 540), (960, 540), (960, 540), (960, 540), (960, 540), (960, 540), (960, 540), (960, 540), (960, 540), (960, 540), (960, 540), (960, 540), (960, 540), (960, 540), (960, 540), (960, 540), (960, 540), (960, 540), (960, 540), (960, 540), (960, 540), (960, 540), (960, 540), (960, 540), (960, 540), (960, 540), (960, 540), (960, 540), (960, 540), (960, 540), (960, 540), (960, 540), (960, 540), (960, 539), (959, 536), (958, 528), (956, 523), (956, 519), (956, 516), (956, 513), (955, 512), (955, 512), (955, 512), (955, 510), (955, 510), (955, 510), (955, 510), (955, 510), (955, 510), (955, 510), (955, 510), (955, 510), (955, 510), (955, 510), (955, 510), (955, 507), (955, 505), (956, 499), (957, 491), (959, 459), (965, 421), (965, 380), (965, 333), (965, 230), (965, 180), (965, 133)]",270.7038439482214,"[1, 4, 8, 6, 5, 2, 7, 9, 3]","(0, 0.25)",DOT001C,DOT,C,English,Fri Aug 17 12:29:37 2018,Mouse
1,3,3,0,48,6,6,1,689,19,670,136,0,500,200,8000,"[(960, 540), (960, 541), (960, 541), (960, 541), (960, 541), (960, 541), (960, 541), (960, 541), (960, 541), (960, 541), (960, 541), (960, 541), (960, 541), (960, 541), (960, 541), (960, 541), (960, 541), (960, 541), (960, 541), (960, 541), (960, 541), (960, 541), (960, 541), (960, 541), (960, 541), (960, 541), (960, 541), (960, 541), (960, 541), (960, 541), (960, 541), (960, 541), (960, 541), (960, 541), (960, 541), (960, 541), (960, 541), (960, 541), (960, 541), (960, 541), (960, 541), (960, 541), (960, 541), (960, 541), (960, 541), (960, 541), (960, 541), (960, 541), (960, 541), (960, 541), (960, 541), (960, 541), (960, 541), (960, 541), (960, 541), (960, 541), (960, 541), (960, 541), (960, 541), (960, 541), (960, 541), (960, 541), (960, 545), (945, 562), (874, 637), (826, 696), (778, 755), (733, 809), (654, 905)]",129.97499360240485,"[1, 4, 8, 6, 5, 2, 7, 9, 3]","(0, 0.25)",DOT001C,DOT,C,English,Fri Aug 17 12:29:37 2018,Mouse
1,3,3,0,49,1,1,1,300,70,230,136,0,500,200,8000,"[(960, 540), (960, 540), (960, 540), (960, 540), (960, 540), (960, 540), (974, 540), (986, 540), (998, 540), (1012, 540), (1044, 542), (1059, 543), (1073, 546), (1085, 547), (1106, 550), (1115, 553), (1122, 554), (1129, 557), (1142, 560), (1150, 563), (1163, 566), (1177, 570), (1220, 579), (1244, 583), (1276, 587), (1300, 591), (1334, 596), (1344, 598), (1353, 600), (1358, 603)]",8.994802763774738,"[1, 4, 8, 6, 5, 2, 7, 9, 3]","(0, 0.25)",DOT001C,DOT,C,English,Fri Aug 17 12:29:37 2018,Mouse
1,3,3,0,50,3,3,1,500,400,100,135,0,500,200,8000,"[(960, 540), (960, 540), (960, 540), (960, 540), (960, 540), (960, 540), (960, 540), (960, 540), (960, 540), (960, 540), (960, 540), (960, 540), (960, 540), (960, 540), (960, 540), (960, 540), (960, 540), (960, 540), (960, 540), (960, 540), (960, 540), (960, 540), (960, 540), (960, 540), (960, 540), (960, 540), (960, 540), (960, 540), (960, 540), (960, 540), (960, 540), (960, 540), (960, 540), (960, 540), (960, 540), (960, 540), (960, 540), (960, 540), (960, 540), (959, 540), (961, 537), (967, 535), (978, 532), (1010, 523), (1040, 515), (1079, 506), (1125, 494), (1236, 444), (1293, 416), (1345, 385)]",338.07041224982464,"[1, 4, 8, 6, 5, 2, 7, 9, 3]","(0, 0.25)",DOT001C,DOT,C,English,Fri Aug 17 12:29:37 2018,Mouse
1,3,3,0,51,6,7,0,-570,510,60,134,0,500,200,8000,"[(960, 540), (960, 540), (960, 540), (960, 540), (960, 540), (960, 540), (960, 540), (960, 540), (960, 540), (960, 540), (960, 540), (960, 540), (960, 540), (960, 540), (960, 540), (960, 540), (960, 540), (960, 540), (960, 540), (960, 540), (960, 540), (960, 540), (960, 540), (960, 540), (960, 540), (960, 540), (960, 540), (960, 540), (960, 540), (960, 540), (960, 540), (960, 540), (960, 540), (960, 540), (960, 540), (960, 540), (960, 540), (960, 540), (960, 540), (960, 540), (960, 540), (960, 540), (960, 540), (960, 540), (960, 540), (960, 540), (960, 540), (960, 540), (960, 540), (960, 540), (960, 524), (959, 493), (941, 400), (929, 351), (913, 295), (899, 240), (864, 134)]",256.69656956437586,"[1, 4, 8, 6, 5, 2, 7, 9, 3]","(0, 0.25)",DOT001C,DOT,C,English,Fri Aug 17 12:29:37 2018,Mouse
1,3,3,0,52,8,9,0,-848,768,80,135,0,500,200,8000,"[(960, 540), (960, 540), (960, 540), (960, 540), (960, 540), (960, 540), (960, 540), (960, 540), (960, 540), (960, 540), (960, 540), (960, 540), (960, 540), (960, 540), (960, 540), (960, 540), (960, 540), (960, 540), (960, 540), (960, 540), (960, 540), (960, 540), (960, 540), (960, 540), (960, 540), (960, 540), (960, 540), (960, 540), (960, 540), (960, 540), (960, 540), (960, 540), (960, 540), (960, 540), (960, 540), (960, 540), (960, 540), (960, 540), (960, 540), (960, 540), (960, 540), (960, 540), (960, 540), (960, 540), (960, 540), (960, 540), (960, 540), (960, 540), (960, 540), (960, 540), (960, 540), (960, 540), (960, 540), (960, 540), (960, 540), (960, 540), (960, 540), (960, 540), (960, 540), (960, 540), (960, 540), (960, 540), (960, 540), (960, 540), (960, 540), (960, 540), (960, 540), (960, 540), (960, 540), (960, 540), (960, 540), (960, 540), (960, 540), (960, 540), (960, 540), (960, 540), (962, 540), (970, 530), (1003, 475), (1028, 432), (1055, 383), (1081, 336), (1141, 250), (1168, 213), (1197, 179)]",303.2852871219062,"[1, 4, 8, 6, 5, 2, 7, 9, 3]","(0, 0.25)",DOT001C,DOT,C,English,Fri Aug 17 12:29:37 2018,Mouse
1,3,3,0,53,1,1,1,360,170,190,136,0,500,200,8000,"[(960, 540), (960, 540), (960, 540), (960, 540), (960, 540), (960, 540), (960, 540), (960, 540), (960, 540), (960, 540), (960, 540), (960, 540), (960, 540), (960, 540), (960, 540), (960, 540), (960, 541), (960, 544), (960, 546), (961, 547), (965, 551), (967, 553), (969, 554), (971, 557), (979, 561), (986, 563), (999, 569), (1010, 573), (1057, 588), (1092, 597), (1135, 612), (1166, 623), (1237, 654), (1272, 668), (1302, 686), (1328, 698)]",23.236161511222512,"[1, 4, 8, 6, 5, 2, 7, 9, 3]","(0, 0.25)",DOT001C,DOT,C,English,Fri Aug 17 12:29:37 2018,Mouse
1,3,3,0,54,3,3,1,400,330,70,136,0,500,200,8000,"[(960, 540), (960, 540), (960, 540), (960, 540), (960, 540), (960, 540), (960, 540), (960, 540), (960, 540), (960, 540), (960, 540), (960, 540), (960, 540), (960, 540), (960, 540), (960, 540), (960, 540), (960, 540), (960, 540), (960, 540), (960, 540), (960, 540), (960, 540), (960, 540), (960, 540), (960, 540), (960, 540), (960, 540), (960, 540), (960, 540), (960, 540), (960, 540), (960, 539), (961, 535), (976, 526), (1053, 478), (1106, 442), (1160, 410), (1218, 378), (1339, 325)]",330.4345242011691,"[1, 4, 8, 6, 5, 2, 7, 9, 3]","(0, 0.25)",DOT001C,DOT,C,English,Fri Aug 17 12:29:37 2018,Mouse
1,3,3,0,55,9,9,1,230,150,80,135,0,500,200,8000,"[(960, 540), (960, 540), (960, 540), (960, 540), (960, 540), (960, 540), (960, 540), (960, 540), (960, 540), (960, 540), (960, 540), (960, 540), (960, 540), (960, 540), (959, 540), (959, 540), (964, 533), (979, 505), (1031, 412), (1065, 357), (1087, 311), (1114, 255), (1160, 165)]",298.07248693585296,"[1, 4, 8, 6, 5, 2, 7, 9, 3]","(0, 0.25)",DOT001C,DOT,C,English,Fri Aug 17 12:29:37 2018,Mouse
1,3,3,0,56,3,3,1,301,231,70,134,0,500,200,8000,"[(960, 540), (960, 540), (960, 540), (960, 540), (960, 540), (960, 540), (960, 540), (960, 540), (960, 540), (960, 540), (960, 540), (960, 540), (960, 540), (960, 540), (960, 540), (960, 540), (960, 540), (960, 540), (960, 540), (960, 540), (960, 540), (960, 540), (960, 540), (974, 535), (990, 530), (1029, 519), (1075, 509), (1202, 479), (1270, 467), (1342, 445), (1417, 423)]",345.63972215920853,"[1, 4, 8, 6, 5, 2, 7, 9, 3]","(0, 0.25)",DOT001C,DOT,C,English,Fri Aug 17 12:29:37 2018,Mouse
1,3,3,0,57,6,7,0,-532,472,60,133,0,500,200,8000,"[(960, 540), (960, 540), (960, 540), (960, 540), (960, 540), (960, 540), (960, 540), (960, 540), (960, 540), (960, 540), (960, 540), (960, 540), (960, 540), (960, 540), (960, 540), (960, 540), (960, 540), (960, 540), (960, 540), (960, 540), (960, 540), (960, 540), (960, 540), (960, 540), (960, 540), (960, 540), (960, 540), (960, 540), (960, 540), (960, 540), (960, 540), (960, 540), (960, 540), (960, 540), (960, 540), (960, 540), (960, 540), (960, 540), (960, 540), (960, 540), (960, 540), (960, 540), (960, 540), (960, 540), (960, 540), (960, 540), (960, 540), (959, 532), (951, 474), (944, 425), (936, 371), (930, 320), (911, 195), (903, 141)]",261.86989764584405,"[1, 4, 8, 6, 5, 2, 7, 9, 3]","(0, 0.25)",DOT001C,DOT,C,English,Fri Aug 17 12:29:37 2018,Mouse
1,3,3,0,58,9,7,0,-619,379,240,134,0,500,200,8000,"[(960, 540), (960, 540), (960, 540), (960, 540), (960, 540), (960, 540), (960, 540), (960, 540), (960, 540), (960, 540), (960, 540), (960, 540), (960, 540), (960, 540), (960, 540), (960, 540), (960, 540), (960, 540), (960, 540), (960, 540), (960, 540), (960, 540), (960, 540), (960, 540), (960, 540), (960, 540), (960, 540), (960, 540), (960, 540), (960, 540), (960, 540), (960, 540), (960, 540), (960, 540), (960, 540), (960, 540), (960, 540), (961, 541), (961, 541), (961, 541), (961, 541), (961, 541), (961, 541), (961, 541), (961, 541), (961, 541), (961, 541), (961, 541), (961, 541), (961, 541), (961, 541), (961, 541), (961, 541), (961, 541), (962, 539), (963, 528), (968, 508), (980, 422), (988, 365), (992, 309), (992, 251), (992, 140)]",274.5739212599009,"[1, 4, 8, 6, 5, 2, 7, 9, 3]","(0, 0.25)",DOT001C,DOT,C,English,Fri Aug 17 12:29:37 2018,Mouse
1,3,3,0,59,7,5,0,-758,638,120,135,0,500,200,8000,"[(960, 540), (960, 540), (960, 540), (960, 540), (960, 540), (960, 540), (960, 540), (960, 540), (960, 540), (960, 540), (960, 540), (960, 540), (960, 540), (960, 540), (960, 540), (960, 540), (960, 540), (960, 540), (960, 540), (960, 540), (960, 540), (960, 540), (960, 540), (960, 540), (960, 540), (960, 540), (960, 540), (960, 540), (960, 540), (960, 540), (960, 540), (960, 540), (960, 540), (960, 540), (960, 540), (960, 540), (960, 540), (960, 540), (960, 540), (960, 540), (960, 540), (960, 540), (960, 540), (960, 540), (960, 540), (960, 540), (960, 540), (960, 540), (960, 540), (960, 540), (960, 540), (960, 540), (960, 540), (960, 540), (960, 540), (960, 540), (960, 540), (960, 540), (960, 540), (960, 540), (960, 540), (960, 540), (960, 540), (961, 540), (950, 546), (929, 557), (878, 572), (845, 581), (801, 591), (768, 592), (702, 590), (674, 580), (640, 569), (611, 554), (565, 537), (549, 529)]",181.5330976968243,"[1, 4, 8, 6, 5, 2, 7, 9, 3]","(0, 0.25)",DOT001C,DOT,C,English,Fri Aug 17 12:29:37 2018,Mouse
1,3,3,0,60,7,7,1,249,179,70,136,0,500,200,8000,"[(960, 540), (960, 540), (960, 540), (960, 540), (960, 540), (960, 540), (960, 540), (960, 540), (960, 540), (960, 540), (960, 540), (960, 540), (960, 540), (960, 540), (960, 540), (960, 540), (960, 540), (961, 536), (961, 517), (954, 482), (948, 439), (932, 319), (916, 246), (899, 169), (877, 91)]",259.52680206808606,"[1, 4, 8, 6, 5, 2, 7, 9, 3]","(0, 0.25)",DOT001C,DOT,C,English,Fri Aug 17 12:29:37 2018,Mouse
1,3,3,0,61,8,9,0,-310,220,90,136,0,500,200,8000,"[(960, 540), (960, 540), (960, 540), (960, 540), (960, 540), (960, 540), (960, 540), (960, 540), (960, 540), (960, 540), (960, 540), (960, 540), (960, 540), (960, 540), (960, 540), (960, 540), (960, 540), (960, 540), (960, 540), (960, 540), (960, 540), (962, 538), (969, 533), (988, 508), (1010, 477), (1034, 444), (1061, 407), (1122, 331), (1150, 297), (1179, 260), (1208, 226)]",308.30199383000866,"[1, 4, 8, 6, 5, 2, 7, 9, 3]","(0, 0.25)",DOT001C,DOT,C,English,Fri Aug 17 12:29:37 2018,Mouse
1,3,3,0,62,7,7,1,990,580,410,137,0,500,200,8000,"[(960, 540), (960, 540), (960, 540), (960, 540), (960, 540), (960, 540), (960, 540), (960, 540), (960, 540), (960, 540), (960, 540), (960, 540), (960, 540), (960, 540), (960, 540), (960, 540), (960, 540), (960, 540), (960, 540), (960, 540), (960, 540), (960, 540), (960, 540), (960, 540), (960, 540), (960, 540), (960, 540), (960, 540), (960, 540), (960, 540), (960, 540), (960, 540), (960, 540), (960, 540), (960, 540), (960, 540), (960, 540), (960, 540), (960, 540), (960, 540), (960, 540), (960, 540), (960, 540), (960, 540), (960, 540), (960, 540), (960, 540), (960, 540), (960, 540), (960, 540), (960, 540), (960, 540), (960, 540), (960, 540), (960, 540), (960, 540), (960, 540), (958, 542), (958, 542), (957, 543), (957, 543), (957, 543), (957, 543), (957, 543), (957, 543), (957, 543), (957, 543), (957, 543), (957, 543), (957, 543), (957, 543), (957, 543), (957, 543), (957, 543), (957, 543), (957, 543), (957, 543), (957, 543), (957, 543), (957, 543), (957, 543), (957, 543), (957, 543), (957, 543), (957, 543), (957, 543), (957, 543), (957, 543), (957, 543), (957, 539), (957, 525), (955, 474), (948, 438), (946, 396), (939, 350), (919, 252), (909, 208), (900, 167), (895, 140)]",260.7701137562723,"[1, 4, 8, 6, 5, 2, 7, 9, 3]","(0, 0.25)",DOT001C,DOT,C,English,Fri Aug 17 12:29:37 2018,Mouse
1,3,3,0,63,5,5,1,481,401,80,137,0,500,200,8000,"[(960, 540), (960, 540), (960, 540), (960, 540), (960, 540), (960, 540), (960, 540), (960, 540), (960, 540), (960, 540), (960, 540), (960, 540), (960, 540), (960, 540), (960, 540), (960, 540), (960, 540), (960, 540), (960, 540), (960, 540), (960, 540), (960, 540), (960, 540), (960, 540), (960, 540), (960, 540), (960, 540), (960, 540), (960, 540), (960, 540), (960, 540), (960, 540), (960, 540), (960, 540), (960, 540), (960, 540), (960, 540), (960, 540), (960, 540), (960, 540), (958, 540), (949, 540), (936, 540), (919, 540), (863, 540), (814, 540), (758, 540), (695, 540), (556, 540)]",180.0,"[1, 4, 8, 6, 5, 2, 7, 9, 3]","(0, 0.25)",DOT001C,DOT,C,English,Fri Aug 17 12:29:37 2018,Mouse
1,3,3,0,64,7,7,1,411,331,80,136,0,500,200,8000,"[(960, 540), (960, 540), (960, 540), (960, 540), (960, 540), (960, 540), (960, 540), (960, 540), (960, 540), (960, 540), (960, 540), (960, 540), (960, 540), (960, 540), (960, 540), (960, 540), (960, 540), (960, 540), (960, 540), (960, 540), (960, 540), (960, 540), (960, 540), (960, 540), (960, 540), (960, 540), (960, 540), (960, 540), (960, 540), (960, 540), (960, 540), (960, 540), (960, 540), (963, 535), (964, 524), (964, 489), (964, 453), (964, 403), (964, 355), (946, 231), (924, 159), (903, 89)]",262.79681756110244,"[1, 4, 8, 6, 5, 2, 7, 9, 3]","(0, 0.25)",DOT001C,DOT,C,English,Fri Aug 17 12:29:37 2018,Mouse
1,3,3,0,65,2,3,0,-529,409,120,135,0,500,200,8000,"[(960, 540), (960, 540), (960, 540), (960, 540), (960, 540), (960, 540), (960, 540), (960, 540), (960, 540), (960, 540), (960, 540), (960, 540), (960, 540), (960, 540), (960, 540), (960, 540), (960, 540), (960, 540), (960, 540), (960, 540), (960, 540), (960, 540), (960, 540), (960, 540), (960, 540), (960, 540), (960, 540), (960, 540), (960, 540), (960, 540), (960, 540), (960, 540), (960, 540), (960, 540), (960, 540), (960, 540), (960, 540), (960, 540), (960, 540), (960, 540), (961, 541), (967, 542), (975, 543), (990, 544), (1034, 544), (1062, 544), (1098, 544), (1146, 542), (1233, 527), (1280, 513), (1322, 499), (1355, 489), (1408, 464)]",350.3718438715133,"[1, 4, 8, 6, 5, 2, 7, 9, 3]","(0, 0.25)",DOT001C,DOT,C,English,Fri Aug 17 12:29:37 2018,Mouse
1,3,3,0,66,4,8,0,-666,586,80,136,0,500,200,8000,"[(960, 540), (960, 540), (960, 540), (960, 540), (960, 540), (960, 540), (960, 540), (960, 540), (960, 540), (960, 540), (960, 540), (960, 540), (960, 540), (960, 540), (960, 540), (960, 540), (960, 540), (960, 540), (960, 540), (960, 540), (960, 540), (960, 540), (960, 540), (960, 540), (960, 540), (960, 540), (960, 540), (960, 540), (960, 540), (960, 540), (960, 540), (960, 540), (960, 540), (960, 540), (960, 540), (960, 540), (960, 540), (960, 540), (960, 540), (960, 540), (960, 540), (960, 540), (960, 540), (960, 540), (960, 540), (960, 540), (960, 540), (960, 540), (960, 540), (960, 540), (960, 540), (960, 540), (960, 540), (960, 540), (960, 540), (960, 540), (960, 540), (960, 540), (960, 542), (965, 547), (974, 554), (982, 563), (997, 604), (1005, 658), (1013, 731), (1018, 817), (1026, 970)]",81.27386422370128,"[1, 4, 8, 6, 5, 2, 7, 9, 3]","(0, 0.25)",DOT001C,DOT,C,English,Fri Aug 17 12:29:37 2018,Mouse
1,3,3,0,67,4,4,1,369,239,130,137,0,500,200,8000,"[(960, 540), (960, 540), (960, 540), (960, 540), (960, 540), (960, 540), (960, 540), (960, 540), (960, 540), (960, 540), (960, 540), (960, 540), (960, 540), (960, 540), (960, 540), (960, 540), (960, 540), (960, 540), (960, 540), (960, 540), (960, 540), (960, 540), (960, 540), (961, 539), (964, 539), (973, 544), (993, 563), (1005, 578), (1017, 600), (1033, 627), (1066, 687), (1082, 722), (1097, 756), (1111, 788), (1138, 851), (1146, 884), (1153, 912)]",62.57893897177165,"[1, 4, 8, 6, 5, 2, 7, 9, 3]","(0, 0.25)",DOT001C,DOT,C,English,Fri Aug 17 12:29:37 2018,Mouse
1,3,3,0,68,3,3,1,310,230,80,137,0,500,200,8000,"[(960, 540), (960, 540), (960, 540), (960, 540), (960, 540), (960, 540), (960, 540), (960, 540), (960, 540), (960, 540), (960, 540), (960, 540), (960, 540), (960, 540), (960, 540), (960, 540), (960, 540), (960, 540), (960, 540), (960, 540), (960, 540), (960, 540), (962, 537), (969, 535), (993, 527), (1016, 521), (1053, 504), (1113, 476), (1238, 407), (1304, 367), (1365, 326)]",332.1482482486132,"[1, 4, 8, 6, 5, 2, 7, 9, 3]","(0, 0.25)",DOT001C,DOT,C,English,Fri Aug 17 12:29:37 2018,Mouse
1,3,3,0,69,1,1,1,221,151,70,136,0,500,200,8000,"[(960, 540), (960, 540), (960, 540), (960, 540), (960, 540), (960, 540), (960, 540), (960, 540), (960, 540), (960, 540), (960, 540), (960, 540), (960, 540), (960, 540), (960, 540), (965, 543), (980, 552), (1020, 581), (1051, 602), (1084, 627), (1131, 659), (1240, 734), (1303, 773)]",34.18827913859343,"[1, 4, 8, 6, 5, 2, 7, 9, 3]","(0, 0.25)",DOT001C,DOT,C,English,Fri Aug 17 12:29:37 2018,Mouse
1,3,3,0,70,7,7,1,1821,1201,620,135,0,500,200,8000,"[(960, 540), (960, 540), (960, 540), (960, 540), (960, 540), (960, 540), (960, 540), (960, 540), (960, 540), (960, 540), (960, 540), (960, 540), (960, 540), (960, 540), (960, 540), (960, 540), (960, 540), (960, 540), (960, 540), (960, 540), (960, 540), (960, 540), (960, 540), (960, 540), (960, 540), (960, 540), (960, 540), (960, 540), (960, 540), (960, 540), (960, 540), (960, 540), (960, 540), (960, 540), (960, 540), (960, 540), (960, 540), (960, 540), (960, 540), (960, 540), (960, 540), (960, 540), (960, 540), (960, 540), (960, 540), (960, 540), (960, 540), (960, 540), (960, 540), (960, 540), (960, 540), (960, 540), (960, 540), (960, 540), (960, 540), (960, 540), (960, 540), (960, 540), (960, 540), (960, 540), (960, 540), (960, 540), (960, 540), (960, 540), (960, 540), (960, 540), (960, 540), (960, 540), (960, 540), (960, 540), (960, 540), (960, 540), (960, 540), (960, 540), (960, 540), (960, 540), (960, 540), (960, 540), (960, 540), (960, 540), (960, 540), (960, 540), (960, 540), (960, 540), (960, 540), (960, 540), (960, 540), (960, 540), (960, 540), (960, 540), (960, 540), (960, 540), (960, 540), (960, 540), (960, 540), (960, 540), (960, 540), (960, 540), (960, 540), (960, 540), (960, 540), (960, 540), (960, 540), (960, 540), (960, 540), (960, 540), (960, 540), (960, 540), (960, 540), (960, 540), (960, 540), (960, 540), (960, 540), (960, 540), (960, 540), (960, 540), (960, 540), (960, 540), (960, 540), (960, 540), (961, 539), (962, 539), (965, 536), (967, 535), (969, 533), (970, 533), (971, 532), (971, 532), (972, 531), (972, 531), (972, 531), (972, 531), (972, 531), (972, 531), (972, 531), (972, 531), (972, 531), (972, 531), (972, 531), (972, 531), (972, 531), (972, 531), (972, 531), (972, 531), (972, 531), (972, 531), (972, 531), (972, 531), (972, 531), (972, 531), (972, 531), (972, 531), (972, 531), (972, 531), (972, 531), (972, 531), (972, 531), (972, 531), (972, 531), (972, 531), (972, 531), (972, 531), (972, 531), (972, 531), (972, 531), (972, 531), (972, 531), (972, 531), (972, 531), (972, 531), (972, 531), (972, 531), (972, 531), (972, 530), (974, 515), (974, 503), (974, 476), (974, 432), (965, 327), (949, 277), (939, 231), (926, 186), (904, 111)]",262.56288243447534,"[1, 4, 8, 6, 5, 2, 7, 9, 3]","(0, 0.25)",DOT001C,DOT,C,English,Fri Aug 17 12:29:37 2018,Mouse
1,3,3,0,71,4,7,0,-358,298,60,134,0,500,200,8000,"[(960, 540), (960, 540), (960, 540), (960, 540), (960, 540), (960, 540), (960, 540), (960, 540), (960, 540), (960, 540), (960, 540), (960, 540), (960, 540), (960, 540), (960, 540), (960, 540), (960, 540), (960, 540), (960, 540), (960, 540), (960, 540), (960, 540), (960, 540), (960, 540), (960, 540), (960, 540), (960, 540), (960, 540), (960, 540), (959, 540), (947, 462), (938, 397), (928, 332), (915, 269), (888, 172), (875, 138)]",258.0610699180469,"[1, 4, 8, 6, 5, 2, 7, 9, 3]","(0, 0.25)",DOT001C,DOT,C,English,Fri Aug 17 12:29:37 2018,Mouse
1,3,3,0,72,8,8,1,701,661,40,135,0,500,200,8000,"[(960, 540), (960, 540), (960, 540), (960, 540), (960, 540), (960, 540), (960, 540), (960, 540), (960, 540), (960, 540), (960, 540), (960, 540), (960, 540), (960, 540), (960, 540), (960, 540), (960, 540), (960, 540), (960, 540), (960, 540), (960, 540), (960, 540), (960, 540), (960, 540), (960, 540), (960, 540), (960, 540), (960, 540), (960, 540), (960, 540), (960, 540), (960, 540), (960, 540), (960, 540), (960, 540), (960, 540), (960, 540), (960, 540), (960, 540), (960, 540), (960, 540), (960, 540), (960, 540), (960, 540), (960, 540), (960, 540), (960, 540), (960, 540), (960, 540), (960, 540), (960, 540), (960, 540), (960, 540), (960, 540), (960, 540), (960, 540), (960, 540), (960, 540), (960, 540), (960, 540), (960, 540), (960, 540), (960, 540), (960, 540), (960, 540), (960, 540), (954, 570), (938, 618), (914, 695), (885, 779), (855, 967)]",103.81502534126162,"[1, 4, 8, 6, 5, 2, 7, 9, 3]","(0, 0.25)",DOT001C,DOT,C,English,Fri Aug 17 12:29:37 2018,Mouse
1,3,3,0,73,3,1,0,-330,250,80,135,0,500,200,8000,"[(960, 540), (960, 540), (960, 540), (960, 540), (960, 540), (960, 540), (960, 540), (960, 540), (960, 540), (960, 540), (960, 540), (960, 540), (960, 540), (960, 540), (960, 540), (960, 540), (960, 540), (960, 540), (960, 540), (960, 540), (960, 540), (960, 540), (960, 540), (960, 540), (963, 539), (970, 539), (989, 539), (1007, 543), (1039, 548), (1097, 561), (1250, 593), (1333, 618), (1424, 643)]",12.51573245161649,"[1, 4, 8, 6, 5, 2, 7, 9, 3]","(0, 0.25)",DOT001C,DOT,C,English,Fri Aug 17 12:29:37 2018,Mouse
1,3,3,0,74,1,1,1,290,210,80,136,0,500,200,8000,"[(960, 540), (960, 540), (960, 540), (960, 540), (960, 540), (960, 540), (960, 540), (960, 540), (960, 540), (960, 540), (960, 540), (960, 540), (960, 540), (960, 540), (960, 540), (960, 540), (960, 540), (960, 540), (960, 540), (960, 540), (967, 540), (983, 544), (1010, 550), (1044, 561), (1124, 581), (1174, 597), (1235, 612), (1298, 631), (1409, 662)]",15.201117041844357,"[1, 4, 8, 6, 5, 2, 7, 9, 3]","(0, 0.25)",DOT001C,DOT,C,English,Fri Aug 17 12:29:37 2018,Mouse
1,3,3,0,75,2,3,0,-461,371,90,136,0,500,200,8000,"[(960, 540), (960, 540), (960, 540), (960, 540), (960, 540), (960, 540), (960, 540), (960, 540), (960, 540), (960, 540), (960, 540), (960, 540), (960, 540), (960, 540), (960, 540), (960, 540), (960, 540), (960, 540), (960, 540), (960, 540), (960, 540), (960, 540), (960, 540), (960, 540), (960, 540), (960, 540), (960, 540), (960, 540), (960, 540), (960, 540), (960, 540), (960, 540), (960, 540), (960, 540), (960, 540), (960, 540), (960, 540), (959, 539), (960, 537), (987, 524), (1003, 516), (1027, 501), (1055, 482), (1147, 438), (1198, 418), (1273, 392), (1347, 370)]",336.28524525658696,"[1, 4, 8, 6, 5, 2, 7, 9, 3]","(0, 0.25)",DOT001C,DOT,C,English,Fri Aug 17 12:29:37 2018,Mouse
1,3,3,0,76,9,9,1,342,262,80,137,0,500,200,8000,"[(960, 540), (960, 540), (960, 540), (960, 540), (960, 540), (960, 540), (960, 540), (960, 540), (960, 540), (960, 540), (960, 540), (960, 540), (960, 540), (960, 540), (960, 540), (960, 540), (960, 540), (960, 540), (960, 540), (960, 540), (960, 540), (960, 540), (960, 540), (960, 540), (960, 540), (960, 540), (960, 539), (966, 531), (997, 478), (1021, 437), (1047, 388), (1071, 339), (1119, 255), (1137, 222), (1155, 189)]",299.05460409907715,"[1, 4, 8, 6, 5, 2, 7, 9, 3]","(0, 0.25)",DOT001C,DOT,C,English,Fri Aug 17 12:29:37 2018,Mouse
1,3,3,0,77,5,4,0,-780,260,520,137,0,500,200,8000,"[(960, 540), (960, 540), (960, 540), (960, 540), (960, 540), (960, 540), (960, 540), (960, 540), (960, 540), (960, 540), (960, 540), (960, 540), (960, 540), (960, 540), (960, 540), (960, 540), (960, 540), (960, 540), (960, 540), (960, 540), (960, 540), (960, 540), (960, 540), (960, 540), (960, 540), (961, 540), (962, 540), (963, 540), (967, 541), (970, 543), (974, 551), (980, 558), (995, 585), (1007, 605), (1020, 629), (1041, 669), (1080, 753), (1094, 785), (1108, 814), (1117, 837), (1131, 868), (1136, 879), (1140, 885), (1143, 889), (1143, 889), (1143, 889), (1143, 889), (1143, 889), (1143, 889), (1143, 889), (1143, 889), (1143, 889), (1143, 889), (1143, 889), (1143, 889), (1143, 889), (1143, 889), (1143, 889), (1143, 889), (1143, 889), (1140, 889), (1138, 883), (1134, 877), (1128, 867), (1118, 847), (1115, 837), (1111, 828), (1110, 821), (1108, 815), (1108, 815), (1108, 815), (1108, 815), (1111, 824), (1119, 836), (1126, 849), (1132, 864), (1144, 892), (1149, 904)]",62.560272051800695,"[1, 4, 8, 6, 5, 2, 7, 9, 3]","(0, 0.25)",DOT001C,DOT,C,English,Fri Aug 17 12:29:37 2018,Mouse
1,3,3,0,78,5,5,1,640,420,220,138,0,500,200,8000,"[(960, 540), (960, 540), (960, 540), (960, 540), (960, 540), (960, 540), (960, 540), (960, 540), (960, 540), (960, 540), (960, 540), (960, 540), (960, 540), (960, 540), (960, 540), (960, 540), (960, 540), (960, 540), (960, 540), (960, 540), (960, 540), (960, 540), (960, 540), (960, 540), (960, 540), (960, 540), (960, 540), (960, 540), (960, 540), (960, 540), (960, 540), (960, 540), (960, 540), (960, 540), (960, 540), (960, 540), (960, 540), (960, 540), (960, 540), (960, 540), (960, 540), (960, 538), (960, 538), (960, 538), (960, 537), (960, 535), (960, 535), (960, 535), (960, 535), (960, 535), (960, 535), (960, 535), (960, 535), (960, 535), (960, 535), (959, 534), (950, 535), (923, 538), (895, 542), (850, 546), (793, 552), (658, 552), (591, 552), (522, 552)]",178.43064519525103,"[1, 4, 8, 6, 5, 2, 7, 9, 3]","(0, 0.25)",DOT001C,DOT,C,English,Fri Aug 17 12:29:37 2018,Mouse
1,3,3,0,79,1,1,1,381,291,90,138,0,500,200,8000,"[(960, 540), (960, 540), (960, 540), (960, 540), (960, 540), (960, 540), (960, 540), (960, 540), (960, 540), (960, 540), (960, 540), (960, 540), (960, 540), (960, 540), (960, 540), (960, 540), (960, 540), (960, 540), (960, 540), (960, 540), (960, 540), (960, 540), (960, 540), (960, 540), (960, 540), (960, 540), (960, 540), (960, 540), (960, 540), (970, 546), (978, 548), (990, 554), (1004, 560), (1061, 582), (1098, 595), (1149, 620), (1198, 640), (1289, 679), (1331, 695)]",22.674672449510982,"[1, 4, 8, 6, 5, 2, 7, 9, 3]","(0, 0.25)",DOT001C,DOT,C,English,Fri Aug 17 12:29:37 2018,Mouse
1,3,3,0,80,3,3,1,379,299,80,137,0,500,200,8000,"[(960, 540), (960, 540), (960, 540), (960, 540), (960, 540), (960, 540), (960, 540), (960, 540), (960, 540), (960, 540), (960, 540), (960, 540), (960, 540), (960, 540), (960, 540), (960, 540), (960, 540), (960, 540), (960, 540), (960, 540), (960, 540), (960, 540), (960, 540), (960, 540), (960, 540), (960, 540), (960, 540), (960, 540), (960, 540), (965, 539), (973, 534), (988, 525), (1016, 510), (1091, 470), (1143, 448), (1196, 423), (1253, 402), (1353, 366)]",336.118723982391,"[1, 4, 8, 6, 5, 2, 7, 9, 3]","(0, 0.25)",DOT001C,DOT,C,English,Fri Aug 17 12:29:37 2018,Mouse
1,3,3,0,81,9,9,1,251,71,180,136,0,500,200,8000,"[(960, 540), (960, 540), (960, 540), (960, 540), (960, 540), (960, 540), (960, 540), (961, 541), (961, 541), (961, 541), (961, 541), (961, 541), (961, 541), (964, 537), (969, 527), (983, 501), (995, 486), (1008, 469), (1024, 446), (1062, 393), (1088, 361), (1117, 327), (1137, 301), (1174, 253), (1191, 228), (1203, 209)]",306.2838433799036,"[1, 4, 8, 6, 5, 2, 7, 9, 3]","(0, 0.25)",DOT001C,DOT,C,English,Fri Aug 17 12:29:37 2018,Mouse
1,3,3,0,82,6,6,1,770,660,110,135,0,500,200,8000,"[(960, 540), (960, 540), (960, 540), (960, 540), (960, 540), (960, 540), (960, 540), (960, 540), (960, 540), (960, 540), (960, 540), (960, 540), (960, 540), (960, 540), (960, 540), (960, 540), (960, 540), (960, 540), (960, 540), (960, 540), (960, 540), (960, 540), (960, 540), (960, 540), (960, 540), (960, 540), (960, 540), (960, 540), (960, 540), (960, 540), (960, 540), (960, 540), (960, 540), (960, 540), (960, 540), (960, 540), (960, 540), (960, 540), (960, 540), (960, 540), (960, 540), (960, 540), (960, 540), (960, 540), (960, 540), (960, 540), (960, 540), (960, 540), (960, 540), (960, 540), (960, 540), (960, 540), (960, 540), (960, 540), (960, 540), (960, 540), (960, 540), (960, 540), (960, 540), (960, 540), (960, 540), (960, 540), (960, 540), (960, 540), (960, 540), (960, 541), (957, 543), (956, 547), (945, 566), (938, 577), (929, 592), (919, 611), (876, 680), (846, 724), (808, 777), (758, 834), (663, 944)]",126.32141072794913,"[1, 4, 8, 6, 5, 2, 7, 9, 3]","(0, 0.25)",DOT001C,DOT,C,English,Fri Aug 17 12:29:37 2018,Mouse
1,3,3,0,83,9,7,0,-1039,659,380,134,0,500,200,8000,"[(960, 540), (960, 540), (960, 540), (960, 540), (960, 540), (960, 540), (960, 540), (960, 540), (960, 540), (960, 540), (960, 540), (960, 540), (960, 540), (960, 540), (960, 540), (960, 540), (960, 540), (960, 540), (960, 540), (960, 540), (960, 540), (960, 540), (960, 540), (960, 540), (960, 540), (960, 540), (960, 540), (960, 540), (960, 540), (960, 540), (960, 540), (960, 540), (960, 540), (960, 540), (960, 540), (960, 540), (960, 540), (960, 540), (960, 540), (960, 540), (960, 540), (960, 540), (960, 540), (960, 540), (960, 540), (960, 540), (960, 540), (960, 540), (960, 540), (960, 540), (960, 540), (960, 540), (960, 540), (960, 540), (960, 540), (960, 540), (960, 540), (960, 540), (960, 540), (960, 540), (960, 540), (960, 540), (960, 540), (960, 540), (960, 540), (962, 539), (964, 539), (964, 539), (966, 539), (966, 538), (966, 538), (967, 538), (967, 537), (967, 537), (967, 537), (967, 534), (968, 534), (968, 532), (968, 529), (968, 528), (968, 528), (968, 527), (968, 527), (968, 527), (968, 527), (968, 527), (968, 527), (968, 527), (968, 527), (968, 527), (968, 527), (968, 527), (968, 527), (968, 526), (968, 517), (968, 506), (968, 488), (968, 465), (962, 399), (958, 357), (951, 319), (945, 268), (929, 162), (922, 121)]",264.8179007196869,"[1, 4, 8, 6, 5, 2, 7, 9, 3]","(0, 0.25)",DOT001C,DOT,C,English,Fri Aug 17 12:29:37 2018,Mouse
1,3,3,0,84,5,5,1,1360,660,700,135,0,500,200,8000,"[(960, 540), (960, 540), (960, 540), (960, 540), (960, 540), (960, 540), (960, 540), (960, 540), (960, 540), (960, 540), (960, 540), (960, 540), (960, 540), (960, 540), (960, 540), (960, 540), (960, 540), (960, 540), (960, 540), (960, 540), (960, 540), (960, 540), (960, 540), (960, 540), (960, 540), (960, 540), (960, 540), (960, 540), (960, 540), (960, 540), (960, 540), (960, 540), (960, 540), (960, 540), (960, 540), (960, 540), (960, 540), (960, 540), (960, 540), (960, 540), (960, 540), (960, 540), (960, 540), (960, 540), (960, 540), (960, 540), (960, 540), (960, 540), (960, 540), (960, 540), (960, 540), (960, 540), (960, 540), (960, 540), (960, 540), (960, 540), (960, 540), (960, 540), (960, 540), (960, 540), (960, 540), (960, 540), (960, 540), (960, 540), (960, 540), (959, 545), (953, 555), (945, 568), (935, 587), (914, 622), (905, 636), (902, 643), (899, 647), (898, 648), (898, 648), (898, 648), (898, 648), (898, 648), (898, 648), (898, 648), (898, 648), (898, 648), (898, 648), (898, 648), (898, 648), (898, 648), (898, 648), (898, 648), (898, 648), (898, 648), (898, 648), (898, 648), (898, 648), (898, 648), (898, 648), (898, 648), (898, 648), (898, 648), (898, 648), (898, 648), (898, 648), (898, 648), (898, 648), (898, 648), (898, 648), (898, 648), (898, 648), (898, 648), (898, 648), (898, 648), (898, 648), (898, 648), (898, 648), (898, 648), (898, 648), (898, 648), (898, 648), (898, 648), (898, 648), (898, 648), (898, 648), (898, 648), (898, 648), (898, 648), (898, 648), (898, 648), (898, 648), (896, 649), (891, 649), (861, 646), (833, 646), (797, 646), (750, 646), (656, 646), (603, 646), (550, 646)]",165.50435004695902,"[1, 4, 8, 6, 5, 2, 7, 9, 3]","(0, 0.25)",DOT001C,DOT,C,English,Fri Aug 17 12:29:37 2018,Mouse
1,3,3,0,85,2,3,0,-670,600,70,135,0,500,200,8000,"[(960, 540), (960, 540), (960, 540), (960, 540), (960, 540), (960, 540), (960, 540), (960, 540), (960, 540), (960, 540), (960, 540), (960, 540), (960, 540), (960, 540), (960, 540), (960, 540), (960, 540), (960, 540), (960, 540), (960, 540), (960, 540), (960, 540), (960, 540), (960, 540), (960, 540), (960, 540), (960, 540), (960, 540), (960, 540), (960, 540), (960, 540), (960, 540), (960, 540), (960, 540), (960, 540), (960, 540), (960, 540), (960, 540), (960, 540), (960, 540), (960, 540), (960, 540), (960, 540), (960, 540), (960, 540), (960, 540), (960, 540), (960, 540), (960, 540), (960, 540), (960, 540), (960, 540), (960, 540), (960, 540), (960, 540), (960, 540), (960, 540), (960, 540), (960, 540), (968, 539), (1018, 516), (1058, 499), (1105, 486), (1158, 467), (1280, 431), (1334, 411), (1390, 390)]",340.7693276243387,"[1, 4, 8, 6, 5, 2, 7, 9, 3]","(0, 0.25)",DOT001C,DOT,C,English,Fri Aug 17 12:29:37 2018,Mouse
1,3,3,0,86,2,2,1,660,570,90,136,0,500,200,8000,"[(960, 540), (960, 540), (960, 540), (960, 540), (960, 540), (960, 540), (960, 540), (960, 540), (960, 540), (960, 540), (960, 540), (960, 540), (960, 540), (960, 540), (960, 540), (960, 540), (960, 540), (960, 540), (960, 540), (960, 540), (960, 540), (960, 540), (960, 540), (960, 540), (960, 540), (960, 540), (960, 540), (960, 540), (960, 540), (960, 540), (960, 540), (960, 540), (960, 540), (960, 540), (960, 540), (960, 540), (960, 540), (960, 540), (960, 540), (960, 540), (960, 540), (960, 540), (960, 540), (960, 540), (960, 540), (960, 540), (960, 540), (960, 540), (960, 540), (960, 540), (960, 540), (960, 540), (960, 540), (960, 540), (960, 540), (960, 540), (954, 540), (944, 537), (930, 525), (913, 507), (855, 456), (819, 430), (780, 400), (732, 367), (642, 313), (595, 287)]",214.72779139697923,"[1, 4, 8, 6, 5, 2, 7, 9, 3]","(0, 0.25)",DOT001C,DOT,C,English,Fri Aug 17 12:29:37 2018,Mouse
1,3,3,0,87,6,6,1,901,771,130,136,0,500,200,8000,"[(960, 540), (960, 540), (960, 540), (960, 540), (960, 540), (960, 540), (960, 540), (960, 540), (960, 540), (960, 540), (960, 540), (960, 540), (960, 540), (960, 540), (960, 540), (960, 540), (960, 540), (960, 540), (960, 540), (960, 540), (960, 540), (960, 540), (960, 540), (960, 540), (960, 540), (960, 540), (960, 540), (960, 540), (960, 540), (960, 540), (960, 540), (960, 540), (960, 540), (960, 540), (960, 540), (960, 540), (960, 540), (960, 540), (960, 540), (960, 540), (960, 540), (960, 540), (960, 540), (960, 540), (960, 540), (960, 540), (960, 540), (960, 540), (960, 540), (960, 540), (960, 540), (960, 540), (960, 540), (960, 540), (960, 540), (960, 540), (960, 540), (960, 540), (960, 540), (960, 540), (960, 540), (960, 540), (960, 540), (960, 540), (960, 540), (960, 540), (960, 540), (960, 540), (960, 540), (960, 540), (960, 540), (960, 540), (960, 540), (960, 540), (960, 540), (960, 540), (960, 540), (961, 541), (949, 556), (942, 565), (927, 579), (905, 605), (845, 664), (821, 688), (794, 715), (770, 739), (737, 774), (724, 788), (712, 802), (699, 814), (675, 834)]",134.10946374663942,"[1, 4, 8, 6, 5, 2, 7, 9, 3]","(0, 0.25)",DOT001C,DOT,C,English,Fri Aug 17 12:29:37 2018,Mouse
1,3,3,0,88,5,5,1,672,532,140,135,0,500,200,8000,"[(960, 540), (960, 540), (960, 540), (960, 540), (960, 540), (960, 540), (960, 540), (960, 540), (960, 540), (960, 540), (960, 540), (960, 540), (960, 540), (960, 540), (960, 540), (960, 540), (960, 540), (960, 540), (960, 540), (960, 540), (960, 540), (960, 540), (960, 540), (960, 540), (960, 540), (960, 540), (960, 540), (960, 540), (960, 540), (960, 540), (960, 540), (960, 540), (960, 540), (960, 540), (960, 540), (960, 540), (960, 540), (960, 540), (960, 540), (960, 540), (960, 540), (960, 540), (960, 540), (960, 540), (960, 540), (960, 540), (960, 540), (960, 540), (960, 540), (960, 540), (960, 540), (960, 540), (960, 540), (959, 540), (953, 540), (939, 543), (929, 545), (918, 546), (906, 546), (879, 546), (865, 546), (849, 546), (821, 546), (745, 550), (702, 553), (660, 553), (598, 564), (468, 580)]",175.35202930861297,"[1, 4, 8, 6, 5, 2, 7, 9, 3]","(0, 0.25)",DOT001C,DOT,C,English,Fri Aug 17 12:29:37 2018,Mouse
1,3,3,0,89,9,5,0,-907,837,70,134,0,500,200,8000,"[(960, 540), (960, 540), (960, 540), (960, 540), (960, 540), (960, 540), (960, 540), (960, 540), (960, 540), (960, 540), (960, 540), (960, 540), (960, 540), (960, 540), (960, 540), (960, 540), (960, 540), (960, 540), (960, 540), (960, 540), (960, 540), (960, 540), (960, 540), (960, 540), (960, 540), (960, 540), (960, 540), (960, 540), (960, 540), (960, 540), (960, 540), (960, 540), (960, 540), (960, 540), (960, 540), (960, 540), (960, 540), (960, 540), (960, 540), (960, 540), (960, 540), (960, 540), (960, 540), (960, 540), (960, 540), (960, 540), (960, 540), (960, 540), (960, 540), (960, 540), (960, 540), (960, 540), (960, 540), (960, 540), (960, 540), (960, 540), (960, 540), (960, 540), (960, 540), (960, 540), (960, 540), (960, 540), (960, 540), (960, 540), (960, 540), (960, 540), (960, 540), (960, 540), (960, 540), (960, 540), (960, 540), (960, 540), (960, 540), (960, 540), (960, 540), (960, 540), (960, 540), (960, 540), (960, 540), (960, 540), (960, 540), (960, 540), (960, 540), (959, 540), (952, 541), (934, 546), (866, 560), (817, 566), (756, 566), (689, 570), (551, 570)]",175.80488829170793,"[1, 4, 8, 6, 5, 2, 7, 9, 3]","(0, 0.25)",DOT001C,DOT,C,English,Fri Aug 17 12:29:37 2018,Mouse
1,3,3,0,90,2,2,1,580,470,110,135,0,500,200,8000,"[(960, 540), (960, 540), (960, 540), (960, 540), (960, 540), (960, 540), (960, 540), (960, 540), (960, 540), (960, 540), (960, 540), (960, 540), (960, 540), (960, 540), (960, 540), (960, 540), (960, 540), (960, 540), (960, 540), (960, 540), (960, 540), (960, 540), (960, 540), (960, 540), (960, 540), (960, 540), (960, 540), (960, 540), (960, 540), (960, 540), (960, 540), (960, 540), (960, 540), (960, 540), (960, 540), (960, 540), (960, 540), (960, 540), (960, 540), (960, 540), (960, 540), (960, 540), (960, 540), (960, 540), (960, 540), (960, 540), (959, 539), (957, 539), (953, 535), (948, 532), (926, 512), (905, 493), (883, 471), (853, 439), (785, 376), (738, 345), (689, 318), (635, 294)]",217.1229195612166,"[1, 4, 8, 6, 5, 2, 7, 9, 3]","(0, 0.25)",DOT001C,DOT,C,English,Fri Aug 17 12:29:37 2018,Mouse
1,3,3,0,91,6,6,1,880,790,90,135,0,500,200,8000,"[(960, 540), (960, 540), (960, 540), (960, 540), (960, 540), (960, 540), (960, 540), (960, 540), (960, 540), (960, 540), (960, 540), (960, 540), (960, 540), (960, 540), (960, 540), (960, 540), (960, 540), (960, 540), (960, 540), (960, 540), (960, 540), (960, 540), (960, 540), (960, 540), (960, 540), (960, 540), (960, 540), (960, 540), (960, 540), (960, 540), (960, 540), (960, 540), (960, 540), (960, 540), (960, 540), (960, 540), (960, 540), (960, 540), (960, 540), (960, 540), (960, 540), (960, 540), (960, 540), (960, 540), (960, 540), (960, 540), (960, 540), (960, 540), (960, 540), (960, 540), (960, 540), (960, 540), (960, 540), (960, 540), (960, 540), (960, 540), (960, 540), (960, 540), (960, 540), (960, 540), (960, 540), (960, 540), (960, 540), (960, 540), (960, 540), (960, 540), (960, 540), (960, 540), (960, 540), (960, 540), (960, 540), (960, 540), (960, 540), (960, 540), (960, 540), (960, 540), (960, 540), (960, 540), (960, 543), (945, 561), (928, 579), (896, 611), (858, 649), (780, 723), (740, 755), (704, 782), (670, 804), (595, 856)]",139.11551126725124,"[1, 4, 8, 6, 5, 2, 7, 9, 3]","(0, 0.25)",DOT001C,DOT,C,English,Fri Aug 17 12:29:37 2018,Mouse
1,3,3,0,92,1,1,1,240,150,90,134,0,500,200,8000,"[(960, 540), (960, 540), (960, 540), (960, 540), (960, 540), (960, 540), (960, 540), (960, 540), (960, 540), (960, 540), (960, 540), (960, 540), (960, 540), (960, 540), (968, 540), (980, 542), (997, 549), (1020, 556), (1088, 585), (1134, 605), (1177, 622), (1225, 645), (1318, 695), (1366, 717)]",23.555304365961533,"[1, 4, 8, 6, 5, 2, 7, 9, 3]","(0, 0.25)",DOT001C,DOT,C,English,Fri Aug 17 12:29:37 2018,Mouse
1,3,3,0,93,4,5,0,-1301,580,721,133,0,500,200,8000,"[(960, 540), (960, 540), (960, 540), (960, 540), (960, 540), (960, 540), (960, 540), (960, 540), (960, 540), (960, 540), (960, 540), (960, 540), (960, 540), (960, 540), (960, 540), (960, 540), (960, 540), (960, 540), (960, 540), (960, 540), (960, 540), (960, 540), (960, 540), (960, 540), (960, 540), (960, 540), (960, 540), (960, 540), (960, 540), (960, 540), (960, 540), (960, 540), (960, 540), (960, 540), (960, 540), (960, 540), (960, 540), (960, 540), (960, 540), (960, 540), (960, 540), (960, 540), (960, 540), (960, 540), (960, 540), (960, 540), (960, 540), (960, 540), (960, 540), (960, 540), (960, 540), (960, 540), (960, 540), (960, 540), (960, 540), (960, 540), (960, 540), (960, 537), (960, 526), (960, 507), (960, 485), (955, 453), (952, 441), (949, 434), (948, 427), (946, 422), (945, 421), (945, 421), (945, 421), (945, 421), (945, 421), (945, 421), (945, 421), (945, 421), (945, 421), (945, 421), (945, 421), (945, 420), (945, 420), (945, 420), (945, 421), (945, 422), (945, 424), (945, 425), (945, 425), (945, 427), (945, 428), (945, 428), (945, 428), (945, 430), (945, 430), (945, 430), (945, 430), (945, 430), (945, 430), (945, 430), (945, 430), (945, 430), (945, 430), (945, 430), (945, 430), (945, 430), (945, 430), (945, 430), (945, 430), (945, 430), (945, 430), (945, 430), (945, 430), (945, 430), (945, 430), (945, 430), (945, 430), (945, 430), (945, 430), (945, 430), (945, 430), (945, 430), (945, 430), (945, 433), (943, 435), (930, 446), (914, 460), (889, 476), (856, 494), (748, 529), (685, 542), (628, 550), (569, 554), (463, 556)]",178.1561046908512,"[1, 4, 8, 6, 5, 2, 7, 9, 3]","(0, 0.25)",DOT001C,DOT,C,English,Fri Aug 17 12:29:37 2018,Mouse
1,3,3,0,94,2,2,1,720,80,640,134,0,500,200,8000,"[(960, 540), (960, 540), (960, 540), (960, 540), (960, 540), (960, 540), (960, 540), (961, 540), (961, 540), (961, 540), (961, 540), (961, 540), (961, 540), (961, 540), (961, 540), (961, 540), (961, 540), (961, 540), (961, 540), (961, 540), (961, 540), (961, 540), (961, 540), (961, 540), (961, 540), (961, 540), (961, 540), (961, 540), (962, 540), (962, 540), (962, 541), (963, 542), (963, 542), (964, 542), (964, 542), (965, 543), (965, 543), (965, 544), (966, 545), (966, 545), (966, 545), (966, 546), (966, 546), (967, 547), (967, 547), (967, 548), (967, 548), (968, 549), (968, 549), (968, 549), (968, 549), (968, 549), (968, 549), (968, 549), (968, 549), (968, 549), (968, 549), (968, 549), (968, 549), (968, 549), (968, 549), (968, 549), (968, 549), (968, 549), (969, 549), (964, 540), (929, 498), (894, 465), (854, 429), (801, 387), (695, 315), (641, 286)]",218.52814449615803,"[1, 4, 8, 6, 5, 2, 7, 9, 3]","(0, 0.25)",DOT001C,DOT,C,English,Fri Aug 17 12:29:37 2018,Mouse
1,3,3,0,95,2,1,0,-1659,699,960,134,0,500,200,8000,"[(960, 540), (960, 540), (960, 540), (960, 540), (960, 540), (960, 540), (960, 540), (960, 540), (960, 540), (960, 540), (960, 540), (960, 540), (960, 540), (960, 540), (960, 540), (960, 540), (960, 540), (960, 540), (960, 540), (960, 540), (960, 540), (960, 540), (960, 540), (960, 540), (960, 540), (960, 540), (960, 540), (960, 540), (960, 540), (960, 540), (960, 540), (960, 540), (960, 540), (960, 540), (960, 540), (960, 540), (960, 540), (960, 540), (960, 540), (960, 540), (960, 540), (960, 540), (960, 540), (960, 540), (960, 540), (960, 540), (960, 540), (960, 540), (960, 540), (960, 540), (960, 540), (960, 540), (960, 540), (960, 540), (960, 540), (960, 540), (960, 540), (960, 540), (960, 540), (960, 540), (960, 540), (960, 540), (960, 540), (960, 540), (960, 540), (960, 540), (960, 540), (960, 540), (960, 540), (961, 540), (962, 540), (962, 540), (962, 540), (962, 540), (963, 540), (963, 540), (963, 540), (963, 540), (963, 540), (963, 540), (963, 540), (963, 540), (963, 540), (963, 540), (963, 540), (963, 540), (963, 540), (963, 540), (963, 540), (963, 540), (963, 540), (963, 540), (963, 540), (963, 540), (963, 540), (963, 540), (963, 540), (963, 540), (963, 540), (963, 540), (963, 540), (963, 540), (963, 540), (963, 540), (963, 540), (963, 540), (963, 540), (963, 540), (963, 540), (963, 540), (963, 540), (963, 540), (963, 540), (963, 540), (963, 540), (963, 540), (963, 540), (963, 540), (963, 540), (963, 540), (963, 540), (963, 540), (963, 540), (963, 540), (963, 540), (963, 540), (963, 540), (963, 540), (963, 540), (963, 540), (963, 540), (963, 540), (963, 540), (963, 540), (963, 540), (963, 540), (963, 540), (963, 540), (963, 540), (963, 540), (963, 540), (963, 540), (963, 540), (963, 540), (963, 540), (963, 540), (963, 540), (963, 540), (963, 540), (963, 540), (963, 540), (963, 540), (963, 540), (963, 540), (963, 540), (963, 540), (963, 540), (969, 540), (978, 540), (996, 544), (1027, 553), (1134, 581), (1198, 596), (1272, 620), (1344, 642), (1491, 683)]",15.072357665768022,"[1, 4, 8, 6, 5, 2, 7, 9, 3]","(0, 0.25)",DOT001C,DOT,C,English,Fri Aug 17 12:29:37 2018,Mouse
1,3,3,0,96,4,4,1,360,280,80,135,0,500,200,8000,"[(960, 540), (960, 540), (960, 540), (960, 540), (960, 540), (960, 540), (960, 540), (960, 540), (960, 540), (960, 540), (960, 540), (960, 540), (960, 540), (960, 540), (960, 540), (960, 540), (960, 540), (960, 540), (960, 540), (960, 540), (960, 540), (960, 540), (960, 540), (960, 540), (960, 540), (960, 540), (960, 540), (960, 542), (962, 553), (970, 573), (1004, 651), (1024, 699), (1044, 747), (1065, 800), (1110, 902), (1134, 954)]",67.20347853205739,"[1, 4, 8, 6, 5, 2, 7, 9, 3]","(0, 0.25)",DOT001C,DOT,C,English,Fri Aug 17 12:29:37 2018,Mouse
1,3,3,0,97,2,2,1,350,270,80,135,0,500,200,8000,"[(960, 540), (960, 540), (960, 540), (960, 540), (960, 540), (960, 540), (960, 540), (960, 540), (960, 540), (960, 540), (960, 540), (960, 540), (960, 540), (960, 540), (960, 540), (960, 540), (960, 540), (960, 540), (960, 540), (960, 540), (960, 540), (960, 540), (960, 540), (960, 540), (960, 540), (960, 540), (960, 534), (951, 520), (932, 495), (876, 431), (838, 391), (801, 360), (764, 328), (691, 273), (654, 248)]",223.6588722202828,"[1, 4, 8, 6, 5, 2, 7, 9, 3]","(0, 0.25)",DOT001C,DOT,C,English,Fri Aug 17 12:29:37 2018,Mouse
1,3,3,0,98,3,3,1,340,280,60,134,0,500,200,8000,"[(960, 540), (960, 540), (960, 540), (960, 540), (960, 540), (960, 540), (960, 540), (960, 540), (960, 540), (960, 540), (960, 540), (960, 540), (960, 540), (960, 540), (960, 540), (960, 540), (960, 540), (960, 540), (960, 540), (960, 540), (960, 540), (960, 540), (960, 540), (960, 540), (960, 540), (960, 540), (960, 540), (970, 538), (999, 523), (1122, 458), (1187, 423), (1252, 391), (1312, 363), (1406, 335)]",335.31453687282857,"[1, 4, 8, 6, 5, 2, 7, 9, 3]","(0, 0.25)",DOT001C,DOT,C,English,Fri Aug 17 12:29:37 2018,Mouse
1,3,3,0,99,1,1,1,812,752,60,133,0,500,200,8000,"[(960, 540), (960, 540), (960, 540), (960, 540), (960, 540), (960, 540), (960, 540), (960, 540), (960, 540), (960, 540), (960, 540), (960, 540), (960, 540), (960, 540), (960, 540), (960, 540), (960, 540), (960, 540), (960, 540), (960, 540), (960, 540), (960, 540), (960, 540), (960, 540), (960, 540), (960, 540), (960, 540), (960, 540), (960, 540), (960, 540), (960, 540), (960, 540), (960, 540), (960, 540), (960, 540), (960, 540), (960, 540), (960, 540), (960, 540), (960, 540), (960, 540), (960, 540), (960, 540), (960, 540), (960, 540), (960, 540), (960, 540), (960, 540), (960, 540), (960, 540), (960, 540), (960, 540), (960, 540), (960, 540), (960, 540), (960, 540), (960, 540), (960, 540), (960, 540), (960, 540), (960, 540), (960, 540), (960, 540), (960, 540), (960, 540), (960, 540), (960, 540), (960, 540), (960, 540), (960, 540), (960, 540), (960, 540), (960, 540), (960, 540), (960, 540), (990, 546), (1028, 556), (1076, 576), (1126, 592), (1237, 642), (1291, 664), (1344, 687)]",20.94747058695116,"[1, 4, 8, 6, 5, 2, 7, 9, 3]","(0, 0.25)",DOT001C,DOT,C,English,Fri Aug 17 12:29:37 2018,Mouse
1,3,3,0,100,4,4,1,410,320,90,132,0,500,200,8000,"[(960, 540), (960, 540), (960, 540), (960, 540), (960, 540), (960, 540), (960, 540), (960, 540), (960, 540), (960, 540), (960, 540), (960, 540), (960, 540), (960, 540), (960, 540), (960, 540), (960, 540), (960, 540), (960, 540), (960, 540), (960, 540), (960, 540), (960, 540), (960, 540), (960, 540), (960, 540), (960, 540), (960, 540), (960, 540), (960, 540), (960, 540), (961, 544), (975, 580), (992, 614), (1008, 649), (1029, 685), (1088, 763), (1117, 800), (1153, 838), (1179, 874), (1222, 940)]",56.77520119878806,"[1, 4, 8, 6, 5, 2, 7, 9, 3]","(0, 0.25)",DOT001C,DOT,C,English,Fri Aug 17 12:29:37 2018,Mouse
1,3,3,0,101,8,5,0,-899,599,300,131,0,500,200,8000,"[(960, 540), (960, 540), (960, 540), (960, 540), (960, 540), (960, 540), (960, 540), (960, 540), (960, 540), (960, 540), (960, 540), (960, 540), (960, 540), (960, 540), (960, 540), (960, 540), (960, 540), (960, 540), (960, 540), (960, 540), (960, 540), (960, 540), (960, 540), (960, 540), (960, 540), (960, 540), (960, 540), (960, 540), (960, 540), (960, 540), (960, 540), (960, 540), (960, 540), (960, 540), (960, 540), (960, 540), (960, 540), (960, 540), (960, 540), (960, 540), (960, 540), (960, 540), (960, 540), (960, 540), (960, 540), (960, 540), (960, 540), (960, 540), (960, 540), (960, 540), (960, 540), (960, 540), (960, 540), (960, 540), (960, 540), (960, 540), (960, 540), (960, 540), (960, 540), (961, 540), (961, 540), (961, 540), (961, 540), (961, 540), (961, 540), (961, 540), (961, 540), (961, 540), (961, 540), (961, 540), (961, 540), (961, 540), (961, 540), (961, 540), (961, 540), (961, 540), (961, 540), (961, 540), (961, 540), (961, 540), (961, 540), (961, 540), (961, 540), (960, 540), (951, 541), (929, 548), (816, 579), (722, 601), (618, 625), (517, 638)]",167.52598144891593,"[1, 4, 8, 6, 5, 2, 7, 9, 3]","(0, 0.25)",DOT001C,DOT,C,English,Fri Aug 17 12:29:37 2018,Mouse
1,3,3,0,102,9,1,0,-580,520,60,132,0,500,200,8000,"[(960, 540), (960, 540), (960, 540), (960, 540), (960, 540), (960, 540), (960, 540), (960, 540), (960, 540), (960, 540), (960, 540), (960, 540), (960, 540), (960, 540), (960, 540), (960, 540), (960, 540), (960, 540), (960, 540), (960, 540), (960, 540), (960, 540), (960, 540), (960, 540), (960, 540), (960, 540), (960, 540), (960, 540), (960, 540), (960, 540), (960, 540), (960, 540), (960, 540), (960, 540), (960, 540), (960, 540), (960, 540), (960, 540), (960, 540), (960, 540), (960, 540), (960, 540), (960, 540), (960, 540), (960, 540), (960, 540), (960, 540), (960, 540), (960, 540), (960, 540), (960, 540), (986, 548), (1031, 568), (1077, 588), (1128, 610), (1245, 650), (1298, 666), (1347, 680)]",19.887950654205866,"[1, 4, 8, 6, 5, 2, 7, 9, 3]","(0, 0.25)",DOT001C,DOT,C,English,Fri Aug 17 12:29:37 2018,Mouse
1,3,3,0,103,3,7,0,-2529,2439,90,133,0,500,200,8000,"[(960, 540), (960, 540), (960, 540), (960, 540), (960, 540), (960, 540), (960, 540), (960, 540), (960, 540), (960, 540), (960, 540), (960, 540), (960, 540), (960, 540), (960, 540), (960, 540), (960, 540), (960, 540), (960, 540), (960, 540), (960, 540), (960, 540), (960, 540), (960, 540), (960, 540), (960, 540), (960, 540), (960, 540), (960, 540), (960, 540), (960, 540), (960, 540), (960, 540), (960, 540), (960, 540), (960, 540), (960, 540), (960, 540), (960, 540), (960, 540), (960, 540), (960, 540), (960, 540), (960, 540), (960, 540), (960, 540), (960, 540), (960, 540), (960, 540), (960, 540), (960, 540), (960, 540), (960, 540), (960, 540), (960, 540), (960, 540), (960, 540), (960, 540), (960, 540), (960, 540), (960, 540), (960, 540), (960, 540), (960, 540), (960, 540), (960, 540), (960, 540), (960, 540), (960, 540), (960, 540), (960, 540), (960, 540), (960, 540), (960, 540), (960, 540), (960, 540), (960, 540), (960, 540), (960, 540), (960, 540), (960, 540), (960, 540), (960, 540), (960, 540), (960, 540), (960, 540), (960, 540), (960, 540), (960, 540), (960, 540), (960, 540), (960, 540), (960, 540), (960, 540), (960, 540), (960, 540), (960, 540), (960, 540), (960, 540), (960, 540), (960, 540), (960, 540), (960, 540), (960, 540), (960, 540), (960, 540), (960, 540), (960, 540), (960, 540), (960, 540), (960, 540), (960, 540), (960, 540), (960, 540), (960, 540), (960, 540), (960, 540), (960, 540), (960, 540), (960, 540), (960, 540), (960, 540), (960, 540), (960, 540), (960, 540), (960, 540), (960, 540), (960, 540), (960, 540), (960, 540), (960, 540), (960, 540), (960, 540), (960, 540), (960, 540), (960, 540), (960, 540), (960, 540), (960, 540), (960, 540), (960, 540), (960, 540), (960, 540), (960, 540), (960, 540), (960, 540), (960, 540), (960, 540), (960, 540), (960, 540), (960, 540), (960, 540), (960, 540), (960, 540), (960, 540), (960, 540), (960, 540), (960, 540), (960, 540), (960, 540), (960, 540), (960, 540), (960, 540), (960, 540), (960, 540), (960, 540), (960, 540), (960, 540), (960, 540), (960, 540), (960, 540), (960, 540), (960, 540), (960, 540), (960, 540), (960, 540), (960, 540), (960, 540), (960, 540), (960, 540), (960, 540), (960, 540), (960, 540), (960, 540), (960, 540), (960, 540), (960, 540), (960, 540), (960, 540), (960, 540), (960, 540), (960, 540), (960, 540), (960, 540), (960, 540), (960, 540), (960, 540), (960, 540), (960, 540), (960, 540), (960, 540), (960, 540), (960, 540), (960, 540), (960, 540), (960, 540), (960, 540), (960, 540), (960, 540), (960, 540), (960, 540), (960, 540), (960, 540), (960, 540), (960, 540), (960, 540), (960, 540), (960, 540), (960, 540), (960, 540), (960, 540), (960, 540), (960, 540), (960, 540), (960, 540), (960, 540), (960, 540), (960, 540), (960, 540), (960, 540), (960, 540), (960, 540), (960, 540), (960, 540), (960, 540), (960, 540), (960, 540), (960, 540), (960, 540), (960, 540), (960, 540), (960, 540), (960, 540), (959, 532), (956, 484), (953, 452), (948, 418), (942, 375), (926, 277), (912, 227), (903, 181), (890, 147), (880, 108)]",259.5085229876684,"[1, 4, 8, 6, 5, 2, 7, 9, 3]","(0, 0.25)",DOT001C,DOT,C,English,Fri Aug 17 12:29:37 2018,Mouse
