NativeLangNumber,LanuageNumber,SessionNumber,Block,TrialNum,ConditionNumber,Response,Accuracy,RT,MovementOnsetTime,TimeInMotion,SignalContrast,SignalContrastNumber,StimDisplayTime,MaskTime,MaxResponseTime,MousePositionXY,MouseAngle,WheelOrder,NoiseMuSigma,ParticipantID,LanuageTested,SessionTested,NativeLanuage,Date,ResponseDevice
1,3,2,0,1,7,7,1,1027,487,540,153,0,500,200,8000,"[(960, 540), (960, 540), (960, 540), (960, 540), (960, 540), (960, 540), (960, 540), (960, 540), (960, 540), (960, 540), (960, 540), (960, 540), (960, 540), (960, 540), (960, 540), (960, 540), (960, 540), (960, 540), (960, 540), (960, 540), (960, 540), (960, 540), (960, 540), (960, 540), (960, 540), (960, 540), (960, 540), (960, 540), (960, 540), (960, 540), (960, 540), (960, 540), (960, 540), (960, 540), (960, 540), (960, 540), (960, 540), (960, 540), (960, 540), (960, 540), (960, 540), (960, 540), (960, 540), (960, 540), (960, 540), (960, 540), (960, 540), (960, 540), (960, 542), (959, 543), (956, 547), (955, 548), (954, 550), (954, 551), (952, 554), (952, 554), (952, 554), (952, 554), (952, 554), (952, 554), (952, 554), (952, 554), (952, 554), (952, 554), (952, 554), (952, 554), (952, 553), (952, 550), (952, 550), (952, 548), (952, 547), (951, 546), (951, 545), (951, 543), (949, 540), (949, 537), (949, 534), (948, 528), (947, 521), (945, 518), (944, 515), (944, 511), (940, 489), (938, 471), (934, 450), (931, 429), (918, 386), (914, 370), (910, 359), (909, 348), (905, 327), (902, 314), (899, 302), (896, 291), (889, 263), (884, 248), (881, 236), (877, 225), (871, 200), (867, 186), (861, 171), (861, 160), (858, 141)]",255.66007149865777,"[8, 2, 4, 6, 3, 5, 7, 9, 1]","(0, 0.25)",DOT009B,DOT,B,English,Wed Aug 29 13:11:08 2018,Mouse
1,3,2,0,2,1,1,1,590,70,520,153,0,500,200,8000,"[(960, 540), (960, 540), (960, 540), (960, 540), (960, 540), (960, 540), (960, 542), (960, 542), (961, 542), (963, 542), (967, 542), (972, 544), (976, 544), (979, 545), (986, 546), (988, 546), (991, 546), (992, 546), (996, 547), (997, 548), (998, 548), (1000, 548), (1009, 548), (1016, 548), (1023, 548), (1031, 548), (1047, 548), (1056, 548), (1063, 548), (1071, 546), (1088, 538), (1100, 532), (1115, 524), (1133, 515), (1170, 498), (1191, 494), (1213, 488), (1233, 482), (1274, 474), (1286, 469), (1300, 465), (1309, 464), (1323, 460), (1328, 459), (1332, 458), (1333, 457), (1336, 455), (1338, 455), (1339, 454), (1339, 454), (1341, 454), (1343, 452), (1344, 452), (1345, 451), (1347, 450), (1349, 448), (1349, 448), (1349, 448), (1350, 447)]",346.5876423581316,"[8, 2, 4, 6, 3, 5, 7, 9, 1]","(0, 0.25)",DOT009B,DOT,B,English,Wed Aug 29 13:11:08 2018,Mouse
1,3,2,0,3,3,3,1,1198,399,799,152,0,500,200,8000,"[(960, 540), (960, 540), (960, 540), (960, 540), (960, 540), (960, 540), (960, 540), (960, 540), (960, 540), (960, 540), (960, 540), (960, 540), (960, 540), (960, 540), (960, 540), (960, 540), (960, 540), (960, 540), (960, 540), (960, 540), (960, 540), (960, 540), (960, 540), (960, 540), (960, 540), (960, 540), (960, 540), (960, 540), (960, 540), (960, 540), (960, 540), (960, 540), (960, 540), (960, 540), (960, 540), (960, 540), (960, 540), (960, 540), (960, 540), (960, 543), (960, 544), (960, 549), (960, 550), (960, 554), (960, 554), (960, 556), (961, 557), (961, 557), (961, 558), (961, 558), (961, 558), (961, 558), (961, 558), (961, 558), (961, 558), (961, 558), (961, 558), (961, 558), (961, 558), (961, 557), (961, 555), (961, 554), (961, 552), (961, 551), (961, 551), (961, 551), (961, 550), (961, 550), (961, 550), (961, 550), (961, 550), (961, 550), (961, 550), (961, 550), (961, 550), (961, 550), (961, 549), (959, 547), (947, 541), (940, 540), (933, 537), (928, 535), (918, 530), (912, 527), (909, 527), (907, 526), (903, 524), (903, 523), (902, 523), (902, 523), (902, 523), (902, 523), (902, 523), (902, 523), (901, 523), (901, 523), (901, 523), (901, 523), (896, 523), (891, 523), (884, 523), (877, 523), (862, 523), (854, 523), (843, 525), (831, 525), (796, 527), (779, 529), (756, 529), (734, 529), (689, 529), (672, 529), (655, 529), (641, 529), (616, 532), (606, 533), (596, 534), (587, 536), (567, 540), (553, 542)]",179.7184505241398,"[8, 2, 4, 6, 3, 5, 7, 9, 1]","(0, 0.25)",DOT009B,DOT,B,English,Wed Aug 29 13:11:08 2018,Mouse
1,3,2,0,4,7,7,1,870,540,330,151,0,500,200,8000,"[(960, 540), (960, 540), (960, 540), (960, 540), (960, 540), (960, 540), (960, 540), (960, 540), (960, 540), (960, 540), (960, 540), (960, 540), (960, 540), (960, 540), (960, 540), (960, 540), (960, 540), (960, 540), (960, 540), (960, 540), (960, 540), (960, 540), (960, 540), (960, 540), (960, 540), (960, 540), (960, 540), (960, 540), (960, 540), (960, 540), (960, 540), (960, 540), (960, 540), (960, 540), (960, 540), (960, 540), (960, 540), (960, 540), (960, 540), (960, 540), (960, 540), (960, 540), (960, 540), (960, 540), (960, 540), (960, 540), (960, 540), (960, 540), (960, 540), (960, 540), (960, 540), (960, 540), (960, 540), (960, 536), (960, 533), (960, 527), (960, 519), (960, 510), (960, 508), (960, 506), (960, 505), (960, 505), (960, 505), (960, 503), (960, 503), (960, 502), (960, 498), (960, 494), (960, 486), (960, 470), (960, 460), (958, 452), (957, 441), (956, 413), (951, 389), (948, 355), (941, 322), (933, 266), (930, 245), (925, 231), (918, 210), (911, 183), (908, 174), (906, 164), (902, 157), (901, 147), (901, 144)]",261.5258437622829,"[8, 2, 4, 6, 3, 5, 7, 9, 1]","(0, 0.25)",DOT009B,DOT,B,English,Wed Aug 29 13:11:08 2018,Mouse
1,3,2,0,5,2,2,1,540,220,320,150,0,500,200,8000,"[(960, 540), (960, 540), (960, 540), (960, 540), (960, 540), (960, 540), (960, 540), (960, 540), (960, 540), (960, 540), (960, 540), (960, 540), (960, 540), (960, 540), (960, 540), (960, 540), (960, 540), (960, 540), (960, 540), (960, 540), (960, 540), (960, 542), (960, 543), (960, 546), (961, 551), (974, 567), (979, 575), (987, 585), (997, 595), (1019, 619), (1033, 635), (1046, 648), (1058, 663), (1077, 685), (1085, 695), (1092, 706), (1100, 716), (1107, 734), (1112, 746), (1116, 756), (1119, 765), (1123, 779), (1125, 784), (1127, 790), (1127, 796), (1133, 812), (1135, 822), (1138, 830), (1140, 840), (1146, 857), (1149, 867), (1150, 877), (1153, 887), (1159, 902)]",61.201359354630895,"[8, 2, 4, 6, 3, 5, 7, 9, 1]","(0, 0.25)",DOT009B,DOT,B,English,Wed Aug 29 13:11:08 2018,Mouse
1,3,2,0,6,3,3,1,791,461,330,149,0,500,200,8000,"[(960, 540), (960, 540), (960, 540), (960, 540), (960, 540), (960, 540), (960, 540), (960, 540), (960, 540), (960, 540), (960, 540), (960, 540), (960, 540), (960, 540), (960, 540), (960, 540), (960, 540), (960, 540), (960, 540), (960, 540), (960, 540), (960, 540), (960, 540), (960, 540), (960, 540), (960, 540), (960, 540), (960, 540), (960, 540), (960, 540), (960, 540), (960, 540), (960, 540), (960, 540), (960, 540), (960, 540), (960, 540), (960, 540), (960, 540), (960, 540), (960, 540), (960, 540), (960, 540), (960, 540), (960, 540), (960, 540), (959, 540), (957, 540), (956, 540), (954, 540), (953, 539), (945, 536), (940, 532), (935, 529), (929, 526), (917, 520), (911, 518), (905, 515), (900, 514), (886, 510), (880, 509), (872, 507), (865, 506), (848, 504), (837, 501), (827, 500), (815, 499), (792, 496), (776, 493), (752, 489), (729, 487), (685, 485), (663, 485), (646, 485), (629, 485), (600, 485), (589, 485), (580, 485), (571, 485), (556, 485)]",187.75250816388407,"[8, 2, 4, 6, 3, 5, 7, 9, 1]","(0, 0.25)",DOT009B,DOT,B,English,Wed Aug 29 13:11:08 2018,Mouse
1,3,2,0,7,4,4,1,861,521,340,148,0,500,200,8000,"[(960, 540), (960, 540), (960, 540), (960, 540), (960, 540), (960, 540), (960, 540), (960, 540), (960, 540), (960, 540), (960, 540), (960, 540), (960, 540), (960, 540), (960, 540), (960, 540), (960, 540), (960, 540), (960, 540), (960, 540), (960, 540), (960, 540), (960, 540), (960, 540), (960, 540), (960, 540), (960, 540), (960, 540), (960, 540), (960, 540), (960, 540), (960, 540), (960, 540), (960, 540), (960, 540), (960, 540), (960, 540), (960, 540), (960, 540), (960, 540), (960, 540), (960, 540), (960, 540), (960, 540), (960, 540), (960, 540), (960, 540), (960, 540), (960, 540), (960, 540), (960, 540), (960, 540), (960, 542), (960, 544), (960, 547), (960, 555), (956, 566), (956, 576), (954, 591), (948, 618), (947, 630), (944, 645), (943, 655), (941, 674), (938, 684), (937, 694), (936, 705), (931, 736), (928, 754), (926, 768), (924, 785), (924, 808), (924, 817), (924, 826), (924, 832), (924, 840), (924, 844), (924, 846), (924, 848), (924, 852), (922, 857), (922, 860), (921, 865), (919, 887), (915, 905), (912, 923), (910, 939)]",97.14268932166429,"[8, 2, 4, 6, 3, 5, 7, 9, 1]","(0, 0.25)",DOT009B,DOT,B,English,Wed Aug 29 13:11:08 2018,Mouse
1,3,2,0,8,8,8,1,841,361,480,147,0,500,200,8000,"[(960, 540), (960, 540), (960, 540), (960, 540), (960, 540), (960, 540), (960, 540), (960, 540), (960, 540), (960, 540), (960, 540), (960, 540), (960, 540), (960, 540), (960, 540), (960, 540), (960, 540), (960, 540), (960, 540), (960, 540), (960, 540), (960, 540), (960, 540), (960, 540), (960, 540), (960, 540), (960, 540), (960, 540), (960, 540), (960, 540), (960, 540), (960, 540), (960, 540), (960, 540), (960, 540), (960, 540), (959, 540), (959, 540), (959, 540), (960, 540), (962, 541), (963, 541), (963, 541), (965, 541), (966, 541), (967, 541), (967, 541), (968, 541), (968, 541), (968, 541), (969, 541), (970, 541), (971, 542), (973, 543), (976, 544), (978, 544), (985, 548), (994, 551), (1001, 554), (1011, 559), (1034, 569), (1046, 575), (1063, 582), (1076, 588), (1105, 600), (1121, 607), (1141, 616), (1154, 621), (1186, 634), (1196, 638), (1206, 643), (1215, 645), (1231, 653), (1236, 654), (1242, 655), (1248, 658), (1261, 663), (1270, 667), (1278, 671), (1286, 674), (1303, 681), (1310, 685), (1317, 687), (1325, 691), (1337, 696)]",22.479434397103113,"[8, 2, 4, 6, 3, 5, 7, 9, 1]","(0, 0.25)",DOT009B,DOT,B,English,Wed Aug 29 13:11:08 2018,Mouse
1,3,2,0,9,4,4,1,949,829,120,146,0,500,200,8000,"[(960, 540), (960, 540), (960, 540), (960, 540), (960, 540), (960, 540), (960, 540), (960, 540), (960, 540), (960, 540), (960, 540), (960, 540), (960, 540), (960, 540), (960, 540), (960, 540), (960, 540), (960, 540), (960, 540), (960, 540), (960, 540), (960, 540), (960, 540), (960, 540), (960, 540), (960, 540), (960, 540), (960, 540), (960, 540), (960, 540), (960, 540), (960, 540), (960, 540), (960, 540), (960, 540), (960, 540), (960, 540), (960, 540), (960, 540), (960, 540), (960, 540), (960, 540), (960, 540), (960, 540), (960, 540), (960, 540), (960, 540), (960, 540), (960, 540), (960, 540), (960, 540), (960, 540), (960, 540), (960, 540), (960, 540), (960, 540), (960, 540), (960, 540), (960, 540), (960, 540), (960, 540), (960, 540), (960, 540), (960, 540), (960, 540), (960, 540), (960, 540), (960, 540), (960, 540), (960, 540), (960, 540), (960, 540), (960, 540), (960, 540), (960, 540), (960, 540), (960, 540), (960, 540), (960, 540), (960, 540), (960, 540), (960, 540), (958, 541), (956, 544), (950, 553), (944, 561), (928, 592), (917, 616), (903, 650), (886, 703), (859, 794), (852, 827), (850, 856), (850, 878), (849, 926)]",106.04337080459571,"[8, 2, 4, 6, 3, 5, 7, 9, 1]","(0, 0.25)",DOT009B,DOT,B,English,Wed Aug 29 13:11:08 2018,Mouse
1,3,2,0,10,1,1,1,560,280,280,145,0,500,200,8000,"[(960, 540), (960, 540), (960, 540), (960, 540), (960, 540), (960, 540), (960, 540), (960, 540), (960, 540), (960, 540), (960, 540), (960, 540), (960, 540), (960, 540), (960, 540), (960, 540), (960, 540), (960, 540), (960, 540), (960, 540), (960, 540), (960, 540), (960, 540), (960, 540), (960, 540), (960, 540), (960, 540), (960, 539), (960, 538), (962, 537), (965, 536), (968, 535), (971, 533), (975, 532), (981, 529), (988, 528), (993, 526), (999, 524), (1013, 523), (1020, 521), (1028, 519), (1037, 517), (1059, 514), (1071, 512), (1087, 510), (1106, 506), (1138, 497), (1160, 490), (1180, 484), (1200, 477), (1246, 460), (1263, 454), (1285, 443), (1305, 434), (1336, 422), (1347, 416)]",342.23384313004664,"[8, 2, 4, 6, 3, 5, 7, 9, 1]","(0, 0.25)",DOT009B,DOT,B,English,Wed Aug 29 13:11:08 2018,Mouse
1,3,2,0,11,9,9,1,680,410,270,144,0,500,200,8000,"[(960, 540), (960, 540), (960, 540), (960, 540), (960, 540), (960, 540), (960, 540), (960, 540), (960, 540), (960, 540), (960, 540), (960, 540), (960, 540), (960, 540), (960, 540), (960, 540), (960, 540), (960, 540), (960, 540), (960, 540), (960, 540), (960, 540), (960, 540), (960, 540), (960, 540), (960, 540), (960, 540), (960, 540), (960, 540), (960, 540), (960, 540), (960, 540), (960, 540), (960, 540), (960, 540), (960, 540), (960, 540), (960, 540), (960, 540), (960, 540), (964, 540), (968, 532), (970, 525), (976, 512), (982, 497), (1003, 448), (1014, 422), (1030, 394), (1045, 367), (1065, 332), (1072, 319), (1079, 307), (1084, 299), (1097, 276), (1106, 261), (1111, 249), (1118, 239), (1126, 221), (1129, 213), (1131, 209), (1133, 206), (1135, 201), (1137, 198), (1139, 194), (1141, 192), (1144, 188), (1145, 187), (1146, 184)]",297.5858033846913,"[8, 2, 4, 6, 3, 5, 7, 9, 1]","(0, 0.25)",DOT009B,DOT,B,English,Wed Aug 29 13:11:08 2018,Mouse
1,3,2,0,12,9,9,1,530,250,280,143,0,500,200,8000,"[(960, 540), (960, 540), (960, 540), (960, 540), (960, 540), (960, 540), (960, 540), (960, 540), (960, 540), (960, 540), (960, 540), (960, 540), (960, 540), (960, 540), (960, 540), (960, 540), (960, 540), (960, 540), (960, 540), (960, 540), (960, 540), (960, 540), (960, 540), (960, 540), (961, 540), (962, 540), (963, 539), (965, 535), (970, 526), (972, 519), (977, 510), (982, 497), (995, 468), (1004, 451), (1014, 435), (1024, 416), (1039, 393), (1047, 382), (1054, 369), (1059, 359), (1074, 338), (1079, 331), (1085, 325), (1090, 317), (1101, 302), (1106, 295), (1112, 286), (1117, 276), (1128, 250), (1136, 234), (1141, 221), (1149, 205), (1165, 178)]",299.5228057442488,"[8, 2, 4, 6, 3, 5, 7, 9, 1]","(0, 0.25)",DOT009B,DOT,B,English,Wed Aug 29 13:11:08 2018,Mouse
1,3,2,0,13,2,2,1,470,210,260,142,0,500,200,8000,"[(960, 540), (960, 540), (960, 540), (960, 540), (960, 540), (960, 540), (960, 540), (960, 540), (960, 540), (960, 540), (960, 540), (960, 540), (960, 540), (960, 540), (960, 540), (960, 540), (960, 540), (960, 540), (960, 540), (960, 540), (959, 540), (958, 541), (958, 544), (958, 546), (958, 548), (958, 549), (958, 553), (958, 554), (958, 557), (961, 561), (968, 573), (972, 583), (980, 596), (991, 615), (1017, 661), (1032, 688), (1049, 716), (1065, 745), (1100, 793), (1108, 809), (1120, 824), (1129, 838), (1144, 859), (1147, 866), (1151, 875), (1156, 885), (1165, 907)]",60.813012172747946,"[8, 2, 4, 6, 3, 5, 7, 9, 1]","(0, 0.25)",DOT009B,DOT,B,English,Wed Aug 29 13:11:08 2018,Mouse
1,3,2,0,14,2,2,1,451,131,320,141,0,500,200,8000,"[(960, 540), (960, 540), (960, 540), (960, 540), (960, 540), (960, 540), (960, 540), (960, 540), (960, 540), (960, 540), (960, 540), (960, 540), (960, 540), (959, 540), (959, 540), (959, 541), (959, 541), (958, 544), (958, 545), (958, 550), (958, 552), (958, 555), (958, 557), (959, 562), (960, 564), (964, 568), (965, 572), (972, 580), (975, 585), (979, 590), (985, 597), (999, 618), (1010, 630), (1023, 647), (1039, 670), (1080, 719), (1100, 745), (1116, 765), (1129, 782), (1147, 808), (1157, 822), (1163, 833), (1170, 843), (1177, 863), (1181, 870), (1181, 876)]",56.66555688347815,"[8, 2, 4, 6, 3, 5, 7, 9, 1]","(0, 0.25)",DOT009B,DOT,B,English,Wed Aug 29 13:11:08 2018,Mouse
1,3,2,0,15,3,3,1,731,421,310,140,0,500,200,8000,"[(960, 540), (960, 540), (960, 540), (960, 540), (960, 540), (960, 540), (960, 540), (960, 540), (960, 540), (960, 540), (960, 540), (960, 540), (960, 540), (960, 540), (960, 540), (960, 540), (960, 540), (960, 540), (960, 540), (960, 540), (960, 540), (960, 540), (960, 540), (960, 540), (960, 540), (960, 540), (960, 540), (960, 540), (960, 540), (960, 540), (960, 540), (960, 540), (960, 540), (960, 540), (960, 540), (960, 540), (960, 540), (960, 540), (960, 540), (960, 540), (960, 540), (960, 540), (959, 540), (957, 540), (957, 540), (956, 540), (953, 540), (952, 540), (948, 540), (941, 540), (933, 537), (926, 537), (915, 534), (893, 531), (875, 528), (861, 525), (848, 521), (820, 513), (809, 511), (795, 509), (782, 507), (753, 504), (739, 502), (724, 501), (711, 501), (685, 501), (673, 501), (663, 501), (654, 501), (635, 506), (625, 511), (607, 517), (582, 523), (556, 532)]",181.134421630977,"[8, 2, 4, 6, 3, 5, 7, 9, 1]","(0, 0.25)",DOT009B,DOT,B,English,Wed Aug 29 13:11:08 2018,Mouse
1,3,2,0,16,6,6,1,869,529,340,139,0,500,200,8000,"[(960, 540), (960, 540), (960, 540), (960, 540), (960, 540), (960, 540), (960, 540), (960, 540), (960, 540), (960, 540), (960, 540), (960, 540), (960, 540), (960, 540), (960, 540), (960, 540), (960, 540), (960, 540), (960, 540), (960, 540), (960, 540), (960, 540), (960, 540), (960, 540), (960, 540), (960, 540), (960, 540), (960, 540), (960, 540), (960, 540), (960, 540), (960, 540), (960, 540), (960, 540), (960, 540), (960, 540), (960, 540), (960, 540), (960, 540), (960, 540), (960, 540), (960, 540), (960, 540), (960, 540), (960, 540), (960, 540), (960, 540), (960, 540), (960, 540), (960, 540), (960, 540), (960, 540), (961, 541), (961, 543), (957, 546), (952, 550), (951, 551), (946, 556), (937, 567), (931, 573), (926, 581), (918, 590), (904, 605), (886, 620), (861, 637), (845, 646), (821, 667), (808, 678), (798, 686), (786, 696), (768, 712), (761, 719), (753, 725), (750, 732), (744, 739), (742, 741), (739, 745), (735, 748), (724, 759), (714, 769), (705, 777), (697, 783), (681, 798), (676, 802), (672, 807), (670, 810), (667, 813)]",137.02374383923419,"[8, 2, 4, 6, 3, 5, 7, 9, 1]","(0, 0.25)",DOT009B,DOT,B,English,Wed Aug 29 13:11:08 2018,Mouse
1,3,2,0,17,1,1,1,579,149,430,138,0,500,200,8000,"[(960, 540), (960, 540), (960, 540), (960, 540), (960, 540), (960, 540), (960, 540), (960, 540), (960, 540), (960, 540), (960, 540), (960, 540), (960, 540), (960, 540), (962, 539), (963, 538), (966, 537), (970, 536), (980, 535), (984, 535), (991, 535), (999, 535), (1015, 535), (1024, 535), (1034, 535), (1046, 535), (1066, 533), (1076, 530), (1086, 526), (1095, 525), (1110, 521), (1116, 520), (1123, 518), (1132, 515), (1141, 514), (1147, 511), (1156, 509), (1166, 505), (1182, 499), (1192, 493), (1202, 488), (1212, 482), (1232, 471), (1241, 466), (1245, 464), (1254, 459), (1266, 455), (1274, 453), (1283, 452), (1290, 450), (1304, 446), (1311, 444), (1317, 442), (1323, 439), (1334, 435), (1340, 433), (1343, 431), (1347, 430)]",344.1328502498372,"[8, 2, 4, 6, 3, 5, 7, 9, 1]","(0, 0.25)",DOT009B,DOT,B,English,Wed Aug 29 13:11:08 2018,Mouse
1,3,2,0,18,4,5,0,-981,581,400,137,0,500,200,8000,"[(960, 540), (960, 540), (960, 540), (960, 540), (960, 540), (960, 540), (960, 540), (960, 540), (960, 540), (960, 540), (960, 540), (960, 540), (960, 540), (960, 540), (960, 540), (960, 540), (960, 540), (960, 540), (960, 540), (960, 540), (960, 540), (960, 540), (960, 540), (960, 540), (960, 540), (960, 540), (960, 540), (960, 540), (960, 540), (960, 540), (960, 540), (960, 540), (960, 540), (960, 540), (960, 540), (960, 540), (960, 540), (960, 540), (960, 540), (960, 540), (960, 540), (960, 540), (960, 540), (960, 540), (960, 540), (960, 540), (960, 540), (960, 540), (960, 540), (960, 540), (960, 540), (960, 540), (960, 540), (960, 540), (960, 540), (960, 540), (960, 540), (960, 540), (959, 540), (959, 540), (957, 540), (956, 540), (955, 540), (953, 539), (950, 538), (948, 537), (945, 537), (942, 536), (938, 534), (935, 533), (928, 530), (924, 528), (911, 523), (904, 519), (898, 515), (890, 511), (875, 503), (867, 499), (859, 493), (850, 489), (832, 477), (825, 471), (816, 465), (808, 458), (792, 441), (784, 434), (777, 423), (770, 413), (754, 392), (746, 378), (739, 368), (731, 355), (715, 331), (708, 319), (701, 306), (691, 294), (679, 274), (672, 263), (666, 251)]",224.508624572829,"[8, 2, 4, 6, 3, 5, 7, 9, 1]","(0, 0.25)",DOT009B,DOT,B,English,Wed Aug 29 13:11:08 2018,Mouse
1,3,2,0,19,6,6,1,1110,230,880,138,0,500,200,8000,"[(960, 540), (960, 540), (960, 540), (960, 540), (960, 540), (960, 540), (960, 540), (960, 540), (960, 540), (960, 540), (960, 540), (960, 540), (960, 540), (960, 540), (960, 540), (960, 540), (960, 540), (960, 540), (960, 540), (960, 540), (960, 540), (960, 540), (960, 542), (960, 546), (960, 556), (956, 564), (954, 573), (950, 582), (944, 596), (940, 605), (937, 611), (929, 621), (917, 638), (910, 646), (901, 658), (893, 669), (875, 687), (866, 696), (855, 705), (848, 710), (834, 723), (826, 730), (819, 736), (810, 744), (797, 759), (790, 767), (783, 774), (777, 781), (768, 790), (763, 795), (760, 799), (755, 804), (741, 815), (734, 820), (729, 823), (724, 827), (719, 831), (718, 832), (717, 833), (716, 834), (715, 835), (715, 836), (714, 836), (713, 837), (712, 838), (712, 838), (712, 838), (711, 839), (711, 839), (710, 840), (710, 840), (710, 840), (709, 841), (709, 841), (708, 841), (708, 841), (706, 843), (706, 844), (706, 844), (706, 844), (705, 845), (705, 845), (703, 845), (703, 845), (703, 845), (703, 845), (703, 845), (703, 845), (703, 845), (703, 845), (703, 845), (703, 845), (703, 845), (703, 845), (703, 845), (703, 845), (703, 845), (703, 845), (703, 845), (703, 845), (703, 845), (703, 845), (703, 845), (703, 845), (703, 845), (703, 845), (703, 845), (703, 845), (703, 845), (703, 845), (700, 846)]",130.35366450880412,"[8, 2, 4, 6, 3, 5, 7, 9, 1]","(0, 0.25)",DOT009B,DOT,B,English,Wed Aug 29 13:11:08 2018,Mouse
1,3,2,0,20,8,6,0,-1381,210,1171,138,0,500,200,8000,"[(960, 540), (960, 540), (960, 540), (960, 540), (960, 540), (960, 540), (960, 540), (960, 540), (960, 540), (960, 540), (960, 540), (960, 540), (960, 540), (960, 540), (960, 540), (960, 540), (960, 540), (960, 540), (960, 540), (960, 540), (960, 539), (960, 539), (960, 539), (960, 537), (960, 536), (960, 536), (960, 536), (960, 534), (960, 534), (960, 533), (960, 533), (960, 533), (960, 531), (960, 531), (960, 531), (961, 530), (961, 530), (961, 530), (961, 530), (961, 530), (961, 530), (961, 528), (961, 528), (962, 527), (963, 520), (965, 517), (966, 511), (968, 508), (969, 502), (970, 501), (970, 499), (970, 498), (971, 496), (971, 495), (972, 493), (974, 491), (978, 483), (979, 481), (983, 475), (986, 469), (993, 458), (996, 452), (999, 448), (999, 446), (1002, 443), (1002, 443), (1002, 443), (1002, 443), (1002, 443), (1002, 443), (1002, 443), (1002, 443), (1002, 443), (1002, 443), (1002, 443), (1002, 443), (1002, 444), (1002, 446), (1001, 448), (1001, 450), (1000, 457), (998, 458), (998, 461), (997, 465), (997, 475), (997, 482), (997, 489), (997, 493), (997, 501), (997, 505), (997, 506), (997, 507), (997, 508), (997, 509), (997, 509), (997, 510), (997, 511), (997, 512), (997, 513), (997, 513), (997, 515), (997, 515), (997, 515), (997, 515), (995, 516), (995, 516), (994, 518), (991, 519), (985, 523), (976, 527), (966, 532), (947, 543), (938, 549), (929, 554), (922, 559), (911, 565), (883, 585), (866, 600), (847, 617), (829, 635), (790, 669), (781, 678), (768, 693), (758, 705), (738, 727), (729, 739), (720, 749), (709, 762), (692, 781), (685, 790), (680, 796), (673, 804), (670, 811), (669, 812), (669, 813), (669, 813), (669, 814), (669, 815)]",136.6192374538742,"[8, 2, 4, 6, 3, 5, 7, 9, 1]","(0, 0.25)",DOT009B,DOT,B,English,Wed Aug 29 13:11:08 2018,Mouse
1,3,2,0,21,9,9,1,430,100,330,139,0,500,200,8000,"[(960, 540), (960, 540), (960, 540), (960, 540), (960, 540), (960, 540), (960, 540), (960, 540), (960, 540), (961, 540), (961, 540), (963, 540), (964, 540), (965, 538), (966, 537), (969, 533), (970, 532), (978, 520), (983, 512), (989, 502), (994, 493), (1005, 475), (1013, 463), (1020, 450), (1030, 431), (1054, 390), (1070, 368), (1085, 343), (1102, 316), (1135, 261), (1145, 242), (1151, 232), (1155, 223), (1159, 214), (1160, 211), (1161, 209), (1163, 206), (1163, 205), (1164, 202), (1164, 202), (1165, 201), (1167, 198), (1167, 196)]",301.0371812413624,"[8, 2, 4, 6, 3, 5, 7, 9, 1]","(0, 0.25)",DOT009B,DOT,B,English,Wed Aug 29 13:11:08 2018,Mouse
1,3,2,0,22,5,5,1,1200,390,810,139,0,500,200,8000,"[(960, 540), (960, 540), (960, 540), (960, 540), (960, 540), (960, 540), (960, 540), (960, 540), (960, 540), (960, 540), (960, 540), (960, 540), (960, 540), (960, 540), (960, 540), (960, 540), (960, 540), (960, 540), (960, 540), (960, 540), (960, 540), (960, 540), (960, 540), (960, 540), (960, 540), (960, 540), (960, 540), (960, 540), (960, 540), (960, 540), (960, 540), (960, 540), (960, 540), (960, 540), (960, 540), (960, 540), (960, 540), (960, 540), (959, 541), (959, 542), (957, 544), (953, 548), (952, 549), (948, 553), (948, 553), (944, 556), (942, 557), (941, 557), (941, 557), (940, 558), (940, 558), (940, 558), (940, 558), (940, 558), (939, 558), (939, 558), (939, 558), (939, 558), (939, 558), (939, 558), (939, 558), (939, 558), (939, 558), (939, 558), (939, 558), (939, 558), (939, 558), (939, 558), (939, 558), (939, 558), (939, 558), (939, 558), (939, 558), (939, 558), (939, 558), (939, 558), (939, 558), (939, 558), (939, 558), (938, 558), (936, 558), (933, 555), (931, 553), (929, 551), (928, 550), (923, 546), (920, 546), (917, 543), (912, 541), (903, 534), (899, 533), (896, 529), (891, 524), (880, 513), (875, 506), (870, 499), (863, 490), (852, 475), (846, 466), (841, 459), (835, 449), (827, 434), (823, 424), (821, 415), (817, 405), (809, 380), (806, 369), (800, 358), (794, 343), (783, 326), (777, 315), (771, 308), (765, 300), (750, 285), (743, 276), (734, 267), (723, 258), (705, 243), (698, 238), (690, 231)]",228.85348045360206,"[8, 2, 4, 6, 3, 5, 7, 9, 1]","(0, 0.25)",DOT009B,DOT,B,English,Wed Aug 29 13:11:08 2018,Mouse
1,3,2,0,23,5,5,1,710,380,330,138,0,500,200,8000,"[(960, 540), (960, 540), (960, 540), (960, 540), (960, 540), (960, 540), (960, 540), (960, 540), (960, 540), (960, 540), (960, 540), (960, 540), (960, 540), (960, 540), (960, 540), (960, 540), (960, 540), (960, 540), (960, 540), (960, 540), (960, 540), (960, 540), (960, 540), (960, 540), (960, 540), (960, 540), (960, 540), (960, 540), (960, 540), (960, 540), (960, 540), (960, 540), (960, 540), (960, 540), (960, 540), (960, 540), (960, 540), (961, 540), (957, 537), (948, 530), (936, 516), (927, 507), (921, 499), (914, 492), (903, 476), (897, 468), (893, 463), (889, 457), (885, 450), (881, 445), (879, 443), (878, 440), (872, 432), (870, 429), (865, 423), (860, 416), (849, 406), (840, 398), (832, 393), (823, 386), (807, 376), (798, 371), (788, 364), (778, 359), (758, 347), (746, 341), (733, 333), (717, 322), (683, 308), (665, 299), (646, 289)]",218.63754882260972,"[8, 2, 4, 6, 3, 5, 7, 9, 1]","(0, 0.25)",DOT009B,DOT,B,English,Wed Aug 29 13:11:08 2018,Mouse
1,3,2,0,24,8,8,1,850,330,520,137,0,500,200,8000,"[(960, 540), (960, 540), (960, 540), (960, 540), (960, 540), (960, 540), (960, 540), (960, 540), (960, 540), (960, 540), (960, 540), (960, 540), (960, 540), (960, 540), (960, 540), (960, 540), (960, 540), (960, 540), (960, 540), (960, 540), (960, 540), (960, 540), (960, 540), (960, 540), (960, 540), (960, 540), (960, 540), (960, 540), (960, 540), (960, 540), (960, 540), (960, 540), (959, 540), (959, 540), (959, 540), (958, 540), (958, 542), (958, 544), (958, 544), (959, 546), (970, 553), (977, 558), (983, 562), (992, 566), (1003, 572), (1009, 576), (1015, 579), (1021, 582), (1028, 585), (1030, 586), (1035, 588), (1040, 590), (1055, 595), (1062, 597), (1070, 600), (1077, 602), (1092, 606), (1098, 608), (1105, 612), (1110, 615), (1122, 618), (1130, 622), (1137, 624), (1147, 627), (1166, 632), (1178, 637), (1188, 639), (1202, 643), (1223, 649), (1236, 654), (1247, 657), (1258, 662), (1277, 668), (1284, 671), (1292, 674), (1297, 676), (1307, 681), (1311, 682), (1314, 683), (1319, 686), (1324, 687), (1327, 687), (1328, 689), (1330, 689), (1335, 689)]",21.66957405515778,"[8, 2, 4, 6, 3, 5, 7, 9, 1]","(0, 0.25)",DOT009B,DOT,B,English,Wed Aug 29 13:11:08 2018,Mouse
1,3,2,0,25,1,1,1,638,268,370,136,0,500,200,8000,"[(960, 540), (960, 540), (960, 540), (960, 540), (960, 540), (960, 540), (960, 540), (960, 540), (960, 540), (960, 540), (960, 540), (960, 540), (960, 540), (960, 540), (960, 540), (960, 540), (960, 540), (960, 540), (960, 540), (960, 540), (960, 540), (960, 540), (960, 540), (960, 540), (960, 540), (960, 540), (966, 540), (975, 534), (988, 528), (1000, 523), (1030, 514), (1048, 508), (1063, 503), (1077, 499), (1110, 485), (1122, 480), (1135, 477), (1146, 472), (1168, 465), (1175, 460), (1182, 457), (1188, 454), (1196, 449), (1201, 447), (1205, 446), (1210, 444), (1219, 441), (1225, 438), (1232, 436), (1241, 432), (1257, 422), (1266, 417), (1275, 414), (1281, 411), (1295, 404), (1300, 401), (1305, 400), (1309, 398), (1319, 393), (1321, 392), (1322, 392), (1326, 391), (1330, 389), (1334, 388)]",337.8823336730125,"[8, 2, 4, 6, 3, 5, 7, 9, 1]","(0, 0.25)",DOT009B,DOT,B,English,Wed Aug 29 13:11:08 2018,Mouse
1,3,2,0,26,3,3,1,850,321,529,135,0,500,200,8000,"[(960, 540), (960, 540), (960, 540), (960, 540), (960, 540), (960, 540), (960, 540), (960, 540), (960, 540), (960, 540), (960, 540), (960, 540), (960, 540), (960, 540), (960, 540), (960, 540), (960, 540), (960, 540), (960, 540), (960, 540), (960, 540), (960, 540), (960, 540), (960, 540), (960, 540), (960, 540), (960, 540), (960, 540), (960, 540), (960, 540), (960, 540), (960, 540), (959, 540), (959, 541), (958, 541), (958, 541), (958, 542), (958, 542), (958, 542), (957, 543), (957, 543), (956, 544), (956, 544), (956, 544), (956, 544), (956, 544), (956, 544), (956, 544), (956, 544), (955, 544), (953, 544), (952, 545), (949, 545), (940, 545), (936, 545), (931, 545), (922, 545), (907, 545), (898, 545), (890, 545), (880, 545), (864, 545), (857, 545), (848, 545), (839, 545), (820, 547), (810, 549), (800, 550), (788, 553), (766, 554), (752, 555), (740, 556), (723, 558), (698, 560), (683, 560), (671, 560), (659, 560), (632, 560), (617, 560), (605, 560), (594, 560), (576, 560), (568, 560), (563, 560), (560, 560)]",177.13759477388825,"[8, 2, 4, 6, 3, 5, 7, 9, 1]","(0, 0.25)",DOT009B,DOT,B,English,Wed Aug 29 13:11:08 2018,Mouse
1,3,2,0,27,9,9,1,688,218,470,134,0,500,200,8000,"[(960, 540), (960, 540), (960, 540), (960, 540), (960, 540), (960, 540), (960, 540), (960, 540), (960, 540), (960, 540), (960, 540), (960, 540), (960, 540), (960, 540), (960, 540), (960, 540), (960, 540), (960, 540), (960, 540), (960, 540), (960, 540), (960, 539), (961, 538), (967, 532), (970, 527), (973, 524), (976, 516), (990, 492), (1002, 477), (1011, 463), (1024, 445), (1043, 420), (1052, 408), (1062, 396), (1070, 384), (1088, 359), (1093, 350), (1102, 339), (1108, 329), (1118, 311), (1121, 305), (1124, 299), (1126, 293), (1130, 277), (1133, 270), (1134, 264), (1137, 256), (1140, 240), (1140, 235), (1141, 230), (1141, 226), (1141, 220), (1141, 218), (1141, 216), (1141, 214), (1141, 207), (1141, 204), (1141, 201), (1141, 199), (1141, 196), (1141, 195), (1141, 193), (1141, 193), (1142, 192), (1142, 190), (1143, 190), (1144, 189), (1144, 187), (1145, 184)]",297.45922708540985,"[8, 2, 4, 6, 3, 5, 7, 9, 1]","(0, 0.25)",DOT009B,DOT,B,English,Wed Aug 29 13:11:08 2018,Mouse
1,3,2,0,28,1,1,1,490,120,370,133,0,500,200,8000,"[(960, 540), (960, 540), (960, 540), (960, 540), (960, 540), (960, 540), (960, 540), (960, 540), (960, 540), (960, 540), (960, 540), (960, 543), (960, 547), (960, 554), (960, 557), (960, 559), (960, 561), (962, 562), (962, 564), (963, 566), (963, 566), (964, 567), (966, 568), (969, 568), (973, 568), (984, 568), (990, 568), (996, 568), (1006, 568), (1023, 564), (1035, 561), (1048, 557), (1064, 552), (1095, 538), (1112, 531), (1129, 526), (1148, 522), (1185, 509), (1199, 506), (1210, 505), (1226, 500), (1253, 491), (1267, 488), (1278, 485), (1291, 480), (1321, 473), (1332, 469), (1343, 466), (1355, 463)]",348.96928451402607,"[8, 2, 4, 6, 3, 5, 7, 9, 1]","(0, 0.25)",DOT009B,DOT,B,English,Wed Aug 29 13:11:08 2018,Mouse
1,3,2,0,29,4,5,0,-830,400,430,132,0,500,200,8000,"[(960, 540), (960, 540), (960, 540), (960, 540), (960, 540), (960, 540), (960, 540), (960, 540), (960, 540), (960, 540), (960, 540), (960, 540), (960, 540), (960, 540), (960, 540), (960, 540), (960, 540), (960, 540), (960, 540), (960, 540), (960, 540), (960, 540), (960, 540), (960, 540), (960, 540), (960, 540), (960, 540), (960, 540), (960, 540), (960, 540), (960, 540), (960, 540), (960, 540), (960, 540), (960, 540), (960, 540), (960, 540), (956, 541), (954, 541), (950, 542), (949, 542), (945, 542), (943, 542), (942, 542), (942, 542), (941, 542), (941, 542), (941, 542), (940, 542), (938, 542), (935, 542), (933, 542), (926, 536), (907, 523), (897, 512), (888, 506), (878, 496), (853, 478), (842, 470), (827, 463), (813, 454), (788, 440), (778, 434), (771, 430), (764, 426), (753, 419), (746, 415), (742, 410), (740, 406), (732, 396), (726, 390), (721, 384), (715, 377), (705, 366), (699, 359), (694, 352), (688, 345), (672, 327), (663, 315), (653, 305), (644, 294)]",217.90008035536835,"[8, 2, 4, 6, 3, 5, 7, 9, 1]","(0, 0.25)",DOT009B,DOT,B,English,Wed Aug 29 13:11:08 2018,Mouse
1,3,2,0,30,7,5,0,-531,191,340,133,0,500,200,8000,"[(960, 540), (960, 540), (960, 540), (960, 540), (960, 540), (960, 540), (960, 540), (960, 540), (960, 540), (960, 540), (960, 540), (960, 540), (960, 540), (960, 540), (960, 540), (960, 540), (960, 540), (960, 540), (960, 540), (958, 540), (955, 539), (954, 538), (954, 538), (954, 538), (954, 538), (953, 538), (951, 538), (951, 538), (947, 538), (944, 538), (943, 538), (940, 538), (934, 537), (931, 536), (927, 535), (916, 532), (896, 524), (886, 520), (875, 514), (863, 508), (844, 497), (836, 491), (829, 485), (819, 479), (802, 463), (795, 456), (786, 449), (778, 441), (763, 423), (750, 409), (731, 390), (708, 370), (655, 325), (627, 304)]",215.3255326111561,"[8, 2, 4, 6, 3, 5, 7, 9, 1]","(0, 0.25)",DOT009B,DOT,B,English,Wed Aug 29 13:11:08 2018,Mouse
1,3,2,0,31,6,4,0,-1260,830,430,134,0,500,200,8000,"[(960, 540), (960, 540), (960, 540), (960, 540), (960, 540), (960, 540), (960, 540), (960, 540), (960, 540), (960, 540), (960, 540), (960, 540), (960, 540), (960, 540), (960, 540), (960, 540), (960, 540), (960, 540), (960, 540), (960, 540), (960, 540), (960, 540), (960, 540), (960, 540), (960, 540), (960, 540), (960, 540), (960, 540), (960, 540), (960, 540), (960, 540), (960, 540), (960, 540), (960, 540), (960, 540), (960, 540), (960, 540), (960, 540), (960, 540), (960, 540), (960, 540), (960, 540), (960, 540), (960, 540), (960, 540), (960, 540), (960, 540), (960, 540), (960, 540), (960, 540), (960, 540), (960, 540), (960, 540), (960, 540), (960, 540), (960, 540), (960, 540), (960, 540), (960, 540), (960, 540), (960, 540), (960, 540), (960, 540), (960, 540), (960, 540), (960, 540), (960, 540), (960, 540), (960, 540), (960, 540), (960, 540), (960, 540), (960, 540), (960, 540), (960, 540), (960, 540), (960, 540), (960, 540), (960, 540), (960, 540), (960, 540), (960, 540), (960, 541), (960, 543), (960, 547), (960, 560), (960, 565), (960, 575), (958, 586), (954, 614), (953, 628), (949, 645), (947, 659), (941, 688), (937, 701), (936, 715), (935, 727), (932, 749), (930, 760), (929, 769), (928, 776), (926, 786), (926, 789), (926, 792), (925, 794), (924, 796), (923, 797), (923, 798), (922, 800), (920, 808), (917, 814), (917, 817), (915, 823), (910, 832), (908, 836), (907, 840), (905, 845), (900, 862), (898, 870), (893, 882), (889, 890), (881, 909), (878, 916), (874, 925), (873, 928), (871, 934)]",102.72881901637174,"[8, 2, 4, 6, 3, 5, 7, 9, 1]","(0, 0.25)",DOT009B,DOT,B,English,Wed Aug 29 13:11:08 2018,Mouse
1,3,2,0,32,4,4,1,1030,630,400,135,0,500,200,8000,"[(960, 540), (960, 540), (960, 540), (960, 540), (960, 540), (960, 540), (960, 540), (960, 540), (960, 540), (960, 540), (960, 540), (960, 540), (960, 540), (960, 540), (960, 540), (960, 540), (960, 540), (960, 540), (960, 540), (960, 540), (960, 540), (960, 540), (960, 540), (960, 540), (960, 540), (960, 540), (960, 540), (960, 540), (960, 540), (960, 540), (960, 540), (960, 540), (960, 540), (960, 540), (960, 540), (960, 540), (960, 540), (960, 540), (960, 540), (960, 540), (960, 540), (960, 540), (960, 540), (960, 540), (960, 540), (960, 540), (960, 540), (960, 540), (960, 540), (960, 540), (960, 540), (960, 540), (960, 540), (960, 540), (960, 540), (960, 540), (960, 540), (960, 540), (960, 540), (960, 540), (960, 540), (960, 540), (960, 541), (960, 541), (960, 542), (960, 545), (960, 557), (960, 571), (960, 583), (960, 596), (960, 628), (960, 641), (960, 656), (960, 665), (960, 686), (960, 697), (960, 711), (960, 724), (960, 751), (960, 765), (960, 777), (960, 787), (960, 800), (960, 805), (960, 808), (960, 811), (960, 817), (959, 821), (957, 827), (954, 836), (945, 855), (943, 863), (941, 868), (938, 874), (930, 891), (927, 901), (923, 911), (918, 920), (913, 930), (913, 931), (912, 933), (912, 933), (910, 937)]",97.17829821157697,"[8, 2, 4, 6, 3, 5, 7, 9, 1]","(0, 0.25)",DOT009B,DOT,B,English,Wed Aug 29 13:11:08 2018,Mouse
1,3,2,0,33,5,5,1,601,151,450,135,0,500,200,8000,"[(960, 540), (960, 540), (960, 540), (960, 540), (960, 540), (960, 540), (960, 540), (960, 540), (960, 540), (960, 540), (960, 540), (960, 540), (960, 540), (960, 540), (960, 540), (956, 540), (952, 540), (949, 538), (944, 536), (936, 533), (930, 530), (925, 528), (923, 527), (917, 523), (916, 522), (914, 520), (912, 519), (909, 517), (909, 515), (906, 513), (905, 510), (898, 503), (894, 498), (887, 489), (879, 479), (857, 456), (847, 444), (836, 435), (822, 422), (801, 404), (793, 397), (785, 391), (779, 384), (766, 375), (763, 372), (758, 368), (751, 363), (741, 353), (736, 348), (730, 343), (724, 338), (712, 324), (707, 319), (702, 314), (697, 309), (686, 300), (682, 296), (677, 291), (672, 286), (663, 275), (656, 267)]",221.92467392194794,"[8, 2, 4, 6, 3, 5, 7, 9, 1]","(0, 0.25)",DOT009B,DOT,B,English,Wed Aug 29 13:11:08 2018,Mouse
1,3,2,0,34,8,8,1,1181,831,350,134,0,500,200,8000,"[(960, 540), (960, 540), (960, 540), (960, 540), (960, 540), (960, 540), (960, 540), (960, 540), (960, 540), (960, 540), (960, 540), (960, 540), (960, 540), (960, 540), (960, 540), (960, 540), (960, 540), (960, 540), (960, 540), (960, 540), (960, 540), (960, 540), (960, 540), (960, 540), (960, 540), (960, 540), (960, 540), (960, 540), (960, 540), (960, 540), (960, 540), (960, 540), (960, 540), (960, 540), (960, 540), (960, 540), (960, 540), (960, 540), (960, 540), (960, 540), (960, 540), (960, 540), (960, 540), (960, 540), (960, 540), (960, 540), (960, 540), (960, 540), (960, 540), (960, 540), (960, 540), (960, 540), (960, 540), (960, 540), (960, 540), (960, 540), (960, 540), (960, 540), (960, 540), (960, 540), (960, 540), (960, 540), (960, 540), (960, 540), (960, 540), (960, 540), (960, 540), (960, 540), (960, 540), (960, 540), (960, 540), (960, 540), (960, 540), (960, 540), (960, 540), (960, 540), (960, 540), (960, 540), (960, 540), (960, 540), (960, 540), (960, 540), (960, 540), (960, 542), (962, 544), (968, 547), (978, 552), (985, 557), (993, 559), (1000, 563), (1015, 571), (1022, 574), (1025, 575), (1031, 578), (1037, 580), (1038, 580), (1040, 582), (1041, 582), (1045, 584), (1050, 586), (1054, 588), (1060, 591), (1072, 596), (1080, 600), (1088, 604), (1094, 607), (1114, 614), (1123, 619), (1133, 623), (1144, 628), (1167, 637), (1179, 643), (1191, 648), (1204, 654), (1229, 664), (1243, 670), (1264, 679), (1282, 688), (1329, 708)]",24.47904098516312,"[8, 2, 4, 6, 3, 5, 7, 9, 1]","(0, 0.25)",DOT009B,DOT,B,English,Wed Aug 29 13:11:08 2018,Mouse
1,3,2,0,35,2,2,1,1238,348,890,133,0,500,200,8000,"[(960, 540), (960, 540), (960, 540), (960, 540), (960, 540), (960, 540), (960, 540), (960, 540), (960, 540), (960, 540), (960, 540), (960, 540), (960, 540), (960, 540), (960, 540), (960, 540), (960, 540), (960, 540), (960, 540), (960, 540), (960, 540), (960, 540), (960, 540), (960, 540), (960, 540), (960, 540), (960, 540), (960, 540), (960, 540), (960, 540), (960, 540), (960, 540), (960, 540), (960, 540), (962, 537), (962, 536), (963, 536), (964, 535), (965, 535), (967, 534), (967, 534), (967, 533), (969, 533), (970, 533), (970, 533), (970, 533), (970, 533), (970, 533), (970, 533), (970, 533), (970, 533), (970, 533), (970, 533), (970, 533), (970, 533), (970, 533), (970, 533), (970, 533), (970, 533), (970, 533), (970, 533), (970, 533), (970, 533), (970, 533), (970, 533), (970, 533), (970, 533), (970, 533), (970, 533), (970, 533), (970, 533), (970, 533), (970, 533), (970, 533), (970, 533), (970, 533), (970, 533), (970, 533), (970, 533), (970, 533), (970, 533), (970, 533), (974, 542), (977, 550), (980, 558), (984, 565), (992, 581), (997, 591), (1003, 599), (1010, 610), (1022, 633), (1032, 649), (1041, 666), (1054, 687), (1074, 721), (1088, 740), (1096, 752), (1108, 769), (1122, 788), (1127, 796), (1132, 802), (1137, 808), (1144, 818), (1146, 822), (1150, 826), (1153, 833), (1160, 843), (1164, 848), (1166, 852), (1169, 858), (1172, 863), (1174, 864), (1175, 866), (1175, 866), (1175, 867), (1175, 867), (1175, 868), (1175, 869), (1175, 870), (1175, 872), (1176, 873), (1177, 874), (1177, 876), (1177, 878)]",57.299056912739225,"[8, 2, 4, 6, 3, 5, 7, 9, 1]","(0, 0.25)",DOT009B,DOT,B,English,Wed Aug 29 13:11:08 2018,Mouse
1,3,2,0,36,8,4,0,-1051,441,610,132,0,500,200,8000,"[(960, 540), (960, 540), (960, 540), (960, 540), (960, 540), (960, 540), (960, 540), (960, 540), (960, 540), (960, 540), (960, 540), (960, 540), (960, 540), (960, 540), (960, 540), (960, 540), (960, 540), (960, 540), (960, 540), (960, 540), (960, 540), (960, 540), (960, 540), (960, 540), (960, 540), (960, 540), (960, 540), (960, 540), (960, 540), (960, 540), (960, 540), (960, 540), (960, 540), (960, 540), (960, 540), (960, 540), (960, 540), (960, 540), (960, 540), (960, 540), (960, 540), (960, 540), (960, 540), (960, 540), (958, 542), (957, 543), (952, 545), (949, 547), (947, 547), (944, 548), (938, 551), (936, 552), (935, 552), (933, 554), (930, 558), (929, 560), (928, 561), (928, 562), (927, 563), (927, 564), (926, 564), (924, 566), (924, 566), (924, 566), (924, 566), (924, 566), (924, 566), (924, 566), (924, 566), (924, 566), (924, 566), (923, 567), (922, 568), (922, 568), (922, 572), (922, 577), (922, 582), (922, 590), (920, 615), (919, 626), (919, 634), (919, 641), (919, 652), (919, 656), (919, 663), (919, 671), (919, 691), (919, 700), (919, 710), (919, 719), (919, 730), (919, 740), (919, 750), (921, 758), (922, 780), (922, 793), (922, 807), (922, 824), (922, 852), (922, 866), (922, 879), (922, 893), (920, 916), (919, 926), (917, 935), (916, 944)]",96.21563589970266,"[8, 2, 4, 6, 3, 5, 7, 9, 1]","(0, 0.25)",DOT009B,DOT,B,English,Wed Aug 29 13:11:08 2018,Mouse
1,3,2,0,37,8,7,0,-1321,542,779,133,0,500,200,8000,"[(960, 540), (960, 540), (960, 540), (960, 540), (960, 540), (960, 540), (960, 540), (960, 540), (960, 540), (960, 540), (960, 540), (960, 540), (960, 540), (960, 540), (960, 540), (960, 540), (960, 540), (960, 540), (960, 540), (960, 540), (960, 540), (960, 540), (960, 540), (960, 540), (960, 540), (960, 540), (960, 540), (960, 540), (960, 540), (960, 540), (960, 540), (960, 540), (960, 540), (960, 540), (960, 540), (960, 540), (960, 540), (960, 540), (960, 540), (960, 540), (960, 540), (960, 540), (960, 540), (960, 540), (960, 540), (960, 540), (960, 540), (960, 540), (960, 540), (960, 540), (960, 540), (960, 540), (960, 540), (960, 540), (960, 538), (960, 536), (960, 531), (960, 530), (960, 527), (960, 525), (961, 518), (963, 513), (966, 502), (971, 488), (981, 462), (988, 452), (998, 440), (1006, 428), (1024, 403), (1033, 394), (1036, 388), (1041, 383), (1050, 372), (1052, 370), (1059, 362), (1064, 357), (1074, 338), (1077, 330), (1079, 325), (1080, 321), (1081, 316), (1081, 315), (1081, 315), (1081, 314), (1081, 313), (1081, 313), (1081, 313), (1081, 312), (1081, 312), (1081, 312), (1081, 312), (1081, 312), (1081, 312), (1081, 312), (1081, 312), (1081, 312), (1081, 312), (1080, 311), (1077, 311), (1075, 311), (1070, 311), (1068, 311), (1064, 311), (1061, 311), (1054, 311), (1053, 311), (1050, 311), (1049, 311), (1043, 310), (1041, 308), (1037, 307), (1032, 305), (1024, 301), (1020, 299), (1018, 298), (1016, 297), (1012, 295), (1012, 293), (1009, 291), (1007, 285), (1001, 269), (997, 258), (992, 245), (986, 234), (978, 217), (973, 208), (969, 200), (963, 192), (954, 172), (951, 163), (948, 152), (946, 142), (940, 118)]",267.28659055496666,"[8, 2, 4, 6, 3, 5, 7, 9, 1]","(0, 0.25)",DOT009B,DOT,B,English,Wed Aug 29 13:11:08 2018,Mouse
1,3,2,0,38,2,3,0,-971,241,730,134,0,500,200,8000,"[(960, 540), (960, 540), (960, 540), (960, 540), (960, 540), (960, 540), (960, 540), (960, 540), (960, 540), (960, 540), (960, 540), (960, 540), (960, 540), (960, 540), (960, 540), (960, 540), (960, 540), (960, 540), (960, 540), (960, 540), (960, 540), (960, 540), (960, 540), (960, 540), (960, 541), (960, 542), (960, 542), (960, 545), (960, 545), (960, 548), (960, 550), (960, 555), (960, 556), (961, 559), (962, 560), (963, 562), (963, 563), (964, 564), (965, 564), (966, 565), (966, 565), (966, 566), (967, 566), (967, 566), (967, 566), (967, 566), (967, 567), (967, 568), (967, 568), (967, 568), (967, 568), (967, 568), (967, 568), (967, 568), (967, 568), (967, 568), (967, 568), (967, 568), (967, 568), (967, 568), (967, 568), (967, 568), (967, 568), (967, 568), (967, 568), (967, 568), (965, 568), (954, 568), (944, 568), (934, 568), (923, 568), (896, 568), (882, 568), (867, 568), (851, 568), (819, 568), (802, 568), (789, 568), (777, 568), (755, 568), (746, 569), (739, 571), (732, 573), (715, 575), (707, 575), (699, 578), (688, 579), (666, 579), (654, 579), (640, 579), (629, 579), (607, 579), (598, 579), (590, 579), (581, 579), (568, 579), (563, 579), (561, 579)]",174.41739424346892,"[8, 2, 4, 6, 3, 5, 7, 9, 1]","(0, 0.25)",DOT009B,DOT,B,English,Wed Aug 29 13:11:08 2018,Mouse
1,3,2,0,39,2,2,1,730,370,360,135,0,500,200,8000,"[(960, 540), (960, 540), (960, 540), (960, 540), (960, 540), (960, 540), (960, 540), (960, 540), (960, 540), (960, 540), (960, 540), (960, 540), (960, 540), (960, 540), (960, 540), (960, 540), (960, 540), (960, 540), (960, 540), (960, 540), (960, 540), (960, 540), (960, 540), (960, 540), (960, 540), (960, 540), (960, 540), (960, 540), (960, 540), (960, 540), (960, 540), (960, 540), (960, 540), (960, 540), (960, 540), (960, 540), (961, 545), (962, 552), (965, 562), (971, 573), (991, 605), (1004, 629), (1016, 646), (1026, 665), (1053, 711), (1060, 723), (1072, 742), (1078, 752), (1089, 769), (1092, 775), (1094, 778), (1097, 781), (1098, 783), (1100, 785), (1100, 787), (1101, 790), (1102, 795), (1105, 802), (1107, 807), (1110, 812), (1115, 824), (1117, 829), (1117, 832), (1119, 837), (1121, 843), (1122, 847), (1123, 850), (1124, 856), (1129, 872), (1131, 878), (1136, 885), (1140, 893), (1146, 905)]",62.997107502508335,"[8, 2, 4, 6, 3, 5, 7, 9, 1]","(0, 0.25)",DOT009B,DOT,B,English,Wed Aug 29 13:11:08 2018,Mouse
1,3,2,0,40,7,5,0,-720,420,300,135,0,500,200,8000,"[(960, 540), (960, 540), (960, 540), (960, 540), (960, 540), (960, 540), (960, 540), (960, 540), (960, 540), (960, 540), (960, 540), (960, 540), (960, 540), (960, 540), (960, 540), (960, 540), (960, 540), (960, 540), (960, 540), (960, 540), (960, 540), (960, 540), (960, 540), (960, 540), (960, 540), (960, 540), (960, 540), (960, 540), (960, 540), (960, 540), (960, 540), (960, 540), (960, 540), (960, 540), (960, 540), (960, 540), (960, 540), (960, 540), (960, 540), (960, 540), (960, 540), (960, 541), (957, 541), (955, 540), (949, 536), (946, 535), (930, 528), (924, 526), (914, 522), (906, 517), (884, 505), (874, 499), (857, 490), (845, 482), (826, 467), (817, 459), (810, 453), (801, 445), (787, 426), (776, 414), (770, 405), (762, 396), (744, 382), (735, 374), (726, 366), (716, 358), (698, 340), (691, 330), (682, 319), (674, 310), (658, 289), (653, 281)]",220.15259260943228,"[8, 2, 4, 6, 3, 5, 7, 9, 1]","(0, 0.25)",DOT009B,DOT,B,English,Wed Aug 29 13:11:08 2018,Mouse
1,3,2,0,41,5,5,1,501,181,320,136,0,500,200,8000,"[(960, 540), (960, 540), (960, 540), (960, 540), (960, 540), (960, 540), (960, 540), (960, 540), (960, 540), (960, 540), (960, 540), (960, 540), (960, 540), (960, 540), (960, 540), (960, 540), (960, 540), (960, 540), (959, 539), (958, 538), (955, 536), (954, 535), (949, 531), (944, 526), (938, 520), (930, 511), (909, 488), (898, 480), (884, 470), (865, 458), (835, 434), (818, 421), (803, 411), (791, 401), (773, 388), (766, 381), (759, 375), (755, 370), (746, 360), (741, 353), (736, 347), (732, 341), (725, 330), (720, 324), (714, 316), (709, 310), (697, 296), (692, 290), (688, 284), (683, 276), (675, 259)]",224.59508957121423,"[8, 2, 4, 6, 3, 5, 7, 9, 1]","(0, 0.25)",DOT009B,DOT,B,English,Wed Aug 29 13:11:08 2018,Mouse
1,3,2,0,42,4,4,1,581,291,290,136,0,500,200,8000,"[(960, 540), (960, 540), (960, 540), (960, 540), (960, 540), (960, 540), (960, 540), (960, 540), (960, 540), (960, 540), (960, 540), (960, 540), (960, 540), (960, 540), (960, 540), (960, 540), (960, 540), (960, 540), (960, 540), (960, 540), (960, 540), (960, 540), (960, 540), (960, 540), (960, 540), (960, 540), (960, 540), (960, 540), (960, 540), (960, 541), (960, 543), (959, 546), (958, 549), (956, 554), (954, 558), (945, 576), (939, 593), (935, 606), (935, 637), (932, 691), (932, 717), (932, 736), (934, 755), (939, 791), (940, 802), (941, 811), (941, 817), (941, 830), (941, 834), (941, 838), (941, 844), (941, 862), (944, 874), (944, 885), (944, 893), (944, 912), (944, 922), (944, 930), (943, 940)]",92.43360610072013,"[8, 2, 4, 6, 3, 5, 7, 9, 1]","(0, 0.25)",DOT009B,DOT,B,English,Wed Aug 29 13:11:08 2018,Mouse
1,3,2,0,43,1,1,1,550,170,380,135,0,500,200,8000,"[(960, 540), (960, 540), (960, 540), (960, 540), (960, 540), (960, 540), (960, 540), (960, 540), (960, 540), (960, 540), (960, 540), (960, 540), (960, 540), (960, 540), (960, 540), (960, 540), (959, 539), (959, 539), (959, 537), (959, 537), (959, 536), (960, 535), (960, 534), (962, 532), (964, 530), (965, 529), (967, 526), (974, 521), (981, 519), (987, 515), (996, 512), (1013, 506), (1021, 504), (1030, 501), (1037, 500), (1053, 496), (1060, 494), (1069, 491), (1077, 487), (1105, 475), (1118, 469), (1134, 463), (1152, 456), (1183, 448), (1198, 446), (1212, 444), (1224, 442), (1250, 434), (1262, 429), (1274, 427), (1288, 422), (1312, 413), (1325, 409), (1333, 404), (1341, 400)]",339.8239385198743,"[8, 2, 4, 6, 3, 5, 7, 9, 1]","(0, 0.25)",DOT009B,DOT,B,English,Wed Aug 29 13:11:08 2018,Mouse
1,3,2,0,44,3,1,0,-594,254,340,134,0,500,200,8000,"[(960, 540), (960, 540), (960, 540), (960, 540), (960, 540), (960, 540), (960, 540), (960, 540), (960, 540), (960, 540), (960, 540), (960, 540), (960, 540), (960, 540), (960, 540), (960, 540), (960, 540), (960, 540), (960, 540), (960, 540), (960, 540), (960, 540), (960, 540), (960, 540), (960, 540), (964, 540), (974, 540), (995, 540), (1008, 540), (1027, 540), (1055, 530), (1108, 507), (1133, 497), (1160, 484), (1178, 477), (1211, 462), (1222, 458), (1231, 453), (1236, 452), (1241, 448), (1242, 448), (1243, 448), (1246, 446), (1248, 443), (1252, 440), (1253, 439), (1256, 435), (1257, 431), (1258, 430), (1258, 428), (1259, 428), (1260, 427), (1261, 425), (1264, 424), (1270, 422), (1286, 420), (1297, 418), (1308, 416), (1320, 415), (1345, 411)]",341.475805486773,"[8, 2, 4, 6, 3, 5, 7, 9, 1]","(0, 0.25)",DOT009B,DOT,B,English,Wed Aug 29 13:11:08 2018,Mouse
1,3,2,0,45,7,7,1,960,300,660,135,0,500,200,8000,"[(960, 540), (960, 540), (960, 540), (960, 540), (960, 540), (960, 540), (960, 540), (960, 540), (960, 540), (960, 540), (960, 540), (960, 540), (960, 540), (960, 540), (960, 540), (960, 540), (960, 540), (960, 540), (960, 540), (960, 540), (960, 540), (960, 540), (960, 540), (960, 540), (960, 540), (960, 540), (960, 540), (960, 540), (960, 540), (959, 540), (959, 541), (958, 541), (958, 541), (958, 541), (957, 541), (957, 541), (957, 541), (957, 541), (957, 541), (957, 541), (957, 541), (957, 541), (957, 541), (957, 541), (957, 541), (957, 541), (957, 541), (957, 541), (957, 541), (957, 541), (957, 541), (957, 541), (957, 541), (957, 541), (957, 541), (957, 541), (957, 541), (957, 541), (957, 541), (957, 541), (957, 541), (956, 541), (956, 536), (956, 528), (956, 521), (956, 514), (956, 504), (956, 498), (956, 493), (956, 489), (956, 480), (956, 478), (953, 473), (952, 471), (951, 469), (951, 469), (951, 469), (951, 467), (949, 465), (949, 463), (948, 459), (948, 453), (943, 436), (939, 428), (937, 420), (936, 413), (933, 397), (933, 386), (933, 371), (933, 348), (933, 292), (930, 261), (925, 234), (916, 203), (902, 153), (898, 140)]",261.18926701401506,"[8, 2, 4, 6, 3, 5, 7, 9, 1]","(0, 0.25)",DOT009B,DOT,B,English,Wed Aug 29 13:11:08 2018,Mouse
1,3,2,0,46,7,6,0,-740,330,410,135,0,500,200,8000,"[(960, 540), (960, 540), (960, 540), (960, 540), (960, 540), (960, 540), (960, 540), (960, 540), (960, 540), (960, 540), (960, 540), (960, 540), (960, 540), (960, 540), (960, 540), (960, 540), (960, 540), (960, 540), (960, 540), (960, 540), (960, 540), (960, 540), (960, 540), (960, 540), (960, 540), (960, 540), (960, 540), (960, 540), (960, 540), (960, 540), (960, 540), (960, 540), (958, 540), (957, 542), (955, 545), (955, 547), (953, 549), (952, 553), (950, 555), (950, 556), (949, 558), (946, 563), (945, 564), (944, 566), (943, 568), (942, 571), (941, 571), (940, 573), (939, 574), (936, 578), (934, 580), (931, 584), (926, 589), (913, 601), (908, 608), (900, 617), (892, 624), (875, 645), (865, 656), (852, 666), (835, 681), (800, 709), (782, 724), (766, 738), (753, 751), (733, 768), (723, 777), (714, 785), (707, 791), (695, 804), (689, 810), (684, 817), (680, 820), (674, 828)]",134.80036394547562,"[8, 2, 4, 6, 3, 5, 7, 9, 1]","(0, 0.25)",DOT009B,DOT,B,English,Wed Aug 29 13:11:08 2018,Mouse
1,3,2,0,47,8,9,0,-510,300,210,136,0,500,200,8000,"[(960, 540), (960, 540), (960, 540), (960, 540), (960, 540), (960, 540), (960, 540), (960, 540), (960, 540), (960, 540), (960, 540), (960, 540), (960, 540), (960, 540), (960, 540), (960, 540), (960, 540), (960, 540), (960, 540), (960, 540), (960, 540), (960, 540), (960, 540), (960, 540), (960, 540), (960, 540), (960, 540), (960, 540), (960, 540), (962, 535), (968, 520), (972, 510), (977, 498), (982, 484), (1005, 428), (1024, 393), (1040, 368), (1055, 344), (1075, 309), (1082, 295), (1087, 285), (1094, 274), (1111, 249), (1118, 240), (1123, 234), (1128, 226), (1136, 214), (1141, 207), (1142, 202), (1147, 193), (1154, 176)]",298.05614472879097,"[8, 2, 4, 6, 3, 5, 7, 9, 1]","(0, 0.25)",DOT009B,DOT,B,English,Wed Aug 29 13:11:08 2018,Mouse
1,3,2,0,48,5,5,1,961,121,840,137,0,500,200,8000,"[(960, 540), (960, 540), (960, 540), (960, 540), (960, 540), (960, 540), (960, 540), (960, 540), (960, 540), (960, 540), (960, 540), (960, 540), (959, 540), (959, 540), (958, 540), (957, 540), (955, 540), (955, 540), (954, 541), (952, 541), (952, 541), (951, 542), (951, 543), (949, 544), (949, 544), (948, 544), (948, 544), (947, 546), (946, 546), (946, 546), (945, 548), (942, 550), (941, 550), (941, 551), (939, 554), (936, 558), (935, 559), (933, 561), (933, 562), (930, 567), (929, 568), (929, 568), (929, 568), (928, 569), (928, 569), (928, 569), (928, 569), (928, 569), (928, 569), (928, 569), (928, 569), (928, 569), (928, 569), (927, 569), (926, 569), (925, 568), (925, 568), (924, 567), (923, 566), (921, 564), (921, 564), (921, 563), (921, 562), (920, 561), (919, 560), (918, 559), (918, 559), (916, 557), (915, 557), (914, 556), (912, 556), (911, 554), (911, 554), (911, 554), (908, 554), (907, 552), (904, 550), (901, 546), (894, 540), (882, 526), (876, 518), (865, 506), (853, 491), (827, 459), (810, 444), (794, 430), (776, 414), (751, 388), (741, 376), (730, 359), (723, 347), (709, 321), (702, 308), (694, 296), (687, 283), (676, 266), (669, 258)]",224.1001402850956,"[8, 2, 4, 6, 3, 5, 7, 9, 1]","(0, 0.25)",DOT009B,DOT,B,English,Wed Aug 29 13:11:08 2018,Mouse
1,3,2,0,49,4,4,1,477,137,340,137,0,500,200,8000,"[(960, 540), (960, 540), (960, 540), (960, 540), (960, 540), (960, 540), (960, 540), (960, 540), (960, 540), (960, 540), (960, 540), (960, 540), (960, 540), (960, 541), (960, 543), (959, 544), (959, 547), (959, 551), (959, 554), (959, 560), (959, 570), (959, 587), (961, 594), (961, 601), (961, 609), (961, 627), (961, 639), (961, 654), (961, 667), (961, 694), (959, 705), (955, 718), (953, 728), (944, 752), (941, 765), (937, 778), (933, 789), (928, 808), (927, 813), (925, 822), (922, 830), (915, 854), (911, 866), (908, 879), (903, 895), (898, 922), (897, 934), (894, 944)]",99.27824001566991,"[8, 2, 4, 6, 3, 5, 7, 9, 1]","(0, 0.25)",DOT009B,DOT,B,English,Wed Aug 29 13:11:08 2018,Mouse
1,3,2,0,50,6,7,0,-760,270,490,136,0,500,200,8000,"[(960, 540), (960, 540), (960, 540), (960, 540), (960, 540), (960, 540), (960, 540), (960, 540), (960, 540), (960, 540), (960, 540), (960, 540), (960, 540), (960, 540), (960, 540), (960, 540), (960, 540), (960, 540), (960, 540), (960, 540), (960, 540), (960, 540), (960, 540), (960, 540), (960, 540), (960, 540), (960, 537), (960, 535), (960, 530), (958, 524), (956, 517), (956, 513), (951, 496), (950, 484), (949, 473), (948, 469), (948, 466), (947, 465), (947, 465), (946, 464), (946, 464), (946, 464), (946, 464), (946, 464), (946, 464), (946, 464), (946, 464), (946, 464), (946, 464), (945, 464), (945, 464), (945, 464), (944, 464), (944, 464), (944, 464), (944, 464), (944, 464), (944, 464), (944, 464), (944, 464), (944, 464), (944, 463), (944, 461), (944, 458), (944, 443), (944, 431), (944, 418), (944, 403), (944, 354), (944, 317), (944, 284), (944, 253), (944, 192), (944, 167), (944, 142), (944, 125)]",267.7920996191569,"[8, 2, 4, 6, 3, 5, 7, 9, 1]","(0, 0.25)",DOT009B,DOT,B,English,Wed Aug 29 13:11:08 2018,Mouse
1,3,2,0,51,3,3,1,781,161,620,137,0,500,200,8000,"[(960, 540), (960, 540), (960, 540), (960, 540), (960, 540), (960, 540), (960, 540), (960, 540), (960, 540), (960, 540), (960, 540), (960, 540), (960, 540), (960, 540), (960, 540), (960, 540), (960, 541), (960, 541), (960, 542), (960, 543), (959, 544), (959, 544), (959, 544), (959, 545), (959, 546), (959, 547), (959, 548), (960, 550), (960, 550), (960, 552), (960, 552), (960, 553), (960, 553), (960, 555), (960, 555), (960, 555), (960, 557), (959, 558), (958, 558), (955, 560), (947, 561), (942, 563), (933, 564), (925, 565), (898, 570), (875, 571), (853, 575), (830, 578), (788, 584), (767, 587), (745, 591), (727, 592), (690, 594), (674, 596), (661, 596), (648, 596), (629, 596), (624, 597), (619, 598), (618, 598), (615, 599), (615, 599), (615, 599), (614, 599), (614, 599), (614, 599), (614, 599), (614, 599), (614, 599), (613, 599), (612, 599), (609, 599), (599, 599), (595, 599), (589, 599), (585, 599), (572, 596), (566, 596), (562, 595)]",172.1320729133923,"[8, 2, 4, 6, 3, 5, 7, 9, 1]","(0, 0.25)",DOT009B,DOT,B,English,Wed Aug 29 13:11:08 2018,Mouse
1,3,2,0,52,2,2,1,500,120,380,137,0,500,200,8000,"[(960, 540), (960, 540), (960, 540), (960, 540), (960, 540), (960, 540), (960, 540), (960, 540), (960, 540), (960, 540), (960, 540), (962, 541), (971, 551), (977, 556), (986, 562), (995, 568), (1010, 578), (1019, 582), (1026, 588), (1035, 593), (1050, 604), (1057, 609), (1065, 615), (1073, 620), (1083, 630), (1084, 633), (1085, 636), (1087, 638), (1087, 645), (1087, 651), (1088, 661), (1090, 672), (1094, 700), (1096, 712), (1099, 730), (1099, 745), (1099, 773), (1099, 784), (1099, 795), (1099, 808), (1102, 834), (1106, 847), (1110, 859), (1113, 868), (1120, 880), (1121, 885), (1123, 888), (1125, 891), (1130, 898), (1132, 902)]",64.58582530109541,"[8, 2, 4, 6, 3, 5, 7, 9, 1]","(0, 0.25)",DOT009B,DOT,B,English,Wed Aug 29 13:11:08 2018,Mouse
1,3,2,0,53,3,3,1,459,189,270,136,0,500,200,8000,"[(960, 540), (960, 540), (960, 540), (960, 540), (960, 540), (960, 540), (960, 540), (960, 540), (960, 540), (960, 540), (960, 540), (960, 540), (960, 540), (960, 540), (960, 540), (960, 540), (960, 540), (960, 540), (959, 540), (954, 539), (948, 537), (936, 535), (930, 533), (923, 533), (918, 533), (907, 533), (901, 533), (896, 533), (891, 533), (879, 533), (871, 533), (852, 534), (824, 541), (776, 542), (762, 546), (745, 548), (727, 549), (696, 554), (679, 557), (667, 559), (655, 560), (632, 563), (618, 564), (603, 566), (587, 566), (536, 566)]",176.49097341138344,"[8, 2, 4, 6, 3, 5, 7, 9, 1]","(0, 0.25)",DOT009B,DOT,B,English,Wed Aug 29 13:11:08 2018,Mouse
1,3,2,0,54,3,3,1,479,179,300,135,0,500,200,8000,"[(960, 540), (960, 540), (960, 540), (960, 540), (960, 540), (960, 540), (960, 540), (960, 540), (960, 540), (960, 540), (960, 540), (960, 540), (960, 540), (960, 540), (960, 540), (960, 540), (960, 540), (960, 539), (958, 538), (956, 538), (952, 538), (949, 538), (940, 538), (933, 538), (923, 538), (912, 538), (887, 538), (866, 538), (830, 538), (799, 538), (757, 538), (742, 538), (729, 538), (716, 538), (694, 540), (686, 542), (679, 544), (672, 545), (655, 548), (649, 548), (641, 549), (633, 550), (618, 550), (608, 550), (597, 550), (588, 550), (568, 550), (560, 550)]",178.56790381583536,"[8, 2, 4, 6, 3, 5, 7, 9, 1]","(0, 0.25)",DOT009B,DOT,B,English,Wed Aug 29 13:11:08 2018,Mouse
1,3,2,0,55,4,5,0,-930,490,440,134,0,500,200,8000,"[(960, 540), (960, 540), (960, 540), (960, 540), (960, 540), (960, 540), (960, 540), (960, 540), (960, 540), (960, 540), (960, 540), (960, 540), (960, 540), (960, 540), (960, 540), (960, 540), (960, 540), (960, 540), (960, 540), (960, 540), (960, 540), (960, 540), (960, 540), (960, 540), (960, 540), (960, 540), (960, 540), (960, 540), (960, 540), (960, 540), (960, 540), (960, 540), (960, 540), (960, 540), (960, 540), (960, 540), (960, 540), (960, 540), (960, 540), (960, 540), (960, 540), (960, 540), (960, 540), (960, 540), (960, 540), (960, 540), (960, 540), (960, 540), (956, 539), (952, 536), (949, 533), (945, 532), (941, 529), (937, 527), (935, 526), (934, 525), (932, 525), (931, 523), (929, 522), (928, 521), (924, 519), (914, 509), (908, 505), (902, 498), (896, 495), (883, 485), (876, 477), (870, 472), (864, 465), (850, 449), (842, 440), (835, 430), (827, 420), (812, 400), (807, 392), (803, 381), (796, 372), (785, 353), (777, 341), (770, 333), (763, 324), (749, 305), (738, 292), (729, 283), (724, 278), (710, 268), (703, 264), (698, 262), (694, 259), (689, 256), (686, 254), (684, 252), (683, 251)]",226.2145695479437,"[8, 2, 4, 6, 3, 5, 7, 9, 1]","(0, 0.25)",DOT009B,DOT,B,English,Wed Aug 29 13:11:08 2018,Mouse
1,3,2,0,56,9,9,1,720,220,500,135,0,500,200,8000,"[(960, 540), (960, 540), (960, 540), (960, 540), (960, 540), (960, 540), (960, 540), (960, 540), (960, 540), (960, 540), (960, 540), (960, 540), (960, 540), (960, 540), (960, 540), (960, 540), (960, 540), (960, 540), (960, 540), (960, 540), (960, 540), (962, 540), (964, 536), (965, 531), (965, 528), (965, 525), (965, 522), (965, 507), (965, 500), (965, 492), (965, 488), (965, 485), (965, 484), (965, 483), (965, 483), (965, 483), (965, 483), (965, 483), (965, 483), (965, 483), (965, 483), (965, 483), (966, 483), (968, 479), (968, 477), (969, 475), (971, 471), (973, 465), (976, 459), (978, 454), (981, 447), (985, 440), (986, 437), (986, 435), (987, 434), (989, 430), (990, 428), (993, 424), (996, 418), (1007, 400), (1012, 390), (1022, 378), (1029, 367), (1045, 346), (1051, 337), (1058, 326), (1068, 314), (1086, 287), (1102, 264), (1115, 247), (1129, 225), (1160, 180)]",299.05460409907715,"[8, 2, 4, 6, 3, 5, 7, 9, 1]","(0, 0.25)",DOT009B,DOT,B,English,Wed Aug 29 13:11:08 2018,Mouse
1,3,2,0,57,5,5,1,550,90,460,135,0,500,200,8000,"[(960, 540), (960, 540), (960, 540), (960, 540), (960, 540), (960, 540), (960, 540), (960, 540), (960, 541), (958, 543), (954, 545), (953, 546), (951, 546), (950, 546), (946, 548), (944, 548), (943, 548), (941, 549), (939, 550), (936, 551), (933, 551), (927, 551), (915, 551), (909, 550), (905, 549), (900, 547), (893, 542), (890, 540), (885, 536), (880, 533), (870, 524), (866, 519), (859, 512), (851, 499), (836, 476), (828, 460), (817, 443), (808, 425), (790, 392), (783, 381), (777, 371), (769, 361), (757, 343), (752, 335), (746, 327), (741, 320), (730, 305), (725, 299), (717, 290), (712, 284), (700, 271), (693, 266), (686, 261), (682, 257), (672, 251)]",225.09929934514355,"[8, 2, 4, 6, 3, 5, 7, 9, 1]","(0, 0.25)",DOT009B,DOT,B,English,Wed Aug 29 13:11:08 2018,Mouse
1,3,2,0,58,1,1,1,789,309,480,134,0,500,200,8000,"[(960, 540), (960, 540), (960, 540), (960, 540), (960, 540), (960, 540), (960, 540), (960, 540), (960, 540), (960, 540), (960, 540), (960, 540), (960, 540), (960, 540), (960, 540), (960, 540), (960, 540), (960, 540), (960, 540), (960, 540), (960, 540), (960, 540), (960, 540), (960, 540), (960, 540), (960, 540), (960, 540), (960, 540), (960, 540), (960, 540), (961, 540), (967, 540), (978, 540), (989, 540), (1014, 540), (1023, 540), (1037, 541), (1052, 541), (1077, 541), (1090, 538), (1104, 532), (1118, 525), (1141, 511), (1151, 503), (1160, 495), (1168, 489), (1179, 475), (1185, 466), (1193, 462), (1200, 455), (1214, 446), (1222, 440), (1228, 437), (1232, 434), (1240, 431), (1244, 429), (1247, 428), (1248, 428), (1254, 427), (1257, 427), (1261, 427), (1265, 427), (1273, 427), (1278, 427), (1282, 427), (1285, 427), (1292, 427), (1295, 427), (1297, 427), (1300, 427), (1307, 424), (1309, 423), (1314, 423), (1317, 423), (1324, 420), (1329, 420), (1332, 419), (1336, 419), (1343, 418)]",342.3313534382001,"[8, 2, 4, 6, 3, 5, 7, 9, 1]","(0, 0.25)",DOT009B,DOT,B,English,Wed Aug 29 13:11:08 2018,Mouse
1,3,2,0,59,5,5,1,1470,140,1330,133,0,500,200,8000,"[(960, 540), (960, 540), (960, 540), (960, 540), (960, 540), (960, 540), (960, 540), (960, 540), (960, 540), (960, 540), (960, 540), (960, 540), (960, 540), (958, 541), (957, 541), (955, 541), (954, 541), (953, 541), (952, 542), (951, 542), (951, 542), (950, 542), (949, 542), (947, 542), (947, 543), (946, 543), (944, 544), (943, 544), (942, 544), (942, 544), (939, 545), (937, 546), (935, 547), (933, 548), (930, 550), (928, 551), (927, 551), (926, 551), (926, 551), (925, 551), (925, 551), (925, 552), (923, 553), (923, 553), (922, 554), (922, 554), (921, 554), (921, 554), (921, 554), (921, 554), (921, 554), (921, 554), (921, 554), (921, 554), (921, 554), (921, 554), (921, 554), (920, 554), (919, 555), (919, 555), (918, 555), (918, 555), (918, 555), (918, 555), (918, 555), (918, 555), (918, 555), (918, 555), (918, 555), (918, 555), (918, 555), (918, 555), (918, 555), (918, 555), (918, 555), (918, 555), (918, 555), (918, 555), (918, 555), (918, 554), (918, 553), (918, 551), (918, 547), (918, 544), (918, 543), (918, 540), (918, 536), (918, 533), (918, 530), (920, 524), (926, 511), (930, 501), (934, 493), (936, 485), (945, 466), (948, 458), (953, 449), (958, 440), (968, 424), (972, 418), (975, 410), (978, 406), (983, 398), (983, 395), (984, 393), (984, 393), (984, 393), (984, 393), (984, 393), (984, 393), (982, 392), (979, 392), (974, 392), (969, 392), (955, 392), (947, 392), (937, 391), (927, 390), (904, 385), (895, 382), (890, 381), (886, 380), (884, 380), (884, 380), (884, 380), (884, 380), (881, 378), (878, 378), (872, 377), (866, 374), (849, 367), (839, 364), (832, 361), (822, 356), (802, 346), (790, 339), (784, 333), (771, 326), (744, 310), (729, 301), (719, 296), (707, 292), (690, 285), (680, 282), (673, 280), (666, 279), (654, 275)]",220.89299089512755,"[8, 2, 4, 6, 3, 5, 7, 9, 1]","(0, 0.25)",DOT009B,DOT,B,English,Wed Aug 29 13:11:08 2018,Mouse
1,3,2,0,60,6,6,1,859,339,520,132,0,500,200,8000,"[(960, 540), (960, 540), (960, 540), (960, 540), (960, 540), (960, 540), (960, 540), (960, 540), (960, 540), (960, 540), (960, 540), (960, 540), (960, 540), (960, 540), (960, 540), (960, 540), (960, 540), (960, 540), (960, 540), (960, 540), (960, 540), (960, 540), (960, 540), (960, 540), (960, 540), (960, 540), (960, 540), (960, 540), (960, 540), (960, 540), (960, 540), (960, 540), (960, 540), (959, 540), (957, 541), (957, 542), (956, 542), (955, 543), (955, 544), (955, 544), (954, 545), (954, 545), (952, 548), (950, 550), (948, 553), (945, 556), (940, 562), (936, 566), (933, 570), (929, 572), (913, 584), (905, 590), (898, 596), (891, 602), (877, 614), (869, 623), (862, 631), (854, 638), (832, 656), (820, 666), (807, 679), (799, 685), (782, 701), (774, 708), (768, 713), (760, 720), (750, 731), (746, 735), (742, 740), (738, 747), (732, 756), (729, 761), (726, 766), (722, 772), (713, 784), (707, 791), (703, 796), (697, 803), (693, 809), (692, 811), (689, 813), (689, 815), (686, 819), (684, 822), (680, 825), (677, 831)]",134.2015042496863,"[8, 2, 4, 6, 3, 5, 7, 9, 1]","(0, 0.25)",DOT009B,DOT,B,English,Wed Aug 29 13:11:08 2018,Mouse
1,3,2,0,61,6,7,0,-810,540,270,131,0,500,200,8000,"[(960, 540), (960, 540), (960, 540), (960, 540), (960, 540), (960, 540), (960, 540), (960, 540), (960, 540), (960, 540), (960, 540), (960, 540), (960, 540), (960, 540), (960, 540), (960, 540), (960, 540), (960, 540), (960, 540), (960, 540), (960, 540), (960, 540), (960, 540), (960, 540), (960, 540), (960, 540), (960, 540), (960, 540), (960, 540), (960, 540), (960, 540), (960, 540), (960, 540), (960, 540), (960, 540), (960, 540), (960, 540), (960, 540), (960, 540), (960, 540), (960, 540), (960, 540), (960, 540), (960, 540), (960, 540), (960, 540), (960, 540), (960, 540), (960, 540), (960, 540), (960, 540), (960, 540), (960, 540), (962, 540), (962, 540), (964, 540), (965, 540), (966, 538), (966, 535), (967, 531), (967, 528), (967, 526), (967, 524), (967, 518), (967, 511), (963, 496), (959, 480), (952, 448), (951, 436), (947, 418), (945, 403), (937, 367), (934, 346), (930, 325), (925, 303), (924, 255), (924, 230), (924, 205), (924, 180), (924, 148), (924, 134)]",264.9328382741468,"[8, 2, 4, 6, 3, 5, 7, 9, 1]","(0, 0.25)",DOT009B,DOT,B,English,Wed Aug 29 13:11:08 2018,Mouse
1,3,2,0,62,9,3,0,-1170,680,490,132,0,500,200,8000,"[(960, 540), (960, 540), (960, 540), (960, 540), (960, 540), (960, 540), (960, 540), (960, 540), (960, 540), (960, 540), (960, 540), (960, 540), (960, 540), (960, 540), (960, 540), (960, 540), (960, 540), (960, 540), (960, 540), (960, 540), (960, 540), (960, 540), (960, 540), (960, 540), (960, 540), (960, 540), (960, 540), (960, 540), (960, 540), (960, 540), (960, 540), (960, 540), (960, 540), (960, 540), (960, 540), (960, 540), (960, 540), (960, 540), (960, 540), (960, 540), (960, 540), (960, 540), (960, 540), (960, 540), (960, 540), (960, 540), (960, 540), (960, 540), (960, 540), (960, 540), (960, 540), (960, 540), (960, 540), (960, 540), (960, 540), (960, 540), (960, 540), (960, 540), (960, 540), (960, 540), (960, 540), (960, 540), (960, 540), (960, 540), (960, 540), (960, 540), (960, 540), (959, 542), (958, 542), (955, 545), (953, 546), (952, 546), (951, 546), (949, 548), (948, 548), (946, 549), (944, 550), (939, 550), (932, 550), (929, 551), (923, 553), (912, 554), (904, 555), (895, 555), (884, 557), (860, 560), (849, 561), (835, 563), (820, 564), (789, 566), (771, 569), (756, 569), (743, 569), (718, 569), (707, 569), (696, 569), (685, 569), (666, 569), (660, 569), (651, 569), (647, 569), (643, 569), (642, 569), (641, 570), (640, 570), (639, 570), (639, 570), (638, 570), (637, 570), (635, 571), (633, 572), (629, 572), (624, 574), (605, 577), (591, 578), (577, 578), (562, 580)]",174.2609015019104,"[8, 2, 4, 6, 3, 5, 7, 9, 1]","(0, 0.25)",DOT009B,DOT,B,English,Wed Aug 29 13:11:08 2018,Mouse
1,3,2,0,63,3,3,1,519,159,360,133,0,500,200,8000,"[(960, 540), (960, 540), (960, 540), (960, 540), (960, 540), (960, 540), (960, 540), (960, 540), (960, 540), (960, 540), (960, 540), (960, 540), (960, 540), (960, 540), (960, 540), (960, 541), (959, 541), (955, 543), (952, 543), (940, 544), (931, 545), (920, 545), (909, 545), (884, 545), (868, 545), (848, 545), (826, 545), (789, 545), (767, 545), (750, 545), (728, 542), (695, 538), (680, 538), (669, 538), (658, 538), (642, 538), (636, 538), (633, 538), (631, 538), (630, 538), (629, 538), (628, 538), (628, 538), (626, 538), (624, 539), (623, 539), (617, 540), (606, 542), (599, 542), (590, 542), (579, 542), (558, 542)]",179.71494872241618,"[8, 2, 4, 6, 3, 5, 7, 9, 1]","(0, 0.25)",DOT009B,DOT,B,English,Wed Aug 29 13:11:08 2018,Mouse
1,3,2,0,64,3,2,0,-840,330,510,133,0,500,200,8000,"[(960, 540), (960, 540), (960, 540), (960, 540), (960, 540), (960, 540), (960, 540), (960, 540), (960, 540), (960, 540), (960, 540), (960, 540), (960, 540), (960, 540), (960, 540), (960, 540), (960, 540), (960, 540), (960, 540), (960, 540), (960, 540), (960, 540), (960, 540), (960, 540), (960, 540), (960, 540), (960, 540), (960, 540), (960, 540), (960, 540), (960, 540), (960, 540), (961, 540), (964, 540), (967, 537), (968, 536), (974, 532), (982, 531), (1000, 523), (1009, 521), (1015, 521), (1019, 520), (1027, 519), (1030, 518), (1032, 517), (1032, 517), (1032, 517), (1032, 517), (1032, 517), (1032, 517), (1032, 517), (1032, 517), (1032, 517), (1032, 517), (1032, 521), (1032, 524), (1032, 526), (1031, 529), (1031, 539), (1031, 546), (1031, 553), (1031, 557), (1031, 567), (1031, 570), (1032, 575), (1033, 578), (1035, 583), (1036, 586), (1037, 591), (1041, 598), (1053, 620), (1060, 638), (1068, 658), (1081, 680), (1100, 713), (1107, 724), (1114, 739), (1121, 752), (1142, 785), (1155, 803), (1163, 818), (1175, 838), (1187, 868), (1194, 883)]",55.69757604971573,"[8, 2, 4, 6, 3, 5, 7, 9, 1]","(0, 0.25)",DOT009B,DOT,B,English,Wed Aug 29 13:11:08 2018,Mouse
1,3,2,0,65,2,2,1,581,371,210,134,0,500,200,8000,"[(960, 540), (960, 540), (960, 540), (960, 540), (960, 540), (960, 540), (960, 540), (960, 540), (960, 540), (960, 540), (960, 540), (960, 540), (960, 540), (960, 540), (960, 540), (960, 540), (960, 540), (960, 540), (960, 540), (960, 540), (960, 540), (960, 540), (960, 540), (960, 540), (960, 540), (960, 540), (960, 540), (960, 540), (960, 540), (960, 540), (960, 540), (960, 540), (960, 540), (960, 540), (960, 540), (960, 540), (960, 540), (959, 541), (965, 565), (974, 586), (983, 607), (996, 631), (1019, 677), (1026, 694), (1034, 710), (1041, 723), (1063, 759), (1070, 772), (1079, 786), (1087, 796), (1101, 816), (1110, 830), (1116, 837), (1123, 846), (1135, 859), (1139, 865), (1143, 870), (1147, 877), (1156, 895)]",61.096354491649606,"[8, 2, 4, 6, 3, 5, 7, 9, 1]","(0, 0.25)",DOT009B,DOT,B,English,Wed Aug 29 13:11:08 2018,Mouse
1,3,2,0,66,1,1,1,480,69,411,134,0,500,200,8000,"[(960, 540), (960, 540), (960, 540), (960, 540), (960, 540), (960, 540), (961, 540), (963, 538), (964, 536), (966, 535), (967, 533), (967, 532), (969, 531), (970, 529), (973, 528), (975, 526), (978, 524), (981, 523), (989, 520), (995, 517), (1002, 510), (1007, 500), (1018, 484), (1025, 476), (1031, 471), (1036, 467), (1048, 462), (1056, 461), (1063, 461), (1073, 461), (1091, 458), (1103, 456), (1117, 455), (1132, 452), (1167, 446), (1180, 445), (1194, 444), (1207, 440), (1230, 434), (1244, 431), (1255, 426), (1267, 421), (1287, 411), (1298, 404), (1307, 398), (1313, 393), (1327, 383), (1335, 377)]",336.5070214307599,"[8, 2, 4, 6, 3, 5, 7, 9, 1]","(0, 0.25)",DOT009B,DOT,B,English,Wed Aug 29 13:11:08 2018,Mouse
1,3,2,0,67,9,5,0,-789,239,550,133,0,500,200,8000,"[(960, 540), (960, 540), (960, 540), (960, 540), (960, 540), (960, 540), (960, 540), (960, 540), (960, 540), (960, 540), (960, 540), (960, 540), (960, 540), (960, 540), (960, 540), (960, 540), (960, 540), (960, 540), (960, 540), (960, 540), (960, 540), (960, 540), (960, 540), (957, 540), (953, 540), (950, 540), (949, 540), (948, 540), (948, 540), (947, 539), (947, 539), (947, 539), (947, 539), (947, 539), (947, 539), (947, 539), (947, 539), (947, 539), (947, 539), (947, 539), (947, 539), (945, 539), (945, 539), (945, 539), (945, 539), (945, 539), (944, 539), (944, 539), (943, 539), (940, 539), (940, 539), (939, 539), (938, 538), (937, 538), (935, 537), (930, 535), (924, 535), (913, 531), (905, 528), (898, 526), (892, 525), (877, 520), (869, 517), (861, 512), (857, 511), (844, 502), (837, 498), (833, 494), (825, 489), (805, 473), (792, 462), (777, 450), (765, 440), (739, 420), (726, 409), (709, 396), (691, 379), (651, 341), (625, 318)]",213.53190152467403,"[8, 2, 4, 6, 3, 5, 7, 9, 1]","(0, 0.25)",DOT009B,DOT,B,English,Wed Aug 29 13:11:08 2018,Mouse
1,3,2,0,68,3,3,1,530,260,270,134,0,500,200,8000,"[(960, 540), (960, 540), (960, 540), (960, 540), (960, 540), (960, 540), (960, 540), (960, 540), (960, 540), (960, 540), (960, 540), (960, 540), (960, 540), (960, 540), (960, 540), (960, 540), (960, 540), (960, 540), (960, 540), (960, 540), (960, 540), (960, 540), (960, 540), (960, 540), (960, 540), (960, 542), (957, 544), (955, 546), (953, 546), (945, 550), (944, 551), (937, 552), (932, 553), (917, 555), (911, 555), (900, 558), (885, 558), (855, 558), (836, 558), (817, 558), (793, 556), (751, 550), (730, 547), (709, 544), (697, 542), (661, 537), (643, 536), (627, 532), (612, 531), (585, 526), (572, 526), (561, 526), (550, 526)]",181.95568139752288,"[8, 2, 4, 6, 3, 5, 7, 9, 1]","(0, 0.25)",DOT009B,DOT,B,English,Wed Aug 29 13:11:08 2018,Mouse
1,3,2,0,69,2,2,1,610,120,490,134,0,500,200,8000,"[(960, 540), (960, 540), (960, 540), (960, 540), (960, 540), (960, 540), (960, 540), (960, 540), (960, 540), (960, 540), (960, 540), (959, 541), (959, 543), (961, 548), (961, 548), (965, 554), (967, 556), (970, 561), (972, 564), (978, 572), (979, 574), (982, 577), (982, 580), (986, 585), (991, 590), (995, 595), (999, 601), (1006, 616), (1010, 626), (1013, 637), (1016, 644), (1022, 667), (1024, 678), (1030, 689), (1033, 699), (1039, 721), (1041, 733), (1046, 743), (1049, 751), (1052, 763), (1056, 769), (1059, 775), (1062, 784), (1073, 800), (1078, 806), (1085, 815), (1089, 823), (1100, 838), (1105, 844), (1109, 849), (1113, 855), (1117, 861), (1120, 867), (1123, 870), (1127, 874), (1130, 881), (1131, 882), (1132, 883), (1133, 888), (1137, 897), (1141, 902)]",63.43494882292201,"[8, 2, 4, 6, 3, 5, 7, 9, 1]","(0, 0.25)",DOT009B,DOT,B,English,Wed Aug 29 13:11:08 2018,Mouse
1,3,2,0,70,1,5,0,-991,391,600,133,0,500,200,8000,"[(960, 540), (960, 540), (960, 540), (960, 540), (960, 540), (960, 540), (960, 540), (960, 540), (960, 540), (960, 540), (960, 540), (960, 540), (960, 540), (960, 540), (960, 540), (960, 540), (960, 540), (960, 540), (960, 540), (960, 540), (960, 540), (960, 540), (960, 540), (960, 540), (960, 540), (960, 540), (960, 540), (960, 540), (960, 540), (960, 540), (960, 540), (960, 540), (960, 540), (960, 540), (960, 540), (960, 540), (960, 540), (960, 540), (960, 540), (959, 540), (958, 540), (956, 540), (949, 544), (944, 547), (937, 553), (932, 558), (922, 573), (921, 577), (920, 582), (919, 587), (917, 591), (917, 591), (917, 591), (917, 591), (917, 591), (917, 591), (917, 591), (917, 591), (917, 591), (917, 591), (917, 591), (917, 591), (917, 591), (917, 591), (917, 591), (917, 591), (917, 591), (917, 591), (917, 591), (917, 591), (917, 591), (917, 591), (917, 591), (917, 591), (917, 591), (917, 591), (917, 591), (917, 591), (917, 591), (917, 591), (917, 591), (917, 591), (917, 591), (909, 588), (893, 578), (873, 562), (844, 533), (828, 510), (814, 495), (799, 475), (769, 433), (753, 412), (740, 393), (729, 376), (703, 341), (689, 322), (683, 310), (678, 298), (670, 275), (666, 265)]",223.0874947798629,"[8, 2, 4, 6, 3, 5, 7, 9, 1]","(0, 0.25)",DOT009B,DOT,B,English,Wed Aug 29 13:11:08 2018,Mouse
1,3,2,0,71,8,5,0,-981,651,330,134,0,500,200,8000,"[(960, 540), (960, 540), (960, 540), (960, 540), (960, 540), (960, 540), (960, 540), (960, 540), (960, 540), (960, 540), (960, 540), (960, 540), (960, 540), (960, 540), (960, 540), (960, 540), (960, 540), (960, 540), (960, 540), (960, 540), (960, 540), (960, 540), (960, 540), (960, 540), (960, 540), (960, 540), (960, 540), (960, 540), (960, 540), (960, 540), (960, 540), (960, 540), (960, 540), (960, 540), (960, 540), (960, 540), (960, 540), (960, 540), (960, 540), (960, 540), (960, 540), (960, 540), (960, 540), (960, 540), (960, 540), (960, 540), (960, 540), (960, 540), (960, 540), (960, 540), (960, 540), (960, 540), (960, 540), (960, 540), (960, 540), (960, 540), (960, 540), (960, 540), (960, 540), (960, 540), (960, 540), (960, 540), (960, 540), (960, 540), (960, 540), (954, 539), (937, 524), (928, 517), (915, 509), (901, 498), (869, 475), (852, 463), (842, 456), (830, 447), (815, 433), (808, 428), (801, 422), (796, 416), (784, 403), (778, 394), (773, 389), (767, 382), (758, 373), (752, 368), (749, 365), (743, 361), (731, 350), (726, 345), (723, 343), (718, 339), (711, 329), (708, 324), (705, 319), (700, 311), (692, 298), (685, 292), (679, 286), (674, 280), (661, 269)]",222.1877310749814,"[8, 2, 4, 6, 3, 5, 7, 9, 1]","(0, 0.25)",DOT009B,DOT,B,English,Wed Aug 29 13:11:08 2018,Mouse
1,3,2,0,72,6,6,1,1110,311,799,135,0,500,200,8000,"[(960, 540), (960, 540), (960, 540), (960, 540), (960, 540), (960, 540), (960, 540), (960, 540), (960, 540), (960, 540), (960, 540), (960, 540), (960, 540), (960, 540), (960, 540), (960, 540), (960, 540), (960, 540), (960, 540), (960, 540), (960, 540), (960, 540), (960, 540), (960, 540), (960, 540), (960, 540), (960, 540), (960, 540), (960, 540), (960, 540), (960, 540), (961, 541), (961, 542), (961, 542), (961, 542), (960, 543), (960, 543), (960, 543), (960, 543), (960, 543), (960, 543), (960, 543), (959, 543), (958, 543), (956, 542), (955, 542), (954, 542), (951, 542), (950, 542), (948, 542), (946, 542), (942, 546), (938, 550), (932, 555), (924, 561), (907, 575), (900, 581), (892, 588), (885, 595), (866, 613), (859, 622), (851, 631), (843, 640), (830, 655), (823, 663), (816, 668), (811, 675), (795, 689), (786, 696), (777, 705), (768, 712), (752, 726), (744, 733), (739, 741), (734, 747), (724, 760), (719, 766), (716, 771), (715, 774), (711, 780), (711, 780), (710, 782), (709, 785), (707, 787), (706, 789), (704, 790), (704, 791), (703, 791), (702, 793), (701, 794), (701, 794), (700, 795), (700, 796), (700, 797), (698, 800), (698, 801), (697, 803), (695, 804), (693, 807), (693, 808), (692, 808), (692, 809), (690, 812), (689, 813), (688, 814), (687, 816), (683, 822), (681, 823), (680, 824), (680, 825), (679, 826)]",134.49475930850573,"[8, 2, 4, 6, 3, 5, 7, 9, 1]","(0, 0.25)",DOT009B,DOT,B,English,Wed Aug 29 13:11:08 2018,Mouse
1,3,2,0,73,2,2,1,700,30,670,135,0,500,200,8000,"[(960, 540), (960, 540), (961, 539), (961, 539), (961, 539), (961, 539), (961, 538), (961, 538), (961, 538), (961, 538), (962, 537), (962, 537), (962, 537), (962, 537), (963, 537), (963, 537), (963, 537), (963, 537), (963, 537), (963, 537), (963, 537), (964, 536), (964, 535), (964, 535), (965, 535), (965, 535), (969, 535), (971, 535), (972, 535), (972, 535), (975, 535), (975, 535), (976, 535), (976, 535), (978, 535), (980, 536), (983, 539), (985, 540), (992, 546), (996, 548), (1002, 553), (1006, 556), (1017, 564), (1022, 568), (1028, 575), (1034, 581), (1045, 598), (1048, 606), (1054, 616), (1059, 628), (1071, 660), (1076, 677), (1080, 691), (1082, 705), (1090, 731), (1094, 742), (1098, 754), (1104, 765), (1113, 788), (1117, 798), (1122, 808), (1126, 819), (1133, 836), (1137, 842), (1139, 850), (1142, 856), (1147, 868), (1152, 875), (1158, 883), (1164, 891)]",59.83499219425874,"[8, 2, 4, 6, 3, 5, 7, 9, 1]","(0, 0.25)",DOT009B,DOT,B,English,Wed Aug 29 13:11:08 2018,Mouse
1,3,2,0,74,5,5,1,750,310,440,134,0,500,200,8000,"[(960, 540), (960, 540), (960, 540), (960, 540), (960, 540), (960, 540), (960, 540), (960, 540), (960, 540), (960, 540), (960, 540), (960, 540), (960, 540), (960, 540), (960, 540), (960, 540), (960, 540), (960, 540), (960, 540), (960, 540), (960, 540), (960, 540), (960, 540), (960, 540), (960, 540), (960, 540), (960, 540), (960, 540), (960, 540), (960, 540), (958, 540), (953, 538), (952, 536), (949, 535), (946, 532), (939, 527), (939, 526), (936, 525), (934, 523), (932, 522), (932, 522), (932, 522), (931, 520), (930, 518), (928, 517), (928, 516), (923, 514), (916, 509), (911, 506), (907, 503), (900, 499), (885, 488), (874, 481), (868, 476), (858, 470), (842, 460), (838, 456), (834, 453), (832, 451), (822, 442), (817, 438), (810, 433), (803, 425), (784, 408), (772, 398), (760, 390), (749, 382), (725, 364), (715, 356), (699, 345), (686, 333), (666, 316), (655, 308), (647, 300), (639, 293)]",217.57721701438825,"[8, 2, 4, 6, 3, 5, 7, 9, 1]","(0, 0.25)",DOT009B,DOT,B,English,Wed Aug 29 13:11:08 2018,Mouse
1,3,2,0,75,2,2,1,880,390,490,133,0,500,200,8000,"[(960, 540), (960, 540), (960, 540), (960, 540), (960, 540), (960, 540), (960, 540), (960, 540), (960, 540), (960, 540), (960, 540), (960, 540), (960, 540), (960, 540), (960, 540), (960, 540), (960, 540), (960, 540), (960, 540), (960, 540), (960, 540), (960, 540), (960, 540), (960, 540), (960, 540), (960, 540), (960, 540), (960, 540), (960, 540), (960, 540), (960, 540), (960, 540), (960, 540), (960, 540), (960, 540), (960, 540), (960, 540), (960, 540), (960, 542), (960, 547), (963, 554), (966, 561), (972, 569), (983, 585), (991, 594), (998, 601), (1007, 613), (1018, 633), (1023, 642), (1024, 647), (1026, 654), (1029, 662), (1032, 667), (1034, 672), (1035, 677), (1040, 686), (1041, 690), (1043, 694), (1046, 702), (1048, 713), (1052, 721), (1054, 726), (1058, 738), (1066, 761), (1075, 778), (1081, 791), (1090, 808), (1101, 828), (1107, 838), (1111, 843), (1116, 849), (1125, 859), (1128, 861), (1134, 865), (1136, 866), (1144, 869), (1147, 870), (1149, 871), (1151, 872), (1152, 873), (1153, 873), (1154, 873), (1155, 874), (1155, 875), (1156, 875), (1158, 877), (1160, 879), (1167, 885)]",59.03624346792648,"[8, 2, 4, 6, 3, 5, 7, 9, 1]","(0, 0.25)",DOT009B,DOT,B,English,Wed Aug 29 13:11:08 2018,Mouse
1,3,2,0,76,4,4,1,949,339,610,132,0,500,200,8000,"[(960, 540), (960, 540), (960, 540), (960, 540), (960, 540), (960, 540), (960, 540), (960, 540), (960, 540), (960, 540), (960, 540), (960, 540), (960, 540), (960, 540), (960, 540), (960, 540), (960, 540), (960, 540), (960, 540), (960, 540), (960, 540), (960, 540), (960, 540), (960, 540), (960, 540), (960, 540), (960, 540), (960, 540), (960, 540), (960, 540), (960, 540), (960, 540), (960, 540), (958, 540), (957, 540), (955, 540), (953, 539), (950, 537), (945, 535), (944, 534), (941, 532), (941, 532), (939, 530), (938, 530), (938, 529), (937, 529), (935, 527), (935, 527), (934, 526), (934, 526), (934, 526), (934, 526), (933, 525), (933, 525), (933, 525), (933, 525), (933, 525), (933, 525), (931, 525), (930, 525), (929, 525), (927, 525), (922, 529), (921, 534), (919, 542), (916, 552), (904, 576), (901, 594), (898, 615), (897, 630), (892, 663), (888, 676), (887, 686), (886, 696), (880, 712), (877, 715), (873, 719), (873, 720), (870, 721), (870, 721), (870, 721), (870, 721), (870, 721), (870, 721), (870, 721), (870, 721), (869, 721), (865, 726), (863, 738), (861, 751), (859, 797), (859, 823), (859, 853), (859, 884), (859, 956)]",103.64670309367435,"[8, 2, 4, 6, 3, 5, 7, 9, 1]","(0, 0.25)",DOT009B,DOT,B,English,Wed Aug 29 13:11:08 2018,Mouse
1,3,2,0,77,3,8,0,-2140,199,1941,131,0,500,200,8000,"[(960, 540), (960, 540), (960, 540), (960, 540), (960, 540), (960, 540), (960, 540), (960, 540), (960, 540), (960, 540), (960, 540), (960, 540), (960, 540), (960, 540), (960, 540), (960, 540), (960, 540), (960, 540), (960, 540), (960, 539), (961, 538), (961, 537), (962, 536), (962, 536), (963, 535), (963, 535), (967, 533), (972, 531), (981, 527), (991, 522), (1016, 505), (1028, 496), (1038, 490), (1050, 487), (1067, 482), (1072, 481), (1079, 481), (1081, 481), (1085, 481), (1085, 481), (1085, 481), (1085, 481), (1085, 481), (1085, 481), (1085, 481), (1085, 481), (1085, 481), (1085, 481), (1085, 481), (1085, 481), (1085, 481), (1085, 481), (1085, 481), (1085, 481), (1083, 481), (1080, 482), (1074, 484), (1067, 487), (1055, 492), (1049, 494), (1041, 498), (1036, 501), (1013, 510), (1003, 515), (993, 520), (983, 525), (966, 535), (960, 537), (958, 537), (958, 537), (957, 537), (957, 537), (957, 537), (957, 537), (957, 537), (957, 537), (957, 537), (957, 537), (957, 537), (957, 537), (957, 537), (957, 537), (957, 537), (957, 537), (957, 537), (957, 537), (957, 537), (957, 537), (957, 537), (957, 537), (957, 537), (957, 537), (957, 537), (957, 537), (957, 537), (957, 537), (957, 537), (957, 537), (957, 537), (957, 537), (957, 537), (957, 537), (957, 537), (957, 539), (957, 540), (957, 540), (957, 542), (956, 543), (956, 544), (955, 546), (954, 549), (954, 549), (952, 552), (951, 553), (951, 554), (951, 555), (950, 555), (950, 555), (950, 556), (950, 556), (950, 556), (949, 556), (949, 556), (949, 556), (949, 556), (949, 556), (949, 556), (949, 556), (949, 556), (949, 556), (949, 556), (949, 556), (949, 556), (949, 556), (948, 557), (948, 557), (948, 557), (948, 557), (947, 557), (947, 557), (947, 557), (945, 559), (944, 560), (944, 560), (943, 560), (943, 560), (943, 560), (943, 560), (942, 562), (942, 562), (942, 562), (942, 562), (942, 562), (942, 562), (942, 562), (942, 562), (942, 562), (942, 562), (942, 562), (942, 562), (942, 562), (942, 562), (942, 562), (942, 562), (942, 562), (942, 562), (942, 562), (942, 562), (942, 562), (942, 562), (942, 562), (942, 562), (942, 562), (941, 563), (940, 565), (940, 565), (940, 565), (940, 565), (940, 565), (940, 565), (940, 565), (940, 565), (940, 565), (940, 565), (940, 565), (940, 565), (940, 565), (942, 567), (950, 569), (963, 572), (999, 583), (1018, 589), (1048, 595), (1074, 603), (1126, 618), (1154, 626), (1171, 631), (1191, 637), (1216, 643), (1226, 645), (1235, 648), (1240, 649), (1251, 653), (1257, 654), (1263, 657), (1266, 658), (1275, 659), (1282, 661), (1289, 664), (1295, 664), (1313, 668), (1324, 669), (1334, 671), (1342, 673)]",19.196458516493397,"[8, 2, 4, 6, 3, 5, 7, 9, 1]","(0, 0.25)",DOT009B,DOT,B,English,Wed Aug 29 13:11:08 2018,Mouse
1,3,2,0,78,4,5,0,-999,129,870,132,0,500,200,8000,"[(960, 540), (960, 540), (960, 540), (960, 540), (960, 540), (960, 540), (960, 540), (960, 540), (960, 540), (960, 540), (960, 540), (960, 540), (958, 540), (956, 540), (954, 540), (951, 540), (948, 540), (945, 540), (938, 540), (923, 542), (913, 543), (904, 544), (897, 548), (884, 554), (874, 557), (864, 560), (855, 566), (834, 581), (822, 589), (812, 598), (805, 606), (797, 618), (794, 624), (791, 627), (788, 633), (781, 644), (776, 654), (770, 661), (765, 672), (759, 684), (758, 690), (756, 695), (756, 695), (756, 696), (756, 696), (756, 696), (756, 696), (758, 696), (759, 696), (761, 696), (763, 696), (766, 696), (768, 694), (769, 694), (770, 693), (772, 691), (772, 691), (773, 690), (773, 690), (775, 688), (775, 688), (776, 687), (776, 687), (777, 685), (779, 683), (781, 682), (783, 679), (787, 677), (787, 676), (788, 676), (788, 675), (789, 671), (790, 668), (790, 661), (791, 653), (791, 630), (791, 618), (791, 603), (791, 591), (791, 574), (791, 563), (787, 549), (782, 532), (764, 491), (753, 474), (740, 456), (732, 445), (718, 428), (715, 425), (711, 417), (707, 411), (702, 399), (697, 391), (695, 385), (691, 375), (680, 351), (677, 340), (671, 327), (662, 308), (644, 267)]",220.82452382528848,"[8, 2, 4, 6, 3, 5, 7, 9, 1]","(0, 0.25)",DOT009B,DOT,B,English,Wed Aug 29 13:11:08 2018,Mouse
1,3,2,0,79,6,6,1,620,220,400,133,0,500,200,8000,"[(960, 540), (960, 540), (960, 540), (960, 540), (960, 540), (960, 540), (960, 540), (960, 540), (960, 540), (960, 540), (960, 540), (960, 540), (960, 540), (960, 540), (960, 540), (960, 540), (960, 540), (960, 540), (960, 540), (960, 540), (960, 540), (959, 542), (958, 544), (957, 546), (956, 548), (956, 549), (955, 553), (955, 554), (955, 554), (955, 556), (954, 557), (952, 559), (952, 559), (949, 563), (946, 567), (944, 568), (943, 570), (942, 571), (938, 574), (937, 574), (935, 576), (930, 580), (917, 594), (904, 608), (889, 626), (872, 647), (839, 685), (820, 706), (805, 724), (791, 739), (762, 768), (753, 778), (743, 789), (736, 795), (724, 806), (719, 810), (714, 812), (711, 814), (697, 820), (690, 825), (683, 828), (675, 830)]",134.50178838738637,"[8, 2, 4, 6, 3, 5, 7, 9, 1]","(0, 0.25)",DOT009B,DOT,B,English,Wed Aug 29 13:11:08 2018,Mouse
1,3,2,0,80,7,6,0,-890,320,570,133,0,500,200,8000,"[(960, 540), (960, 540), (960, 540), (960, 540), (960, 540), (960, 540), (960, 540), (960, 540), (960, 540), (960, 540), (960, 540), (960, 540), (960, 540), (960, 540), (960, 540), (960, 540), (960, 540), (960, 540), (960, 540), (960, 540), (960, 540), (960, 540), (960, 540), (960, 540), (960, 540), (960, 540), (960, 540), (960, 540), (960, 540), (960, 540), (960, 540), (958, 541), (956, 542), (952, 544), (951, 544), (947, 546), (945, 546), (944, 547), (941, 548), (935, 549), (933, 551), (933, 551), (931, 551), (931, 551), (931, 551), (931, 551), (931, 551), (931, 551), (931, 551), (931, 551), (930, 552), (930, 552), (929, 553), (929, 553), (929, 553), (927, 555), (927, 555), (926, 557), (925, 558), (921, 562), (916, 566), (910, 571), (902, 576), (886, 589), (877, 594), (868, 601), (861, 606), (842, 622), (826, 635), (805, 653), (787, 667), (758, 690), (746, 705), (734, 718), (726, 728), (707, 752), (699, 766), (686, 780), (681, 791), (672, 807), (671, 808), (671, 810), (671, 812), (671, 812), (671, 813), (671, 814), (670, 814), (670, 815), (670, 816)]",136.4169211744957,"[8, 2, 4, 6, 3, 5, 7, 9, 1]","(0, 0.25)",DOT009B,DOT,B,English,Wed Aug 29 13:11:08 2018,Mouse
1,3,2,0,81,2,8,0,-1371,151,1220,134,0,500,200,8000,"[(960, 540), (960, 540), (960, 540), (960, 540), (960, 540), (960, 540), (960, 540), (960, 540), (960, 540), (960, 540), (960, 540), (960, 540), (960, 540), (960, 540), (960, 540), (960, 538), (960, 538), (960, 538), (961, 538), (961, 538), (961, 538), (961, 538), (961, 538), (961, 538), (961, 538), (961, 538), (961, 538), (961, 538), (961, 538), (961, 538), (961, 538), (961, 538), (961, 538), (961, 538), (961, 538), (961, 538), (961, 538), (961, 538), (961, 538), (961, 538), (961, 538), (961, 538), (961, 538), (961, 538), (961, 538), (961, 538), (961, 538), (961, 538), (961, 538), (961, 538), (961, 538), (961, 538), (961, 538), (961, 537), (963, 531), (964, 529), (964, 526), (964, 520), (964, 510), (964, 510), (964, 508), (964, 507), (964, 505), (964, 503), (964, 501), (964, 499), (964, 489), (964, 484), (964, 480), (964, 478), (964, 476), (964, 475), (964, 475), (964, 475), (964, 473), (964, 473), (964, 473), (964, 473), (964, 473), (964, 473), (964, 473), (964, 473), (964, 472), (964, 472), (964, 472), (964, 472), (964, 472), (964, 472), (964, 472), (964, 472), (964, 472), (964, 472), (964, 472), (964, 472), (964, 472), (964, 472), (964, 472), (964, 472), (964, 472), (964, 472), (965, 475), (966, 478), (971, 486), (974, 491), (976, 496), (979, 499), (984, 505), (987, 507), (993, 511), (999, 515), (1011, 520), (1017, 523), (1023, 524), (1026, 526), (1034, 528), (1040, 529), (1043, 531), (1050, 532), (1066, 538), (1075, 542), (1083, 546), (1090, 549), (1104, 555), (1111, 558), (1118, 560), (1127, 564), (1147, 573), (1164, 581), (1175, 586), (1190, 594), (1226, 614), (1241, 622), (1254, 629), (1264, 633), (1295, 647), (1311, 657), (1332, 666), (1358, 677)]",18.994544202275993,"[8, 2, 4, 6, 3, 5, 7, 9, 1]","(0, 0.25)",DOT009B,DOT,B,English,Wed Aug 29 13:11:08 2018,Mouse
1,3,2,0,82,6,4,0,-1251,161,1090,135,0,500,200,8000,"[(960, 540), (960, 540), (960, 540), (960, 540), (960, 540), (960, 540), (960, 540), (960, 540), (960, 540), (960, 540), (960, 540), (960, 540), (960, 540), (960, 540), (960, 540), (960, 540), (959, 540), (959, 540), (959, 540), (958, 540), (957, 540), (956, 540), (955, 540), (954, 540), (954, 540), (953, 540), (953, 540), (951, 540), (951, 540), (951, 540), (951, 540), (951, 540), (951, 540), (951, 540), (951, 540), (951, 540), (951, 540), (951, 540), (951, 540), (951, 540), (951, 540), (951, 540), (951, 540), (951, 540), (950, 540), (949, 540), (949, 540), (948, 541), (947, 541), (946, 541), (945, 541), (944, 542), (938, 543), (935, 545), (932, 546), (926, 548), (915, 553), (909, 556), (905, 557), (902, 557), (896, 559), (893, 559), (893, 559), (891, 560), (887, 560), (885, 560), (884, 560), (884, 560), (881, 563), (880, 564), (876, 566), (870, 568), (862, 573), (857, 575), (854, 577), (852, 578), (848, 581), (844, 583), (842, 584), (839, 587), (831, 594), (826, 600), (824, 604), (818, 609), (811, 619), (807, 623), (806, 623), (806, 624), (803, 626), (803, 627), (803, 627), (803, 628), (803, 628), (803, 628), (803, 629), (803, 629), (803, 629), (803, 629), (803, 629), (803, 631), (806, 635), (808, 640), (812, 647), (814, 655), (822, 682), (823, 697), (826, 718), (831, 745), (842, 794), (846, 816), (849, 834), (853, 845), (857, 864), (858, 871), (859, 876), (859, 879), (859, 883), (859, 884), (859, 885), (859, 886), (859, 888), (859, 890), (858, 893), (856, 898), (851, 914), (848, 925)]",106.22019369560279,"[8, 2, 4, 6, 3, 5, 7, 9, 1]","(0, 0.25)",DOT009B,DOT,B,English,Wed Aug 29 13:11:08 2018,Mouse
1,3,2,0,83,2,2,1,751,301,450,136,0,500,200,8000,"[(960, 540), (960, 540), (960, 540), (960, 540), (960, 540), (960, 540), (960, 540), (960, 540), (960, 540), (960, 540), (960, 540), (960, 540), (960, 540), (960, 540), (960, 540), (960, 540), (960, 540), (960, 540), (960, 540), (960, 540), (960, 540), (960, 540), (960, 540), (960, 540), (960, 540), (960, 540), (960, 540), (960, 540), (960, 540), (960, 540), (959, 540), (959, 540), (958, 542), (958, 545), (958, 553), (958, 558), (959, 561), (961, 567), (970, 579), (976, 589), (982, 598), (991, 607), (1013, 627), (1025, 635), (1035, 642), (1043, 647), (1059, 658), (1065, 664), (1071, 669), (1076, 673), (1087, 685), (1095, 694), (1100, 700), (1106, 709), (1113, 725), (1117, 735), (1119, 742), (1123, 751), (1128, 768), (1129, 774), (1130, 781), (1133, 787), (1137, 801), (1139, 809), (1140, 812), (1143, 817), (1144, 824), (1146, 829), (1146, 833), (1147, 839), (1148, 850), (1149, 860), (1151, 869), (1152, 877), (1156, 888), (1158, 894)]",60.7807533095154,"[8, 2, 4, 6, 3, 5, 7, 9, 1]","(0, 0.25)",DOT009B,DOT,B,English,Wed Aug 29 13:11:08 2018,Mouse
1,3,2,0,84,9,9,1,481,121,360,136,0,500,200,8000,"[(960, 540), (960, 540), (960, 540), (960, 540), (960, 540), (960, 540), (960, 540), (960, 540), (960, 540), (960, 540), (960, 540), (960, 540), (962, 536), (962, 530), (963, 523), (963, 520), (963, 516), (963, 513), (963, 510), (963, 509), (963, 508), (963, 507), (963, 507), (963, 506), (963, 504), (963, 503), (964, 502), (964, 500), (964, 500), (966, 497), (972, 482), (976, 475), (982, 467), (988, 458), (1005, 435), (1013, 423), (1020, 413), (1030, 397), (1050, 362), (1059, 346), (1068, 328), (1081, 308), (1102, 271), (1109, 260), (1116, 243), (1128, 226), (1142, 199), (1148, 189), (1153, 181)]",298.26267283408515,"[8, 2, 4, 6, 3, 5, 7, 9, 1]","(0, 0.25)",DOT009B,DOT,B,English,Wed Aug 29 13:11:08 2018,Mouse
1,3,2,0,85,6,6,1,1180,240,940,135,0,500,200,8000,"[(960, 540), (960, 540), (960, 540), (960, 540), (960, 540), (960, 540), (960, 540), (960, 540), (960, 540), (960, 540), (960, 540), (960, 540), (960, 540), (960, 540), (960, 540), (960, 540), (960, 540), (960, 540), (960, 540), (960, 540), (960, 540), (960, 540), (960, 540), (959, 540), (958, 540), (958, 540), (958, 540), (958, 540), (958, 540), (958, 540), (958, 540), (958, 540), (958, 540), (957, 540), (955, 537), (952, 530), (941, 515), (937, 509), (932, 501), (929, 495), (919, 474), (914, 463), (910, 453), (905, 443), (902, 426), (900, 419), (899, 408), (899, 399), (897, 380), (894, 370), (894, 357), (894, 345), (894, 318), (894, 304), (894, 293), (894, 282), (892, 267), (891, 261), (889, 256), (889, 256), (889, 256), (889, 256), (889, 256), (889, 256), (889, 256), (889, 256), (889, 256), (888, 256), (888, 256), (887, 257), (887, 257), (886, 258), (886, 258), (886, 258), (886, 258), (886, 258), (886, 258), (886, 258), (886, 258), (886, 258), (886, 258), (886, 258), (886, 258), (886, 258), (886, 258), (886, 258), (886, 258), (886, 258), (886, 258), (886, 258), (886, 259), (886, 260), (886, 262), (886, 262), (886, 263), (885, 264), (885, 266), (885, 267), (885, 267), (885, 267), (885, 269), (885, 269), (885, 269), (885, 270), (883, 272), (883, 273), (882, 276), (881, 279), (871, 298), (862, 315), (847, 342), (832, 367), (775, 458), (744, 515), (711, 575), (681, 622), (625, 723), (600, 764)]",148.1092081981543,"[8, 2, 4, 6, 3, 5, 7, 9, 1]","(0, 0.25)",DOT009B,DOT,B,English,Wed Aug 29 13:11:08 2018,Mouse
