NativeLangNumber,LanuageNumber,SessionNumber,Block,TrialNum,ConditionNumber,Response,Accuracy,RT,MovementOnsetTime,TimeInMotion,SignalContrast,SignalContrastNumber,StimDisplayTime,MaskTime,MaxResponseTime,MousePositionXY,MouseAngle,WheelOrder,NoiseMuSigma,ParticipantID,LanuageTested,SessionTested,NativeLanuage,Date,ResponseDevice
2,3,2,0,1,9,9,1,1063,513,550,153,0,500,200,8000,"[(512, 384), (512, 384), (512, 384), (512, 384), (512, 384), (512, 384), (512, 384), (512, 384), (512, 384), (512, 384), (512, 384), (512, 384), (512, 384), (512, 384), (512, 384), (512, 384), (512, 384), (512, 384), (512, 384), (512, 384), (512, 384), (512, 384), (512, 384), (512, 384), (512, 384), (512, 384), (512, 384), (512, 384), (512, 384), (512, 384), (512, 384), (512, 384), (512, 384), (512, 384), (512, 384), (512, 384), (512, 384), (512, 384), (512, 384), (512, 384), (512, 384), (512, 384), (512, 384), (512, 384), (512, 384), (512, 384), (512, 384), (512, 384), (512, 384), (512, 384), (512, 384), (513, 384), (514, 384), (514, 384), (514, 384), (515, 384), (516, 384), (518, 384), (518, 384), (519, 384), (520, 384), (521, 384), (521, 384), (524, 384), (525, 384), (527, 384), (528, 384), (536, 383), (539, 383), (540, 382), (543, 382), (546, 379), (546, 379), (546, 379), (547, 379), (549, 379), (550, 379), (552, 377), (556, 376), (563, 375), (567, 373), (571, 372), (574, 371), (578, 369), (582, 367), (583, 367), (585, 366), (590, 363), (596, 360), (601, 358), (609, 354), (627, 344), (637, 339), (647, 336), (655, 332), (669, 327), (676, 323), (681, 322), (688, 318), (699, 314), (704, 313), (709, 311), (718, 308), (736, 302), (740, 301), (747, 300), (754, 297)]",340.2262791156192,"[2, 1, 6, 3, 4, 5, 7, 8, 9]","(0, 0.25)",DOT005B,DOT,B,Chinese,Thu Aug 16 11:00:29 2018,Mouse
2,3,2,0,2,2,2,1,652,172,480,153,0,500,200,8000,"[(512, 384), (512, 384), (512, 384), (512, 384), (512, 384), (512, 384), (512, 384), (512, 384), (512, 384), (512, 384), (512, 384), (512, 384), (512, 384), (512, 384), (512, 384), (512, 384), (512, 384), (512, 385), (512, 387), (512, 387), (512, 388), (513, 391), (514, 391), (515, 392), (515, 393), (518, 395), (521, 396), (523, 397), (525, 398), (528, 400), (529, 401), (530, 402), (531, 402), (532, 403), (534, 404), (535, 405), (536, 405), (539, 406), (544, 409), (547, 410), (550, 410), (559, 413), (566, 415), (571, 417), (576, 419), (588, 425), (593, 428), (598, 430), (605, 434), (613, 438), (620, 441), (623, 443), (632, 446), (649, 450), (659, 453), (670, 454), (678, 456), (693, 459), (696, 460), (699, 462), (704, 463), (714, 467), (719, 469), (725, 472), (734, 476), (747, 482)]",22.637174850689938,"[2, 1, 6, 3, 4, 5, 7, 8, 9]","(0, 0.25)",DOT005B,DOT,B,Chinese,Thu Aug 16 11:00:29 2018,Mouse
2,3,2,0,3,1,1,1,2092,542,1550,152,0,500,200,8000,"[(512, 384), (512, 384), (512, 384), (512, 384), (512, 384), (512, 384), (512, 384), (512, 384), (512, 384), (512, 384), (512, 384), (512, 384), (512, 384), (512, 384), (512, 384), (512, 384), (512, 384), (512, 384), (512, 384), (512, 384), (512, 384), (512, 384), (512, 384), (512, 384), (512, 384), (512, 384), (512, 384), (512, 384), (512, 384), (512, 384), (512, 384), (512, 384), (512, 384), (512, 384), (512, 384), (512, 384), (512, 384), (512, 384), (512, 384), (512, 384), (512, 384), (512, 384), (512, 384), (512, 384), (512, 384), (512, 384), (512, 384), (512, 384), (512, 384), (512, 384), (512, 384), (512, 384), (512, 384), (512, 384), (514, 384), (514, 384), (514, 384), (514, 384), (514, 384), (514, 384), (514, 384), (515, 384), (515, 384), (515, 384), (515, 384), (515, 384), (515, 384), (515, 384), (515, 384), (515, 384), (515, 384), (515, 384), (515, 384), (515, 384), (515, 384), (515, 384), (515, 384), (515, 384), (515, 384), (515, 384), (515, 384), (515, 384), (515, 384), (515, 384), (516, 384), (517, 384), (518, 384), (518, 384), (518, 384), (519, 384), (522, 387), (522, 387), (522, 388), (523, 390), (524, 392), (524, 392), (524, 392), (524, 392), (525, 393), (526, 394), (526, 394), (526, 395), (526, 397), (526, 397), (528, 398), (528, 400), (528, 400), (528, 401), (529, 402), (529, 403), (530, 405), (530, 405), (531, 406), (531, 407), (531, 407), (532, 408), (532, 409), (532, 410), (532, 410), (534, 412), (534, 413), (536, 416), (537, 418), (539, 420), (539, 422), (542, 427), (545, 430), (546, 432), (547, 436), (554, 445), (559, 450), (561, 454), (564, 460), (568, 468), (571, 473), (574, 479), (577, 485), (583, 497), (586, 503), (589, 509), (589, 510), (589, 513), (593, 515), (593, 518), (599, 524), (603, 538), (600, 549), (599, 552), (599, 552), (599, 552), (599, 552), (599, 552), (599, 552), (599, 552), (599, 552), (599, 552), (599, 552), (599, 552), (599, 552), (599, 552), (599, 552), (599, 552), (599, 552), (599, 552), (599, 552), (599, 552), (599, 552), (599, 552), (599, 552), (599, 552), (599, 552), (599, 552), (599, 552), (599, 552), (599, 552), (599, 552), (599, 552), (599, 552), (599, 552), (599, 552), (599, 552), (599, 552), (599, 552), (599, 552), (599, 552), (599, 552), (599, 552), (599, 552), (599, 552), (599, 552), (599, 552), (599, 552), (599, 552), (599, 552), (597, 553), (597, 553), (597, 555), (594, 561), (593, 565), (591, 570), (589, 573), (588, 583), (588, 588), (588, 591), (588, 595), (588, 602), (588, 606), (589, 610), (591, 616), (594, 622)]",70.989233583833,"[2, 1, 6, 3, 4, 5, 7, 8, 9]","(0, 0.25)",DOT005B,DOT,B,Chinese,Thu Aug 16 11:00:29 2018,Mouse
2,3,2,0,4,3,3,1,1382,632,750,151,0,500,200,8000,"[(512, 384), (512, 384), (512, 384), (512, 384), (512, 384), (512, 384), (512, 384), (512, 384), (512, 384), (512, 384), (512, 384), (512, 384), (512, 384), (512, 384), (512, 384), (512, 384), (512, 384), (512, 384), (512, 384), (512, 384), (512, 384), (512, 384), (512, 384), (512, 384), (512, 384), (512, 384), (512, 384), (512, 384), (512, 384), (512, 384), (512, 384), (512, 384), (512, 384), (512, 384), (512, 384), (512, 384), (512, 384), (512, 384), (512, 384), (512, 384), (512, 384), (512, 384), (512, 384), (512, 384), (512, 384), (512, 384), (512, 384), (512, 384), (512, 384), (512, 384), (512, 384), (512, 384), (512, 384), (512, 384), (512, 384), (512, 384), (512, 384), (512, 384), (512, 384), (512, 384), (512, 384), (512, 384), (512, 384), (512, 383), (512, 382), (512, 382), (512, 381), (512, 379), (512, 378), (512, 378), (512, 376), (512, 374), (512, 373), (512, 373), (512, 371), (512, 371), (512, 369), (511, 368), (511, 367), (511, 365), (511, 362), (511, 361), (511, 360), (511, 358), (511, 358), (511, 356), (511, 356), (511, 356), (511, 356), (511, 356), (511, 356), (511, 356), (511, 356), (511, 356), (511, 356), (511, 356), (511, 356), (511, 356), (511, 356), (511, 356), (511, 356), (511, 356), (511, 356), (511, 356), (511, 356), (509, 356), (508, 357), (508, 358), (504, 363), (503, 364), (500, 369), (496, 372), (494, 373), (491, 374), (490, 375), (485, 379), (483, 379), (482, 381), (478, 383), (475, 385), (463, 392), (455, 395), (445, 401), (439, 405), (420, 414), (414, 419), (405, 424), (398, 432), (387, 444), (383, 452), (377, 461), (373, 471), (365, 487), (360, 497), (354, 507), (349, 516), (336, 539), (328, 552), (322, 562)]",136.86767883943418,"[2, 1, 6, 3, 4, 5, 7, 8, 9]","(0, 0.25)",DOT005B,DOT,B,Chinese,Thu Aug 16 11:00:29 2018,Mouse
2,3,2,0,5,9,9,1,722,92,630,150,0,500,200,8000,"[(512, 384), (512, 384), (512, 384), (512, 384), (512, 384), (512, 384), (512, 384), (512, 384), (512, 384), (513, 384), (513, 384), (513, 384), (513, 384), (513, 384), (513, 384), (513, 384), (513, 384), (513, 384), (513, 384), (513, 384), (513, 384), (513, 384), (513, 384), (513, 384), (513, 384), (513, 384), (513, 384), (513, 384), (513, 384), (513, 384), (513, 384), (513, 384), (513, 384), (513, 384), (513, 384), (513, 384), (513, 384), (513, 384), (513, 384), (513, 384), (513, 384), (513, 384), (513, 384), (513, 384), (513, 384), (513, 384), (513, 384), (514, 384), (514, 384), (520, 383), (524, 382), (528, 382), (534, 381), (549, 380), (557, 378), (565, 377), (572, 376), (590, 372), (596, 371), (606, 367), (613, 365), (630, 361), (640, 359), (649, 354), (657, 351), (680, 344), (688, 341), (695, 338), (704, 334), (723, 326), (733, 322), (744, 317), (754, 313)]",343.6489218079925,"[2, 1, 6, 3, 4, 5, 7, 8, 9]","(0, 0.25)",DOT005B,DOT,B,Chinese,Thu Aug 16 11:00:29 2018,Mouse
2,3,2,0,6,5,5,1,2616,2006,610,149,0,500,200,8000,"[(512, 384), (512, 384), (512, 384), (512, 384), (512, 384), (512, 384), (512, 384), (512, 384), (512, 384), (512, 384), (512, 384), (512, 384), (512, 384), (512, 384), (512, 384), (512, 384), (512, 384), (512, 384), (512, 384), (512, 384), (512, 384), (512, 384), (512, 384), (512, 384), (512, 384), (512, 384), (512, 384), (512, 384), (512, 384), (512, 384), (512, 384), (512, 384), (512, 384), (512, 384), (512, 384), (512, 384), (512, 384), (512, 384), (512, 384), (512, 384), (512, 384), (512, 384), (512, 384), (512, 384), (512, 384), (512, 384), (512, 384), (512, 384), (512, 384), (512, 384), (512, 384), (512, 384), (512, 384), (512, 384), (512, 384), (512, 384), (512, 384), (512, 384), (512, 384), (512, 384), (512, 384), (512, 384), (512, 384), (512, 384), (512, 384), (512, 384), (512, 384), (512, 384), (512, 384), (512, 384), (512, 384), (512, 384), (512, 384), (512, 384), (512, 384), (512, 384), (512, 384), (512, 384), (512, 384), (512, 384), (512, 384), (512, 384), (512, 384), (512, 384), (512, 384), (512, 384), (512, 384), (512, 384), (512, 384), (512, 384), (512, 384), (512, 384), (512, 384), (512, 384), (512, 384), (512, 384), (512, 384), (512, 384), (512, 384), (512, 384), (512, 384), (512, 384), (512, 384), (512, 384), (512, 384), (512, 384), (512, 384), (512, 384), (512, 384), (512, 384), (512, 384), (512, 384), (512, 384), (512, 384), (512, 384), (512, 384), (512, 384), (512, 384), (512, 384), (512, 384), (512, 384), (512, 384), (512, 384), (512, 384), (512, 384), (512, 384), (512, 384), (512, 384), (512, 384), (512, 384), (512, 384), (512, 384), (512, 384), (512, 384), (512, 384), (512, 384), (512, 384), (512, 384), (512, 384), (512, 384), (512, 384), (512, 384), (512, 384), (512, 384), (512, 384), (512, 384), (512, 384), (512, 384), (512, 384), (512, 384), (512, 384), (512, 384), (512, 384), (512, 384), (512, 384), (512, 384), (512, 384), (512, 384), (512, 384), (512, 384), (512, 384), (512, 384), (512, 384), (512, 384), (512, 384), (512, 384), (512, 384), (512, 384), (512, 384), (512, 384), (512, 384), (512, 384), (512, 384), (512, 384), (512, 384), (512, 384), (512, 384), (512, 384), (512, 384), (512, 384), (512, 384), (512, 384), (512, 384), (512, 384), (512, 384), (512, 384), (512, 384), (512, 384), (512, 384), (512, 384), (512, 384), (512, 384), (512, 384), (512, 384), (512, 384), (512, 384), (512, 384), (512, 384), (512, 384), (512, 384), (511, 384), (511, 384), (511, 384), (510, 384), (509, 384), (508, 384), (507, 384), (506, 383), (503, 381), (501, 379), (496, 377), (494, 376), (487, 372), (483, 370), (478, 367), (476, 365), (472, 362), (469, 359), (466, 356), (464, 353), (457, 344), (454, 339), (451, 333), (448, 327), (439, 316), (436, 312), (432, 308), (430, 306), (425, 301), (424, 300), (421, 297), (419, 296), (415, 294), (410, 291), (404, 289), (398, 285), (384, 280), (377, 276), (372, 274), (366, 271), (364, 269), (360, 267), (360, 265), (358, 263), (354, 258), (352, 256), (349, 254), (345, 251), (341, 247), (340, 246), (336, 244), (336, 243), (334, 242), (332, 240), (332, 240), (330, 239), (327, 238), (325, 236), (324, 235), (322, 235), (318, 232), (312, 229)]",217.77568430595466,"[2, 1, 6, 3, 4, 5, 7, 8, 9]","(0, 0.25)",DOT005B,DOT,B,Chinese,Thu Aug 16 11:00:29 2018,Mouse
2,3,2,0,7,3,3,1,1355,66,1289,148,0,500,200,8000,"[(512, 384), (512, 384), (512, 384), (512, 384), (512, 384), (512, 384), (513, 385), (513, 385), (513, 385), (513, 385), (513, 385), (513, 385), (513, 385), (513, 385), (513, 385), (513, 385), (514, 385), (514, 385), (514, 385), (514, 385), (514, 385), (515, 386), (515, 386), (516, 386), (517, 388), (517, 388), (518, 389), (518, 389), (519, 390), (519, 390), (521, 391), (521, 392), (521, 392), (521, 392), (521, 393), (521, 393), (521, 394), (521, 394), (521, 396), (521, 397), (522, 398), (522, 399), (523, 399), (523, 400), (523, 400), (524, 401), (524, 402), (525, 403), (526, 403), (526, 403), (527, 404), (527, 405), (527, 405), (529, 406), (529, 406), (529, 406), (529, 406), (529, 406), (530, 406), (530, 406), (530, 406), (530, 406), (530, 406), (530, 406), (530, 406), (530, 406), (530, 406), (530, 406), (530, 406), (530, 406), (530, 406), (530, 406), (530, 406), (530, 406), (530, 406), (529, 407), (527, 407), (526, 407), (525, 408), (523, 408), (523, 408), (523, 408), (523, 408), (520, 409), (518, 410), (514, 411), (507, 411), (495, 414), (488, 414), (482, 415), (478, 415), (473, 415), (470, 416), (470, 416), (469, 416), (469, 416), (468, 416), (468, 416), (467, 416), (466, 417), (465, 417), (464, 418), (463, 419), (456, 422), (454, 423), (452, 424), (449, 426), (443, 429), (441, 431), (438, 433), (434, 436), (429, 440), (423, 444), (419, 448), (414, 453), (402, 464), (398, 469), (391, 476), (390, 479), (386, 486), (384, 489), (383, 492), (381, 495), (374, 503), (368, 508), (362, 515), (357, 519), (345, 529), (340, 534), (335, 536), (331, 539), (327, 541), (325, 543), (325, 543), (322, 545), (317, 547)]",140.10783585601277,"[2, 1, 6, 3, 4, 5, 7, 8, 9]","(0, 0.25)",DOT005B,DOT,B,Chinese,Thu Aug 16 11:00:29 2018,Mouse
2,3,2,0,8,6,6,1,1905,985,920,147,0,500,200,8000,"[(512, 384), (512, 384), (512, 384), (512, 384), (512, 384), (512, 384), (512, 384), (512, 384), (512, 384), (512, 384), (512, 384), (512, 384), (512, 384), (512, 384), (512, 384), (512, 384), (512, 384), (512, 384), (512, 384), (512, 384), (512, 384), (512, 384), (512, 384), (512, 384), (512, 384), (512, 384), (512, 384), (512, 384), (512, 384), (512, 384), (512, 384), (512, 384), (512, 384), (512, 384), (512, 384), (512, 384), (512, 384), (512, 384), (512, 384), (512, 384), (512, 384), (512, 384), (512, 384), (512, 384), (512, 384), (512, 384), (512, 384), (512, 384), (512, 384), (512, 384), (512, 384), (512, 384), (512, 384), (512, 384), (512, 384), (512, 384), (512, 384), (512, 384), (512, 384), (512, 384), (512, 384), (512, 384), (512, 384), (512, 384), (512, 384), (512, 384), (512, 384), (512, 384), (512, 384), (512, 384), (512, 384), (512, 384), (512, 384), (512, 384), (512, 384), (512, 384), (512, 384), (512, 384), (512, 384), (512, 384), (512, 384), (512, 384), (512, 384), (512, 384), (512, 384), (512, 384), (512, 384), (512, 384), (512, 384), (512, 384), (512, 384), (512, 384), (512, 384), (512, 384), (512, 384), (512, 384), (512, 384), (512, 384), (514, 384), (514, 383), (515, 383), (515, 383), (516, 382), (516, 382), (516, 382), (516, 382), (516, 382), (516, 382), (516, 382), (516, 382), (516, 382), (516, 382), (516, 382), (516, 382), (516, 382), (516, 382), (516, 382), (516, 382), (516, 382), (516, 382), (516, 382), (516, 382), (516, 382), (516, 382), (516, 382), (516, 382), (516, 382), (516, 382), (516, 382), (516, 382), (516, 382), (516, 382), (516, 382), (516, 382), (516, 382), (516, 382), (516, 382), (516, 382), (516, 382), (516, 382), (516, 382), (516, 382), (516, 382), (516, 385), (515, 388), (514, 390), (513, 392), (510, 399), (509, 402), (507, 408), (505, 417), (505, 423), (505, 429), (505, 433), (504, 442), (504, 446), (504, 448), (504, 451), (502, 456), (501, 458), (500, 461), (500, 464), (500, 466), (497, 475), (496, 479), (496, 483), (493, 491), (492, 494), (492, 497), (492, 500), (492, 503), (492, 507), (491, 510), (491, 512), (489, 516), (489, 522), (489, 526), (489, 531), (489, 541), (489, 547), (489, 549), (488, 552), (487, 555), (484, 564), (483, 569), (480, 576), (479, 585), (472, 607), (471, 618), (469, 629), (468, 639)]",99.78993109998636,"[2, 1, 6, 3, 4, 5, 7, 8, 9]","(0, 0.25)",DOT005B,DOT,B,Chinese,Thu Aug 16 11:00:29 2018,Mouse
2,3,2,0,9,6,6,1,992,282,710,146,0,500,200,8000,"[(512, 384), (512, 384), (512, 384), (512, 384), (512, 384), (512, 384), (512, 384), (512, 384), (512, 384), (512, 384), (512, 384), (512, 384), (512, 384), (512, 384), (512, 384), (512, 384), (512, 384), (512, 384), (512, 384), (512, 384), (512, 384), (512, 384), (512, 384), (512, 384), (512, 384), (512, 384), (512, 384), (512, 384), (512, 385), (512, 388), (511, 392), (510, 395), (508, 402), (508, 405), (508, 409), (507, 412), (506, 419), (505, 422), (505, 426), (504, 429), (503, 438), (503, 441), (502, 445), (502, 449), (502, 458), (502, 461), (502, 465), (502, 468), (502, 475), (502, 478), (502, 481), (502, 482), (502, 489), (502, 492), (502, 493), (502, 496), (502, 499), (502, 499), (502, 500), (500, 504), (498, 510), (498, 514), (495, 519), (494, 525), (493, 535), (491, 541), (491, 549), (490, 555), (488, 568), (488, 572), (487, 573), (486, 576), (485, 579), (485, 580), (485, 580), (485, 580), (485, 581), (485, 583), (485, 583), (485, 584), (485, 587), (485, 589), (485, 591), (485, 593), (484, 597), (484, 598), (484, 600), (484, 601), (483, 604), (482, 607), (482, 608), (481, 611), (479, 617), (479, 619), (479, 620), (478, 622), (477, 627), (477, 629), (476, 631), (475, 633)]",98.4519853695547,"[2, 1, 6, 3, 4, 5, 7, 8, 9]","(0, 0.25)",DOT005B,DOT,B,Chinese,Thu Aug 16 11:00:29 2018,Mouse
2,3,2,0,10,1,1,1,852,302,550,145,0,500,200,8000,"[(512, 384), (512, 384), (512, 384), (512, 384), (512, 384), (512, 384), (512, 384), (512, 384), (512, 384), (512, 384), (512, 384), (512, 384), (512, 384), (512, 384), (512, 384), (512, 384), (512, 384), (512, 384), (512, 384), (512, 384), (512, 384), (512, 384), (512, 384), (512, 384), (512, 384), (512, 384), (512, 384), (512, 384), (512, 384), (512, 384), (515, 386), (520, 392), (523, 397), (529, 407), (531, 410), (533, 414), (535, 416), (541, 422), (542, 423), (543, 425), (544, 427), (547, 430), (549, 431), (549, 432), (552, 435), (554, 438), (557, 442), (557, 444), (560, 446), (562, 452), (566, 456), (567, 459), (571, 464), (575, 472), (578, 477), (578, 480), (580, 484), (585, 493), (587, 498), (588, 501), (589, 503), (593, 510), (596, 514), (598, 518), (599, 522), (602, 529), (602, 533), (605, 538), (605, 540), (609, 549), (610, 550), (611, 555), (614, 559), (616, 567), (618, 569), (618, 572), (619, 575), (621, 582), (622, 583), (623, 586), (623, 588), (627, 594), (627, 597), (629, 600), (630, 603), (633, 608)]",61.62303281377222,"[2, 1, 6, 3, 4, 5, 7, 8, 9]","(0, 0.25)",DOT005B,DOT,B,Chinese,Thu Aug 16 11:00:29 2018,Mouse
2,3,2,0,11,7,7,1,2792,1242,1550,144,0,500,200,8000,"[(512, 384), (512, 384), (512, 384), (512, 384), (512, 384), (512, 384), (512, 384), (512, 384), (512, 384), (512, 384), (512, 384), (512, 384), (512, 384), (512, 384), (512, 384), (512, 384), (512, 384), (512, 384), (512, 384), (512, 384), (512, 384), (512, 384), (512, 384), (512, 384), (512, 384), (512, 384), (512, 384), (512, 384), (512, 384), (512, 384), (512, 384), (512, 384), (512, 384), (512, 384), (512, 384), (512, 384), (512, 384), (512, 384), (512, 384), (512, 384), (512, 384), (512, 384), (512, 384), (512, 384), (512, 384), (512, 384), (512, 384), (512, 384), (512, 384), (512, 384), (512, 384), (512, 384), (512, 384), (512, 384), (512, 384), (512, 384), (512, 384), (512, 384), (512, 384), (512, 384), (512, 384), (512, 384), (512, 384), (512, 384), (512, 384), (512, 384), (512, 384), (512, 384), (512, 384), (512, 384), (512, 384), (512, 384), (512, 384), (512, 384), (512, 384), (512, 384), (512, 384), (512, 384), (512, 384), (512, 384), (512, 384), (512, 384), (512, 384), (512, 384), (512, 384), (512, 384), (512, 384), (512, 384), (512, 384), (512, 384), (512, 384), (512, 384), (512, 384), (512, 384), (512, 384), (512, 384), (512, 384), (512, 384), (512, 384), (512, 384), (512, 384), (512, 384), (512, 384), (512, 384), (512, 384), (512, 384), (512, 384), (512, 384), (512, 384), (512, 384), (512, 384), (512, 384), (512, 384), (512, 384), (512, 384), (512, 384), (512, 384), (512, 384), (512, 384), (512, 384), (512, 384), (512, 384), (512, 384), (512, 384), (510, 383), (508, 382), (507, 381), (505, 380), (504, 380), (502, 380), (501, 378), (501, 378), (501, 378), (500, 377), (500, 377), (499, 377), (498, 377), (497, 377), (495, 377), (495, 377), (492, 377), (492, 377), (492, 377), (492, 377), (491, 377), (490, 377), (490, 377), (489, 377), (488, 377), (488, 377), (487, 377), (487, 377), (485, 377), (484, 378), (483, 381), (482, 382), (480, 387), (479, 390), (479, 392), (479, 396), (478, 402), (478, 404), (478, 407), (478, 409), (478, 415), (478, 417), (478, 421), (479, 423), (480, 427), (480, 431), (482, 434), (483, 435), (483, 442), (484, 444), (486, 448), (487, 451), (488, 459), (490, 461), (490, 463), (490, 467), (490, 471), (490, 471), (490, 473), (490, 473), (490, 474), (490, 474), (490, 474), (490, 474), (490, 474), (490, 474), (490, 474), (490, 474), (490, 474), (490, 474), (490, 474), (490, 474), (490, 474), (490, 474), (490, 474), (490, 470), (490, 467), (490, 466), (491, 460), (492, 457), (497, 444), (497, 442), (497, 442), (497, 442), (497, 442), (497, 442), (497, 442), (497, 442), (497, 442), (497, 442), (497, 442), (497, 442), (497, 442), (497, 442), (497, 442), (497, 442), (497, 442), (497, 442), (497, 442), (497, 442), (497, 442), (497, 442), (497, 442), (497, 442), (497, 442), (497, 442), (497, 442), (497, 442), (497, 442), (497, 442), (497, 442), (497, 442), (497, 442), (497, 442), (497, 442), (497, 442), (497, 442), (497, 442), (497, 442), (497, 442), (497, 442), (497, 442), (497, 442), (497, 442), (497, 440), (497, 437), (496, 434), (494, 429), (490, 420), (488, 414), (486, 408), (483, 399), (476, 383), (472, 375), (468, 366), (464, 356), (454, 336), (450, 327), (447, 320), (446, 312), (443, 292), (441, 284), (437, 273), (435, 265), (431, 247), (429, 240), (426, 233), (425, 227), (422, 213), (421, 207), (421, 200), (421, 190), (421, 175), (421, 166), (421, 156), (422, 148)]",249.12535317354997,"[2, 1, 6, 3, 4, 5, 7, 8, 9]","(0, 0.25)",DOT005B,DOT,B,Chinese,Thu Aug 16 11:00:29 2018,Mouse
2,3,2,0,12,8,8,1,1342,332,1010,143,0,500,200,8000,"[(512, 384), (512, 384), (512, 384), (512, 384), (512, 384), (512, 384), (512, 384), (512, 384), (512, 384), (512, 384), (512, 384), (512, 384), (512, 384), (512, 384), (512, 384), (512, 384), (512, 384), (512, 384), (512, 384), (512, 384), (512, 384), (512, 384), (512, 384), (512, 384), (512, 384), (512, 384), (512, 384), (512, 384), (512, 384), (512, 384), (512, 384), (512, 384), (512, 384), (515, 383), (528, 373), (535, 366), (543, 359), (549, 355), (563, 345), (568, 341), (575, 333), (578, 331), (585, 322), (588, 317), (592, 311), (595, 308), (602, 295), (608, 288), (610, 284), (614, 279), (620, 271), (622, 269), (625, 264), (627, 262), (630, 257), (632, 255), (633, 252), (634, 251), (637, 248), (638, 246), (638, 245), (639, 244), (640, 242), (640, 241), (641, 240), (641, 240), (642, 238), (642, 237), (642, 237), (643, 234), (644, 233), (644, 231), (644, 230), (645, 229), (645, 228), (645, 226), (645, 226), (645, 224), (646, 222), (646, 222), (646, 221), (646, 220), (646, 218), (646, 217), (646, 217), (646, 216), (646, 214), (646, 214), (646, 213), (646, 211), (647, 209), (647, 207), (648, 205), (648, 204), (648, 202), (648, 201), (649, 198), (649, 198), (649, 197), (649, 196), (650, 195), (650, 195), (650, 195), (650, 195), (650, 195), (650, 194), (650, 193), (650, 193), (650, 193), (650, 193), (651, 191), (651, 191), (651, 191), (651, 191), (651, 191), (651, 191), (651, 191), (651, 191), (651, 191), (651, 191), (651, 191), (653, 191), (653, 191), (653, 191), (654, 190), (654, 190), (654, 190), (654, 190), (655, 188), (655, 188), (657, 186), (658, 185), (658, 184), (659, 184), (660, 182)]",306.22923671726784,"[2, 1, 6, 3, 4, 5, 7, 8, 9]","(0, 0.25)",DOT005B,DOT,B,Chinese,Thu Aug 16 11:00:29 2018,Mouse
2,3,2,0,13,8,8,1,1012,252,760,142,0,500,200,8000,"[(512, 384), (512, 384), (512, 384), (512, 384), (512, 384), (512, 384), (512, 384), (512, 384), (512, 384), (512, 384), (512, 384), (512, 384), (512, 384), (512, 384), (512, 384), (512, 384), (512, 384), (512, 384), (512, 384), (512, 384), (512, 384), (512, 384), (512, 384), (512, 384), (512, 384), (513, 382), (514, 382), (514, 378), (515, 377), (516, 375), (517, 372), (519, 368), (521, 364), (522, 362), (523, 360), (525, 355), (526, 354), (527, 352), (528, 349), (529, 347), (531, 342), (533, 340), (533, 338), (536, 331), (537, 329), (538, 327), (541, 324), (544, 317), (546, 315), (548, 311), (550, 307), (556, 297), (560, 292), (564, 285), (568, 279), (574, 270), (576, 266), (578, 262), (580, 258), (582, 254), (585, 253), (585, 252), (586, 249), (587, 247), (589, 246), (589, 245), (590, 244), (591, 241), (593, 240), (594, 238), (597, 235), (600, 232), (601, 230), (602, 229), (604, 226), (607, 222), (609, 219), (610, 217), (612, 215), (616, 209), (618, 206), (619, 204), (622, 201), (625, 197), (625, 196), (625, 194), (627, 193), (628, 192), (628, 191), (628, 189), (629, 189), (631, 186), (631, 185), (632, 183), (633, 181), (635, 179), (635, 177), (636, 176), (637, 175), (639, 172), (640, 170), (641, 169)]",300.9637565320735,"[2, 1, 6, 3, 4, 5, 7, 8, 9]","(0, 0.25)",DOT005B,DOT,B,Chinese,Thu Aug 16 11:00:29 2018,Mouse
2,3,2,0,14,6,6,1,1512,382,1130,141,0,500,200,8000,"[(512, 384), (512, 384), (512, 384), (512, 384), (512, 384), (512, 384), (512, 384), (512, 384), (512, 384), (512, 384), (512, 384), (512, 384), (512, 384), (512, 384), (512, 384), (512, 384), (512, 384), (512, 384), (512, 384), (512, 384), (512, 384), (512, 384), (512, 384), (512, 384), (512, 384), (512, 384), (512, 384), (512, 384), (512, 384), (512, 384), (512, 384), (512, 384), (512, 384), (512, 384), (512, 384), (512, 384), (512, 384), (512, 384), (512, 383), (511, 382), (511, 382), (509, 381), (508, 381), (507, 381), (506, 381), (506, 380), (504, 379), (502, 377), (500, 376), (498, 374), (495, 372), (493, 371), (493, 371), (490, 369), (489, 367), (487, 367), (486, 365), (486, 365), (484, 362), (484, 362), (483, 361), (483, 359), (482, 356), (481, 354), (481, 351), (479, 349), (478, 342), (477, 333), (477, 328), (477, 319), (477, 307), (476, 297), (474, 291), (473, 284), (472, 274), (472, 271), (472, 267), (472, 266), (472, 264), (471, 263), (470, 263), (470, 263), (470, 263), (470, 263), (470, 263), (470, 263), (470, 263), (470, 263), (470, 263), (470, 263), (469, 263), (468, 263), (468, 263), (467, 263), (466, 263), (465, 264), (465, 266), (465, 266), (465, 269), (464, 270), (464, 270), (464, 270), (463, 272), (463, 273), (463, 276), (463, 277), (462, 281), (462, 284), (462, 287), (462, 288), (462, 292), (462, 295), (462, 297), (462, 298), (460, 305), (460, 309), (459, 312), (459, 315), (459, 320), (459, 322), (459, 325), (459, 329), (459, 339), (459, 345), (459, 352), (459, 359), (459, 374), (459, 385), (459, 394), (459, 405), (459, 429), (459, 443), (459, 455), (459, 467), (459, 492), (460, 503), (461, 513), (463, 522), (467, 541), (468, 549), (468, 556), (471, 563), (473, 574), (473, 579), (473, 586), (473, 592), (473, 606), (473, 612), (473, 617), (473, 623), (473, 629), (473, 632)]",98.93703180925836,"[2, 1, 6, 3, 4, 5, 7, 8, 9]","(0, 0.25)",DOT005B,DOT,B,Chinese,Thu Aug 16 11:00:29 2018,Mouse
2,3,2,0,15,7,6,0,-808,18,790,140,0,500,200,8000,"[(511, 384), (509, 384), (509, 384), (509, 384), (509, 384), (508, 389), (507, 393), (507, 397), (507, 402), (507, 409), (507, 411), (507, 414), (507, 416), (507, 421), (507, 424), (507, 426), (505, 429), (505, 434), (505, 437), (505, 439), (504, 441), (504, 447), (504, 453), (504, 456), (504, 461), (504, 469), (503, 472), (502, 477), (502, 481), (500, 493), (500, 497), (499, 504), (498, 510), (496, 520), (495, 524), (495, 527), (494, 531), (491, 536), (490, 539), (489, 543), (487, 545), (485, 550), (483, 554), (482, 556), (479, 560), (478, 563), (478, 564), (477, 567), (475, 572), (475, 575), (473, 577), (473, 579), (472, 581), (471, 583), (470, 585), (470, 586), (470, 587), (468, 589), (468, 592), (468, 592), (468, 593), (468, 596), (468, 598), (467, 600), (467, 603), (467, 606), (467, 608), (467, 609), (467, 609), (467, 613), (467, 613), (467, 615), (467, 617), (467, 620), (467, 621), (467, 623), (467, 624), (467, 627), (467, 627), (467, 629), (468, 631)]",100.10058430556418,"[2, 1, 6, 3, 4, 5, 7, 8, 9]","(0, 0.25)",DOT005B,DOT,B,Chinese,Thu Aug 16 11:00:29 2018,Mouse
2,3,2,0,16,8,8,1,704,134,570,141,0,500,200,8000,"[(512, 384), (512, 384), (512, 384), (512, 384), (512, 384), (512, 384), (512, 384), (512, 384), (512, 384), (512, 384), (512, 384), (512, 384), (512, 384), (514, 384), (514, 384), (514, 383), (515, 382), (516, 382), (517, 381), (517, 381), (517, 381), (518, 380), (519, 379), (520, 378), (522, 374), (523, 372), (525, 369), (528, 365), (532, 357), (535, 351), (538, 348), (541, 343), (544, 335), (547, 331), (549, 327), (550, 325), (556, 316), (560, 311), (562, 308), (564, 303), (569, 295), (570, 294), (572, 290), (573, 289), (577, 284), (578, 282), (580, 279), (582, 275), (585, 267), (588, 264), (591, 258), (594, 253), (601, 241), (605, 234), (607, 231), (611, 226), (616, 217), (619, 212), (621, 207), (624, 204), (627, 198), (630, 194), (631, 192), (633, 190), (636, 186), (637, 184), (639, 181), (641, 179), (644, 175), (644, 174), (647, 170)]",302.24541439502264,"[2, 1, 6, 3, 4, 5, 7, 8, 9]","(0, 0.25)",DOT005B,DOT,B,Chinese,Thu Aug 16 11:00:29 2018,Mouse
2,3,2,0,17,3,3,1,1112,272,840,141,0,500,200,8000,"[(512, 384), (512, 384), (512, 384), (512, 384), (512, 384), (512, 384), (512, 384), (512, 384), (512, 384), (512, 384), (512, 384), (512, 384), (512, 384), (512, 384), (512, 384), (512, 384), (512, 384), (512, 384), (512, 384), (512, 384), (512, 384), (512, 384), (512, 384), (512, 384), (512, 384), (512, 384), (512, 384), (510, 385), (509, 385), (508, 385), (507, 385), (504, 385), (500, 386), (497, 387), (492, 387), (489, 387), (487, 387), (484, 387), (483, 387), (478, 387), (477, 387), (476, 387), (475, 387), (474, 387), (473, 387), (472, 387), (471, 387), (468, 387), (466, 387), (464, 387), (461, 387), (460, 387), (458, 387), (458, 387), (457, 387), (454, 387), (453, 387), (451, 387), (450, 388), (445, 388), (442, 389), (439, 389), (435, 389), (428, 389), (425, 389), (423, 389), (420, 389), (420, 389), (420, 389), (420, 389), (420, 389), (420, 389), (420, 389), (420, 389), (420, 389), (418, 389), (418, 389), (418, 389), (418, 389), (417, 391), (416, 393), (414, 395), (413, 402), (409, 407), (407, 413), (404, 420), (400, 427), (391, 439), (387, 445), (383, 451), (381, 455), (373, 467), (369, 474), (366, 479), (358, 492), (354, 498), (350, 503), (346, 508), (343, 511), (336, 521), (334, 524), (333, 527), (332, 530), (329, 534), (327, 538), (327, 538), (327, 540), (326, 542), (326, 543), (326, 544), (325, 545), (323, 548)]",139.05101091775668,"[2, 1, 6, 3, 4, 5, 7, 8, 9]","(0, 0.25)",DOT005B,DOT,B,Chinese,Thu Aug 16 11:00:29 2018,Mouse
2,3,2,0,18,3,3,1,1352,152,1200,140,0,500,200,8000,"[(512, 384), (512, 384), (512, 384), (512, 384), (512, 384), (512, 384), (512, 384), (512, 384), (512, 384), (512, 384), (512, 384), (512, 384), (512, 384), (512, 384), (512, 384), (513, 384), (515, 386), (517, 390), (519, 393), (521, 396), (522, 397), (523, 399), (525, 400), (526, 403), (527, 404), (528, 405), (529, 407), (531, 409), (531, 410), (531, 411), (533, 413), (534, 415), (535, 416), (535, 416), (535, 417), (535, 417), (536, 417), (536, 418), (536, 418), (536, 418), (536, 418), (536, 418), (536, 418), (536, 418), (536, 418), (536, 418), (536, 418), (537, 418), (537, 418), (537, 418), (537, 418), (537, 418), (537, 418), (537, 418), (537, 418), (537, 418), (537, 418), (537, 418), (537, 418), (537, 418), (537, 418), (536, 418), (533, 418), (527, 417), (521, 417), (513, 416), (501, 416), (476, 415), (464, 414), (454, 412), (443, 411), (419, 406), (410, 405), (400, 404), (389, 403), (370, 400), (360, 399), (350, 398), (339, 395), (322, 393), (314, 392), (307, 390), (300, 390), (296, 389), (296, 389), (296, 389), (296, 389), (296, 389), (296, 389), (296, 389), (296, 389), (296, 389), (296, 389), (296, 389), (296, 389), (296, 389), (296, 389), (296, 389), (296, 389), (296, 388), (297, 387), (297, 387), (298, 387), (301, 385), (301, 385), (302, 385), (302, 385), (302, 385), (302, 385), (302, 385), (302, 385), (302, 385), (302, 385), (302, 385), (302, 385), (302, 385), (302, 385), (302, 385), (303, 389), (307, 402), (307, 408), (307, 416), (307, 421), (307, 438), (307, 446), (307, 454), (307, 460), (307, 469), (307, 475), (307, 479), (306, 486), (305, 498), (304, 503), (304, 510), (302, 515), (300, 525)]",146.37234615250625,"[2, 1, 6, 3, 4, 5, 7, 8, 9]","(0, 0.25)",DOT005B,DOT,B,Chinese,Thu Aug 16 11:00:29 2018,Mouse
2,3,2,0,19,5,5,1,1162,502,660,139,0,500,200,8000,"[(512, 384), (512, 384), (512, 384), (512, 384), (512, 384), (512, 384), (512, 384), (512, 384), (512, 384), (512, 384), (512, 384), (512, 384), (512, 384), (512, 384), (512, 384), (512, 384), (512, 384), (512, 384), (512, 384), (512, 384), (512, 384), (512, 384), (512, 384), (512, 384), (512, 384), (512, 384), (512, 384), (512, 384), (512, 384), (512, 384), (512, 384), (512, 384), (512, 384), (512, 384), (512, 384), (512, 384), (512, 384), (512, 384), (512, 384), (512, 384), (512, 384), (512, 384), (512, 384), (512, 384), (512, 384), (512, 384), (512, 384), (512, 384), (512, 384), (512, 384), (513, 383), (513, 383), (513, 383), (513, 383), (513, 383), (515, 382), (519, 379), (520, 377), (522, 375), (524, 374), (526, 372), (527, 371), (528, 370), (529, 369), (533, 367), (533, 367), (533, 367), (533, 367), (533, 367), (533, 367), (534, 367), (534, 367), (534, 367), (534, 367), (534, 367), (534, 367), (534, 367), (534, 367), (534, 367), (534, 367), (534, 367), (534, 367), (534, 367), (534, 367), (534, 367), (534, 367), (534, 367), (534, 367), (534, 367), (534, 367), (534, 367), (534, 367), (534, 367), (534, 367), (534, 367), (534, 367), (534, 367), (532, 365), (531, 364), (526, 358), (517, 349), (511, 344), (505, 339), (494, 332), (473, 319), (456, 309), (438, 303), (420, 294), (384, 279), (366, 272), (353, 265), (345, 261), (331, 250), (326, 246), (322, 244), (318, 240), (306, 232)]",216.42228347498346,"[2, 1, 6, 3, 4, 5, 7, 8, 9]","(0, 0.25)",DOT005B,DOT,B,Chinese,Thu Aug 16 11:00:29 2018,Mouse
2,3,2,0,20,9,8,0,-682,342,340,138,0,500,200,8000,"[(512, 384), (512, 384), (512, 384), (512, 384), (512, 384), (512, 384), (512, 384), (512, 384), (512, 384), (512, 384), (512, 384), (512, 384), (512, 384), (512, 384), (512, 384), (512, 384), (512, 384), (512, 384), (512, 384), (512, 384), (512, 384), (512, 384), (512, 384), (512, 384), (512, 384), (512, 384), (512, 384), (512, 384), (512, 384), (512, 384), (512, 384), (512, 384), (512, 384), (512, 384), (513, 384), (516, 384), (527, 379), (535, 374), (543, 366), (552, 358), (566, 344), (575, 334), (582, 325), (589, 315), (603, 294), (610, 287), (617, 276), (621, 270), (628, 258), (631, 255), (631, 251), (634, 248), (636, 243), (637, 241), (638, 239), (638, 239), (638, 235), (639, 233), (642, 230), (643, 228), (645, 219), (646, 214), (647, 211), (650, 205), (652, 199), (652, 195), (654, 191), (655, 188), (658, 180)]",305.59077859188983,"[2, 1, 6, 3, 4, 5, 7, 8, 9]","(0, 0.25)",DOT005B,DOT,B,Chinese,Thu Aug 16 11:00:29 2018,Mouse
2,3,2,0,21,3,3,1,1242,522,720,139,0,500,200,8000,"[(512, 384), (512, 384), (512, 384), (512, 384), (512, 384), (512, 384), (512, 384), (512, 384), (512, 384), (512, 384), (512, 384), (512, 384), (512, 384), (512, 384), (512, 384), (512, 384), (512, 384), (512, 384), (512, 384), (512, 384), (512, 384), (512, 384), (512, 384), (512, 384), (512, 384), (512, 384), (512, 384), (512, 384), (512, 384), (512, 384), (512, 384), (512, 384), (512, 384), (512, 384), (512, 384), (512, 384), (512, 384), (512, 384), (512, 384), (512, 384), (512, 384), (512, 384), (512, 384), (512, 384), (512, 384), (512, 384), (512, 384), (512, 384), (512, 384), (512, 384), (512, 384), (512, 384), (513, 389), (514, 390), (517, 395), (519, 397), (524, 402), (524, 405), (526, 406), (527, 407), (529, 409), (529, 409), (531, 410), (531, 410), (531, 412), (532, 412), (532, 413), (532, 413), (532, 413), (533, 414), (533, 415), (534, 416), (535, 417), (535, 417), (535, 419), (535, 419), (537, 422), (537, 422), (537, 423), (539, 424), (540, 426), (540, 426), (540, 426), (540, 427), (540, 427), (540, 427), (540, 427), (540, 428), (540, 429), (540, 430), (540, 430), (540, 430), (540, 432), (540, 432), (540, 433), (540, 434), (538, 435), (537, 436), (535, 437), (533, 437), (528, 441), (525, 443), (520, 446), (514, 449), (497, 459), (487, 464), (478, 467), (469, 472), (453, 482), (446, 486), (440, 489), (432, 493), (417, 503), (411, 507), (408, 509), (401, 514), (390, 523), (384, 527), (379, 531), (372, 536), (359, 545), (350, 550), (344, 554), (336, 556), (318, 565)]",136.98545858451692,"[2, 1, 6, 3, 4, 5, 7, 8, 9]","(0, 0.25)",DOT005B,DOT,B,Chinese,Thu Aug 16 11:00:29 2018,Mouse
2,3,2,0,22,3,3,1,1232,153,1079,139,0,500,200,8000,"[(512, 384), (512, 384), (512, 384), (512, 384), (512, 384), (512, 384), (512, 384), (512, 384), (512, 384), (512, 384), (512, 384), (512, 384), (512, 384), (512, 384), (512, 384), (512, 383), (512, 383), (512, 383), (512, 383), (512, 383), (512, 383), (512, 383), (512, 383), (512, 383), (512, 383), (512, 383), (512, 383), (512, 383), (512, 383), (512, 383), (512, 383), (512, 383), (512, 383), (512, 383), (512, 383), (512, 383), (512, 383), (512, 383), (512, 383), (512, 383), (512, 381), (511, 381), (510, 380), (510, 380), (510, 380), (509, 378), (509, 378), (509, 378), (508, 377), (508, 377), (507, 376), (507, 376), (507, 376), (507, 376), (507, 376), (507, 376), (505, 376), (505, 376), (504, 376), (502, 376), (498, 377), (497, 378), (494, 379), (492, 379), (492, 379), (492, 379), (492, 379), (492, 379), (492, 379), (492, 379), (492, 379), (492, 379), (492, 379), (490, 381), (490, 381), (490, 381), (488, 382), (488, 384), (488, 388), (488, 389), (488, 395), (488, 397), (491, 401), (493, 404), (495, 408), (496, 410), (497, 411), (497, 411), (499, 412), (499, 412), (499, 412), (499, 412), (500, 414), (500, 414), (500, 415), (500, 417), (499, 427), (493, 435), (488, 442), (483, 447), (473, 460), (468, 465), (463, 469), (459, 471), (452, 476), (448, 478), (444, 480), (439, 483), (430, 490), (425, 493), (423, 494), (420, 496), (415, 500), (411, 501), (407, 503), (403, 506), (388, 512), (380, 515), (371, 520), (363, 523), (344, 532), (335, 534), (328, 538), (319, 543)]",140.51713597898808,"[2, 1, 6, 3, 4, 5, 7, 8, 9]","(0, 0.25)",DOT005B,DOT,B,Chinese,Thu Aug 16 11:00:29 2018,Mouse
2,3,2,0,23,2,2,1,870,360,510,138,0,500,200,8000,"[(512, 384), (512, 384), (512, 384), (512, 384), (512, 384), (512, 384), (512, 384), (512, 384), (512, 384), (512, 384), (512, 384), (512, 384), (512, 384), (512, 384), (512, 384), (512, 384), (512, 384), (512, 384), (512, 384), (512, 384), (512, 384), (512, 384), (512, 384), (512, 384), (512, 384), (512, 384), (512, 384), (512, 384), (512, 384), (512, 384), (512, 384), (512, 384), (512, 384), (512, 384), (512, 384), (512, 385), (512, 388), (512, 392), (512, 397), (512, 400), (514, 406), (516, 410), (521, 417), (522, 419), (527, 427), (527, 430), (529, 435), (530, 439), (535, 446), (538, 449), (539, 450), (540, 451), (540, 451), (540, 451), (540, 451), (540, 451), (540, 451), (540, 451), (540, 451), (540, 451), (540, 451), (540, 451), (540, 451), (542, 451), (546, 451), (550, 451), (554, 451), (561, 451), (571, 451), (575, 451), (579, 451), (585, 451), (599, 454), (609, 454), (616, 454), (625, 454), (646, 455), (657, 455), (668, 456), (679, 458), (697, 460), (706, 460), (713, 461), (723, 461), (738, 464), (747, 465), (752, 465)]",18.649538754051406,"[2, 1, 6, 3, 4, 5, 7, 8, 9]","(0, 0.25)",DOT005B,DOT,B,Chinese,Thu Aug 16 11:00:29 2018,Mouse
2,3,2,0,24,9,8,0,-652,62,590,137,0,500,200,8000,"[(512, 384), (512, 384), (512, 384), (512, 384), (512, 384), (512, 384), (512, 383), (512, 383), (513, 382), (514, 382), (516, 381), (516, 381), (518, 380), (518, 380), (520, 380), (521, 379), (521, 379), (523, 379), (524, 377), (526, 377), (526, 377), (528, 376), (533, 370), (536, 368), (538, 366), (539, 365), (544, 361), (547, 357), (549, 355), (552, 352), (556, 347), (557, 344), (560, 342), (561, 340), (564, 334), (568, 331), (570, 326), (574, 321), (582, 309), (585, 304), (588, 298), (591, 292), (596, 282), (599, 276), (602, 273), (605, 268), (610, 260), (613, 255), (616, 251), (618, 248), (622, 242), (624, 239), (626, 236), (629, 233), (634, 226), (636, 221), (639, 219), (641, 216), (646, 210), (649, 206), (652, 203), (655, 199), (659, 192), (662, 187), (663, 185), (665, 182)]",307.14122527591337,"[2, 1, 6, 3, 4, 5, 7, 8, 9]","(0, 0.25)",DOT005B,DOT,B,Chinese,Thu Aug 16 11:00:29 2018,Mouse
2,3,2,0,25,7,5,0,-971,161,810,138,0,500,200,8000,"[(512, 384), (512, 384), (512, 384), (512, 384), (512, 384), (512, 384), (512, 384), (512, 384), (512, 384), (512, 384), (512, 384), (512, 384), (512, 384), (512, 384), (512, 384), (512, 384), (511, 384), (508, 384), (506, 384), (505, 384), (503, 384), (502, 384), (501, 384), (500, 384), (499, 384), (498, 384), (497, 384), (497, 384), (496, 384), (494, 384), (493, 384), (490, 384), (490, 384), (487, 383), (486, 383), (484, 383), (482, 383), (478, 383), (477, 383), (475, 383), (473, 383), (471, 382), (470, 382), (469, 382), (468, 382), (467, 382), (466, 382), (465, 381), (464, 381), (462, 381), (462, 381), (461, 380), (460, 380), (458, 379), (457, 379), (456, 379), (456, 379), (454, 378), (454, 378), (452, 377), (452, 377), (449, 375), (446, 374), (445, 373), (444, 372), (439, 368), (437, 366), (434, 363), (432, 361), (426, 354), (425, 352), (423, 348), (420, 346), (415, 340), (413, 339), (410, 335), (407, 333), (401, 327), (400, 324), (397, 321), (394, 317), (388, 311), (385, 308), (381, 303), (377, 298), (367, 289), (360, 284), (356, 280), (352, 278), (342, 270), (340, 269), (337, 265), (333, 262), (324, 255), (318, 250), (312, 247), (307, 245), (302, 241)]",214.25299921056535,"[2, 1, 6, 3, 4, 5, 7, 8, 9]","(0, 0.25)",DOT005B,DOT,B,Chinese,Thu Aug 16 11:00:29 2018,Mouse
2,3,2,0,26,6,8,0,-962,72,890,139,0,500,200,8000,"[(512, 384), (512, 384), (512, 384), (512, 384), (512, 384), (512, 384), (512, 384), (513, 386), (513, 386), (513, 386), (514, 387), (514, 387), (514, 387), (514, 388), (514, 388), (514, 388), (514, 389), (514, 389), (514, 389), (515, 390), (515, 390), (515, 390), (515, 391), (515, 392), (515, 394), (515, 394), (515, 395), (515, 397), (515, 398), (515, 399), (515, 401), (515, 401), (517, 404), (517, 406), (517, 407), (517, 407), (518, 409), (519, 409), (519, 409), (519, 410), (520, 410), (520, 410), (522, 410), (523, 410), (526, 410), (529, 410), (532, 410), (534, 410), (540, 408), (543, 406), (546, 404), (549, 403), (557, 396), (562, 392), (566, 386), (569, 382), (577, 374), (581, 369), (586, 363), (590, 358), (601, 343), (607, 335), (613, 326), (619, 319), (631, 300), (635, 292), (641, 283), (645, 275), (651, 264), (654, 259), (655, 256), (656, 254), (658, 250), (658, 249), (658, 249), (658, 248), (659, 246), (659, 246), (659, 246), (659, 244), (660, 243), (660, 241), (661, 239), (661, 238), (661, 234), (661, 232), (661, 229), (661, 225), (661, 217), (661, 212), (661, 209), (661, 205), (662, 198), (663, 193), (664, 191), (665, 187), (668, 181)]",307.541301828694,"[2, 1, 6, 3, 4, 5, 7, 8, 9]","(0, 0.25)",DOT005B,DOT,B,Chinese,Thu Aug 16 11:00:29 2018,Mouse
2,3,2,0,27,2,2,1,1032,22,1010,140,0,500,200,8000,"[(512, 384), (512, 384), (512, 385), (512, 385), (512, 386), (512, 386), (512, 388), (512, 388), (512, 388), (512, 389), (512, 389), (512, 389), (512, 391), (511, 391), (511, 392), (511, 392), (511, 392), (511, 394), (511, 395), (511, 396), (511, 399), (511, 401), (511, 402), (511, 404), (511, 408), (511, 409), (511, 411), (511, 412), (511, 415), (511, 416), (511, 418), (511, 419), (511, 425), (511, 427), (511, 429), (511, 430), (511, 433), (511, 434), (511, 435), (511, 435), (511, 436), (511, 436), (511, 437), (511, 437), (511, 437), (511, 438), (511, 438), (511, 440), (515, 443), (517, 443), (522, 446), (523, 446), (528, 448), (533, 451), (536, 451), (541, 452), (557, 456), (566, 457), (573, 458), (583, 459), (596, 462), (602, 462), (607, 464), (611, 464), (619, 466), (621, 466), (624, 466), (626, 467), (630, 467), (633, 467), (636, 467), (642, 468), (649, 470), (656, 471), (659, 471), (662, 471), (670, 471), (673, 472), (677, 472), (681, 474), (691, 475), (696, 475), (701, 476), (705, 476), (714, 477), (717, 477), (719, 477), (720, 477), (722, 477), (723, 477), (723, 477), (723, 477), (723, 477), (723, 477), (723, 477), (724, 478), (727, 478), (729, 478), (731, 478), (733, 478), (738, 478), (740, 478), (743, 478), (745, 478)]",21.970797845811603,"[2, 1, 6, 3, 4, 5, 7, 8, 9]","(0, 0.25)",DOT005B,DOT,B,Chinese,Thu Aug 16 11:00:29 2018,Mouse
2,3,2,0,28,5,5,1,992,412,580,140,0,500,200,8000,"[(512, 384), (512, 384), (512, 384), (512, 384), (512, 384), (512, 384), (512, 384), (512, 384), (512, 384), (512, 384), (512, 384), (512, 384), (512, 384), (512, 384), (512, 384), (512, 384), (512, 384), (512, 384), (512, 384), (512, 384), (512, 384), (512, 384), (512, 384), (512, 384), (512, 384), (512, 384), (512, 384), (512, 384), (512, 384), (512, 384), (512, 384), (512, 384), (512, 384), (512, 384), (512, 384), (512, 384), (512, 384), (512, 384), (512, 384), (512, 384), (512, 384), (511, 384), (511, 384), (510, 383), (510, 383), (510, 382), (509, 382), (508, 382), (508, 382), (506, 380), (505, 379), (504, 379), (502, 377), (500, 375), (496, 372), (493, 368), (484, 364), (467, 357), (455, 352), (450, 348), (442, 342), (423, 331), (413, 325), (403, 321), (398, 317), (384, 309), (380, 307), (374, 302), (371, 299), (365, 296), (362, 294), (360, 293), (358, 291), (353, 288), (349, 285), (347, 283), (345, 282), (339, 278), (337, 276), (334, 274), (333, 273), (331, 271), (329, 269), (327, 267), (326, 266), (323, 261), (323, 261), (321, 259), (321, 257), (319, 255), (318, 253), (317, 251), (316, 250), (313, 246), (312, 244), (311, 244), (311, 243), (309, 240), (309, 239), (308, 238)]",215.59077859188983,"[2, 1, 6, 3, 4, 5, 7, 8, 9]","(0, 0.25)",DOT005B,DOT,B,Chinese,Thu Aug 16 11:00:29 2018,Mouse
2,3,2,0,29,9,9,1,740,220,520,139,0,500,200,8000,"[(512, 384), (512, 384), (512, 384), (512, 384), (512, 384), (512, 384), (512, 384), (512, 384), (512, 384), (512, 384), (512, 384), (512, 384), (512, 384), (512, 384), (512, 384), (512, 384), (512, 384), (512, 384), (512, 384), (512, 384), (512, 384), (513, 384), (514, 384), (514, 384), (516, 383), (517, 381), (519, 381), (519, 380), (521, 379), (522, 377), (524, 374), (525, 373), (526, 372), (530, 368), (533, 365), (533, 365), (534, 363), (536, 362), (537, 361), (537, 360), (538, 360), (539, 359), (542, 357), (543, 357), (547, 357), (556, 356), (562, 354), (569, 354), (575, 354), (593, 354), (601, 354), (611, 354), (622, 354), (641, 353), (648, 352), (656, 351), (662, 351), (676, 348), (682, 348), (688, 347), (693, 346), (706, 343), (712, 341), (717, 339), (721, 337), (729, 334), (732, 332), (735, 331), (737, 330), (744, 326), (744, 326), (746, 324), (750, 323), (755, 319)]",345.0245655863379,"[2, 1, 6, 3, 4, 5, 7, 8, 9]","(0, 0.25)",DOT005B,DOT,B,Chinese,Thu Aug 16 11:00:29 2018,Mouse
2,3,2,0,30,3,2,0,-702,12,690,138,0,500,200,8000,"[(512, 384), (511, 384), (511, 384), (509, 385), (508, 385), (508, 385), (506, 387), (505, 387), (504, 389), (502, 390), (501, 392), (501, 392), (499, 396), (498, 399), (498, 399), (497, 401), (497, 404), (497, 405), (497, 405), (497, 406), (497, 408), (497, 409), (497, 411), (497, 412), (497, 418), (497, 419), (498, 421), (498, 422), (499, 423), (500, 423), (500, 423), (500, 423), (500, 423), (500, 424), (500, 424), (502, 425), (504, 429), (505, 431), (509, 434), (509, 435), (513, 438), (514, 439), (515, 440), (520, 441), (524, 444), (529, 446), (535, 447), (542, 450), (562, 454), (573, 456), (587, 460), (596, 462), (619, 467), (627, 468), (637, 472), (647, 474), (664, 478), (671, 481), (674, 481), (678, 483), (686, 486), (689, 487), (691, 487), (694, 487), (702, 488), (706, 488), (710, 490), (715, 490), (726, 492), (733, 492), (742, 495)]",25.762360725113194,"[2, 1, 6, 3, 4, 5, 7, 8, 9]","(0, 0.25)",DOT005B,DOT,B,Chinese,Thu Aug 16 11:00:29 2018,Mouse
2,3,2,0,31,4,4,1,652,222,430,139,0,500,200,8000,"[(512, 384), (512, 384), (512, 384), (512, 384), (512, 384), (512, 384), (512, 384), (512, 384), (512, 384), (512, 384), (512, 384), (512, 384), (512, 384), (512, 384), (512, 384), (512, 384), (512, 384), (512, 384), (512, 384), (512, 384), (512, 384), (512, 384), (511, 384), (511, 384), (510, 384), (510, 384), (508, 384), (508, 384), (506, 384), (501, 384), (491, 384), (486, 384), (481, 384), (478, 384), (470, 384), (466, 384), (460, 384), (456, 384), (449, 384), (447, 384), (445, 384), (442, 384), (435, 384), (428, 384), (423, 384), (413, 384), (398, 384), (390, 384), (382, 384), (373, 384), (360, 384), (353, 384), (344, 384), (339, 384), (325, 384), (318, 384), (310, 384), (304, 384), (293, 384), (286, 384), (282, 384), (277, 384), (271, 384), (268, 384), (265, 384), (262, 384)]",180.0,"[2, 1, 6, 3, 4, 5, 7, 8, 9]","(0, 0.25)",DOT005B,DOT,B,Chinese,Thu Aug 16 11:00:29 2018,Mouse
2,3,2,0,32,5,5,1,2372,22,2350,139,0,500,200,8000,"[(512, 384), (512, 384), (513, 384), (513, 384), (513, 386), (513, 387), (513, 387), (513, 387), (513, 389), (513, 389), (513, 389), (513, 389), (513, 389), (513, 389), (513, 389), (513, 389), (513, 389), (513, 389), (513, 389), (513, 389), (513, 389), (513, 389), (513, 389), (513, 389), (513, 389), (513, 389), (513, 389), (513, 389), (513, 389), (513, 390), (512, 390), (512, 390), (512, 390), (512, 392), (511, 393), (511, 393), (511, 393), (510, 395), (510, 395), (509, 396), (509, 396), (509, 396), (509, 396), (509, 396), (509, 396), (509, 396), (509, 396), (509, 396), (509, 396), (509, 396), (509, 396), (508, 397), (508, 397), (508, 397), (508, 397), (508, 397), (508, 397), (508, 397), (508, 397), (508, 397), (508, 397), (508, 397), (508, 397), (508, 397), (508, 397), (508, 397), (508, 397), (508, 397), (508, 397), (508, 397), (508, 397), (508, 397), (508, 397), (508, 397), (508, 397), (508, 397), (508, 397), (508, 397), (508, 397), (508, 397), (508, 397), (508, 397), (508, 397), (508, 397), (508, 397), (508, 397), (508, 397), (508, 397), (508, 397), (508, 397), (508, 397), (508, 397), (508, 397), (508, 397), (508, 397), (508, 397), (508, 397), (508, 397), (508, 397), (508, 397), (508, 397), (508, 397), (508, 397), (508, 397), (508, 397), (508, 397), (508, 397), (508, 397), (508, 397), (508, 397), (508, 397), (508, 397), (508, 397), (508, 397), (508, 397), (508, 397), (508, 397), (508, 397), (508, 397), (508, 397), (508, 397), (508, 397), (508, 397), (508, 397), (508, 397), (508, 397), (508, 397), (508, 397), (508, 397), (508, 397), (508, 397), (508, 397), (508, 397), (508, 397), (508, 397), (508, 397), (508, 397), (508, 397), (508, 397), (508, 397), (508, 397), (508, 397), (508, 397), (508, 397), (508, 397), (508, 397), (508, 397), (508, 397), (508, 397), (508, 397), (508, 397), (508, 397), (508, 397), (508, 397), (508, 397), (508, 397), (508, 397), (508, 397), (508, 397), (508, 397), (508, 397), (508, 397), (508, 397), (508, 397), (508, 397), (508, 397), (508, 397), (508, 397), (508, 397), (508, 397), (508, 397), (508, 397), (508, 397), (508, 397), (508, 397), (509, 397), (509, 397), (509, 397), (509, 397), (509, 397), (510, 397), (510, 395), (510, 393), (509, 392), (508, 391), (504, 388), (502, 386), (501, 385), (501, 385), (498, 381), (498, 381), (497, 379), (496, 378), (495, 378), (495, 376), (494, 376), (493, 374), (489, 371), (489, 370), (487, 368), (483, 366), (472, 359), (467, 357), (462, 353), (458, 352), (451, 348), (445, 344), (441, 342), (435, 339), (427, 335), (422, 332), (417, 331), (411, 327), (395, 320), (388, 317), (382, 314), (375, 311), (362, 305), (356, 301), (353, 299), (348, 295), (338, 289), (334, 287), (330, 285), (328, 283), (324, 279), (323, 277), (320, 275), (318, 273), (316, 269), (313, 266), (313, 263), (310, 261), (309, 256), (307, 252), (306, 251), (305, 248), (302, 244)]",213.69006752597977,"[2, 1, 6, 3, 4, 5, 7, 8, 9]","(0, 0.25)",DOT005B,DOT,B,Chinese,Thu Aug 16 11:00:29 2018,Mouse
2,3,2,0,33,8,8,1,2442,772,1670,138,0,500,200,8000,"[(512, 384), (512, 384), (512, 384), (512, 384), (512, 384), (512, 384), (512, 384), (512, 384), (512, 384), (512, 384), (512, 384), (512, 384), (512, 384), (512, 384), (512, 384), (512, 384), (512, 384), (512, 384), (512, 384), (512, 384), (512, 384), (512, 384), (512, 384), (512, 384), (512, 384), (512, 384), (512, 384), (512, 384), (512, 384), (512, 384), (512, 384), (512, 384), (512, 384), (512, 384), (512, 384), (512, 384), (512, 384), (512, 384), (512, 384), (512, 384), (512, 384), (512, 384), (512, 384), (512, 384), (512, 384), (512, 384), (512, 384), (512, 384), (512, 384), (512, 384), (512, 384), (512, 384), (512, 384), (512, 384), (512, 384), (512, 384), (512, 384), (512, 384), (512, 384), (512, 384), (512, 384), (512, 384), (512, 384), (512, 384), (512, 384), (512, 384), (512, 384), (512, 384), (512, 384), (512, 384), (512, 384), (512, 384), (512, 384), (512, 384), (512, 384), (512, 384), (512, 384), (513, 384), (513, 384), (514, 384), (516, 384), (516, 384), (516, 384), (516, 384), (516, 384), (516, 384), (516, 384), (516, 384), (516, 384), (516, 384), (516, 384), (516, 384), (516, 384), (516, 384), (516, 384), (516, 384), (516, 384), (516, 384), (516, 384), (516, 384), (516, 384), (516, 384), (516, 384), (516, 384), (516, 384), (516, 384), (516, 384), (516, 384), (516, 384), (516, 384), (516, 384), (516, 384), (516, 384), (516, 384), (516, 384), (516, 384), (516, 384), (516, 384), (516, 384), (516, 384), (516, 384), (516, 384), (516, 384), (516, 384), (516, 384), (516, 384), (516, 384), (516, 384), (517, 384), (517, 383), (517, 383), (517, 382), (519, 381), (519, 381), (521, 379), (521, 379), (522, 377), (522, 377), (523, 377), (524, 376), (525, 375), (525, 375), (526, 373), (527, 372), (528, 369), (529, 369), (529, 368), (530, 367), (531, 364), (532, 363), (532, 362), (533, 361), (533, 358), (535, 356), (536, 354), (536, 353), (537, 352), (537, 350), (539, 349), (539, 347), (540, 345), (542, 343), (542, 342), (543, 340), (544, 337), (545, 336), (546, 335), (546, 333), (548, 329), (549, 326), (550, 324), (551, 322), (554, 315), (555, 313), (558, 307), (560, 304), (563, 295), (567, 289), (569, 284), (572, 277), (579, 265), (582, 257), (582, 254), (584, 250), (589, 241), (591, 237), (591, 234), (592, 234), (593, 230), (595, 229), (595, 229), (596, 227), (596, 226), (598, 225), (598, 224), (599, 223), (600, 220), (601, 220), (601, 220), (602, 218), (602, 218), (604, 216), (604, 215), (604, 215), (606, 214), (606, 213), (607, 211), (608, 211), (610, 209), (611, 208), (611, 208), (613, 206), (615, 205), (615, 204), (617, 203), (617, 202), (620, 200), (621, 200), (621, 199), (622, 198), (625, 196), (626, 196), (627, 194), (628, 194), (631, 192), (633, 190), (633, 190), (635, 189), (638, 187), (639, 185), (640, 185), (641, 183), (642, 181), (644, 179), (644, 179), (644, 179), (645, 177), (647, 176), (647, 176), (647, 176), (647, 176), (648, 175), (648, 175), (648, 175), (649, 174)]",303.1196637874033,"[2, 1, 6, 3, 4, 5, 7, 8, 9]","(0, 0.25)",DOT005B,DOT,B,Chinese,Thu Aug 16 11:00:29 2018,Mouse
2,3,2,0,34,6,6,1,2122,792,1330,137,0,500,200,8000,"[(512, 384), (512, 384), (512, 384), (512, 384), (512, 384), (512, 384), (512, 384), (512, 384), (512, 384), (512, 384), (512, 384), (512, 384), (512, 384), (512, 384), (512, 384), (512, 384), (512, 384), (512, 384), (512, 384), (512, 384), (512, 384), (512, 384), (512, 384), (512, 384), (512, 384), (512, 384), (512, 384), (512, 384), (512, 384), (512, 384), (512, 384), (512, 384), (512, 384), (512, 384), (512, 384), (512, 384), (512, 384), (512, 384), (512, 384), (512, 384), (512, 384), (512, 384), (512, 384), (512, 384), (512, 384), (512, 384), (512, 384), (512, 384), (512, 384), (512, 384), (512, 384), (512, 384), (512, 384), (512, 384), (512, 384), (512, 384), (512, 384), (512, 384), (512, 384), (512, 384), (512, 384), (512, 384), (512, 384), (512, 384), (512, 384), (512, 384), (512, 384), (512, 384), (512, 384), (512, 384), (512, 384), (512, 384), (512, 384), (512, 384), (512, 384), (512, 384), (512, 384), (512, 384), (512, 384), (511, 384), (509, 386), (509, 387), (508, 387), (508, 388), (507, 389), (507, 389), (506, 390), (506, 390), (505, 391), (504, 392), (503, 393), (503, 393), (499, 394), (498, 395), (497, 395), (496, 396), (494, 397), (493, 398), (493, 398), (492, 398), (489, 400), (489, 401), (489, 401), (488, 401), (487, 402), (486, 403), (485, 404), (483, 405), (483, 405), (482, 406), (481, 406), (481, 406), (481, 406), (481, 406), (481, 407), (481, 407), (480, 407), (479, 409), (478, 409), (478, 410), (476, 412), (475, 412), (475, 412), (475, 412), (474, 413), (473, 414), (473, 414), (472, 414), (472, 414), (471, 415), (471, 415), (471, 415), (470, 416), (470, 416), (470, 416), (470, 416), (469, 417), (469, 417), (469, 417), (469, 417), (469, 417), (469, 417), (467, 418), (467, 418), (467, 419), (466, 419), (466, 419), (466, 419), (466, 419), (466, 420), (466, 420), (466, 420), (466, 420), (466, 420), (466, 420), (466, 420), (466, 420), (466, 420), (465, 420), (463, 420), (462, 422), (460, 424), (460, 425), (458, 426), (456, 430), (456, 431), (455, 435), (454, 436), (451, 444), (450, 447), (450, 449), (450, 453), (450, 458), (450, 460), (450, 462), (450, 463), (450, 468), (450, 470), (450, 471), (450, 473), (450, 476), (450, 477), (450, 479), (451, 482), (451, 489), (452, 494), (452, 498), (453, 503), (453, 509), (453, 513), (453, 515), (455, 518), (456, 522), (456, 525), (456, 528), (456, 534), (456, 543), (456, 549), (456, 555), (457, 562), (458, 573), (460, 577), (460, 581), (461, 585), (465, 596), (466, 600), (466, 606), (466, 610), (468, 617), (468, 621), (468, 624), (469, 628), (470, 634)]",99.53663575845941,"[2, 1, 6, 3, 4, 5, 7, 8, 9]","(0, 0.25)",DOT005B,DOT,B,Chinese,Thu Aug 16 11:00:29 2018,Mouse
2,3,2,0,35,2,2,1,754,324,430,136,0,500,200,8000,"[(512, 384), (512, 384), (512, 384), (512, 384), (512, 384), (512, 384), (512, 384), (512, 384), (512, 384), (512, 384), (512, 384), (512, 384), (512, 384), (512, 384), (512, 384), (512, 384), (512, 384), (512, 384), (512, 384), (512, 384), (512, 384), (512, 384), (512, 384), (512, 384), (512, 384), (512, 384), (512, 384), (512, 384), (512, 384), (512, 384), (512, 384), (512, 384), (513, 382), (513, 382), (518, 382), (532, 382), (540, 382), (549, 382), (555, 383), (574, 389), (584, 392), (596, 396), (610, 400), (637, 407), (645, 409), (653, 413), (662, 415), (679, 422), (685, 425), (688, 428), (693, 431), (698, 434), (702, 437), (704, 438), (706, 440), (710, 443), (712, 445), (713, 446), (714, 448), (717, 452), (719, 453), (721, 454), (721, 455), (723, 456), (725, 458), (728, 459), (729, 460), (733, 462), (734, 463), (736, 464), (739, 466), (742, 467), (744, 469), (744, 469), (746, 470), (748, 470)]",20.02208323664476,"[2, 1, 6, 3, 4, 5, 7, 8, 9]","(0, 0.25)",DOT005B,DOT,B,Chinese,Thu Aug 16 11:00:29 2018,Mouse
2,3,2,0,36,3,2,0,-542,172,370,135,0,500,200,8000,"[(512, 384), (512, 384), (512, 384), (512, 384), (512, 384), (512, 384), (512, 384), (512, 384), (512, 384), (512, 384), (512, 384), (512, 384), (512, 384), (512, 384), (512, 384), (512, 384), (512, 384), (518, 387), (522, 388), (527, 391), (534, 393), (539, 396), (542, 397), (543, 398), (549, 400), (550, 401), (554, 404), (559, 406), (575, 414), (585, 417), (596, 423), (606, 427), (626, 434), (635, 438), (644, 443), (651, 445), (664, 449), (672, 452), (676, 453), (681, 454), (691, 457), (695, 458), (700, 459), (704, 462), (714, 466), (716, 466), (718, 467), (721, 468), (729, 472), (733, 474), (734, 474), (736, 475), (740, 476), (741, 476), (744, 478)]",22.056433527039353,"[2, 1, 6, 3, 4, 5, 7, 8, 9]","(0, 0.25)",DOT005B,DOT,B,Chinese,Thu Aug 16 11:00:29 2018,Mouse
2,3,2,0,37,1,1,1,672,372,300,136,0,500,200,8000,"[(512, 384), (512, 384), (512, 384), (512, 384), (512, 384), (512, 384), (512, 384), (512, 384), (512, 384), (512, 384), (512, 384), (512, 384), (512, 384), (512, 384), (512, 384), (512, 384), (512, 384), (512, 384), (512, 384), (512, 384), (512, 384), (512, 384), (512, 384), (512, 384), (512, 384), (512, 384), (512, 384), (512, 384), (512, 384), (512, 384), (512, 384), (512, 384), (512, 384), (512, 384), (512, 384), (512, 384), (512, 384), (511, 384), (511, 385), (510, 386), (510, 386), (510, 387), (509, 390), (509, 392), (509, 393), (507, 396), (506, 401), (506, 404), (506, 405), (506, 409), (506, 416), (506, 420), (506, 425), (508, 434), (515, 448), (519, 456), (525, 464), (530, 474), (543, 497), (550, 510), (559, 524), (563, 534), (576, 557), (583, 571), (588, 581), (594, 593), (604, 615), (609, 627)]",68.23925465125855,"[2, 1, 6, 3, 4, 5, 7, 8, 9]","(0, 0.25)",DOT005B,DOT,B,Chinese,Thu Aug 16 11:00:29 2018,Mouse
2,3,2,0,38,1,2,0,-762,272,490,136,0,500,200,8000,"[(512, 384), (512, 384), (512, 384), (512, 384), (512, 384), (512, 384), (512, 384), (512, 384), (512, 384), (512, 384), (512, 384), (512, 384), (512, 384), (512, 384), (512, 384), (512, 384), (512, 384), (512, 384), (512, 384), (512, 384), (512, 384), (512, 384), (512, 384), (512, 384), (512, 384), (512, 384), (512, 384), (515, 382), (516, 381), (519, 381), (521, 380), (523, 379), (525, 379), (527, 378), (529, 378), (533, 378), (535, 378), (538, 378), (541, 378), (544, 378), (545, 378), (548, 378), (549, 378), (554, 378), (556, 378), (563, 380), (567, 381), (586, 386), (593, 389), (603, 392), (612, 395), (629, 401), (636, 406), (642, 408), (648, 412), (658, 417), (665, 422), (670, 425), (675, 428), (683, 435), (690, 439), (694, 442), (698, 445), (704, 450), (706, 451), (709, 454), (711, 455), (717, 460), (718, 462), (720, 463), (724, 466), (728, 469), (731, 470), (735, 473), (737, 475), (743, 478), (744, 478)]",22.056433527039353,"[2, 1, 6, 3, 4, 5, 7, 8, 9]","(0, 0.25)",DOT005B,DOT,B,Chinese,Thu Aug 16 11:00:29 2018,Mouse
2,3,2,0,39,7,5,0,-1832,302,1530,137,0,500,200,8000,"[(512, 384), (512, 384), (512, 384), (512, 384), (512, 384), (512, 384), (512, 384), (512, 384), (512, 384), (512, 384), (512, 384), (512, 384), (512, 384), (512, 384), (512, 384), (512, 384), (512, 384), (512, 384), (512, 384), (512, 384), (512, 384), (512, 384), (512, 384), (512, 384), (512, 384), (512, 384), (512, 384), (512, 384), (512, 384), (512, 384), (512, 379), (512, 373), (511, 372), (511, 370), (511, 370), (510, 368), (510, 368), (510, 366), (510, 365), (509, 363), (508, 361), (508, 361), (508, 359), (507, 358), (507, 356), (507, 356), (507, 355), (505, 353), (505, 352), (505, 351), (504, 350), (504, 348), (504, 346), (504, 346), (504, 343), (504, 337), (504, 332), (504, 329), (504, 326), (504, 320), (504, 316), (504, 312), (504, 311), (504, 303), (506, 299), (508, 294), (509, 292), (512, 285), (514, 281), (514, 279), (515, 276), (519, 270), (519, 267), (519, 265), (519, 263), (519, 260), (520, 257), (520, 256), (520, 254), (520, 251), (520, 250), (520, 248), (520, 247), (520, 242), (519, 240), (518, 236), (516, 232), (515, 225), (514, 221), (512, 216), (510, 214), (509, 210), (509, 209), (509, 209), (509, 208), (508, 207), (508, 207), (508, 207), (508, 207), (508, 207), (508, 207), (508, 207), (508, 207), (508, 207), (508, 207), (508, 207), (508, 207), (508, 207), (508, 207), (508, 207), (508, 207), (508, 207), (508, 207), (508, 207), (508, 207), (508, 208), (508, 210), (508, 210), (508, 211), (508, 214), (508, 215), (508, 217), (508, 217), (508, 220), (508, 221), (508, 223), (508, 224), (508, 227), (508, 230), (508, 232), (508, 235), (506, 245), (506, 248), (505, 252), (505, 255), (505, 259), (505, 259), (505, 260), (505, 260), (505, 261), (505, 262), (505, 262), (505, 262), (504, 264), (503, 266), (503, 268), (502, 269), (501, 273), (499, 274), (498, 277), (495, 278), (492, 281), (490, 283), (488, 285), (483, 288), (472, 295), (467, 299), (461, 303), (457, 307), (456, 308), (455, 309), (454, 309), (451, 310), (449, 311), (447, 311), (447, 311), (446, 311), (438, 310), (437, 310), (432, 309), (428, 306), (416, 303), (409, 300), (401, 297), (391, 292), (374, 280), (364, 276), (352, 269), (343, 263), (327, 255), (324, 252), (318, 249), (311, 244), (300, 235)]",215.1007063397974,"[2, 1, 6, 3, 4, 5, 7, 8, 9]","(0, 0.25)",DOT005B,DOT,B,Chinese,Thu Aug 16 11:00:29 2018,Mouse
2,3,2,0,40,2,2,1,562,362,200,138,0,500,200,8000,"[(512, 384), (512, 384), (512, 384), (512, 384), (512, 384), (512, 384), (512, 384), (512, 384), (512, 384), (512, 384), (512, 384), (512, 384), (512, 384), (512, 384), (512, 384), (512, 384), (512, 384), (512, 384), (512, 384), (512, 384), (512, 384), (512, 384), (512, 384), (512, 384), (512, 384), (512, 384), (512, 384), (512, 384), (512, 384), (512, 384), (512, 384), (512, 384), (512, 384), (512, 384), (512, 384), (512, 384), (512, 385), (515, 388), (521, 394), (528, 401), (541, 411), (550, 418), (560, 422), (568, 428), (591, 437), (601, 440), (614, 446), (624, 450), (645, 460), (658, 465), (669, 470), (680, 474), (700, 483), (710, 489), (720, 491), (727, 493), (743, 498)]",26.26663835708311,"[2, 1, 6, 3, 4, 5, 7, 8, 9]","(0, 0.25)",DOT005B,DOT,B,Chinese,Thu Aug 16 11:00:29 2018,Mouse
2,3,2,0,41,7,5,0,-1246,706,540,138,0,500,200,8000,"[(512, 384), (512, 384), (512, 384), (512, 384), (512, 384), (512, 384), (512, 384), (512, 384), (512, 384), (512, 384), (512, 384), (512, 384), (512, 384), (512, 384), (512, 384), (512, 384), (512, 384), (512, 384), (512, 384), (512, 384), (512, 384), (512, 384), (512, 384), (512, 384), (512, 384), (512, 384), (512, 384), (512, 384), (512, 384), (512, 384), (512, 384), (512, 384), (512, 384), (512, 384), (512, 384), (512, 384), (512, 384), (512, 384), (512, 384), (512, 384), (512, 384), (512, 384), (512, 384), (512, 384), (512, 384), (512, 384), (512, 384), (512, 384), (512, 384), (512, 384), (512, 384), (512, 384), (512, 384), (512, 384), (512, 384), (512, 384), (512, 384), (512, 384), (512, 384), (512, 384), (512, 384), (512, 384), (512, 384), (512, 384), (512, 384), (512, 384), (512, 384), (512, 384), (512, 384), (512, 384), (511, 382), (509, 379), (505, 376), (503, 375), (498, 372), (495, 370), (493, 369), (491, 369), (489, 368), (488, 368), (487, 368), (487, 368), (484, 368), (480, 367), (478, 367), (476, 366), (467, 364), (457, 362), (446, 359), (433, 358), (408, 354), (401, 352), (393, 347), (391, 346), (385, 344), (384, 343), (382, 342), (381, 342), (381, 342), (381, 342), (381, 342), (381, 342), (380, 341), (379, 340), (377, 339), (377, 337), (373, 332), (369, 329), (365, 324), (361, 319), (349, 309), (345, 307), (342, 304), (337, 300), (330, 295), (328, 294), (322, 291), (320, 290), (314, 285), (311, 282), (307, 280), (305, 277), (298, 272), (295, 269), (292, 265)]",208.40935852156167,"[2, 1, 6, 3, 4, 5, 7, 8, 9]","(0, 0.25)",DOT005B,DOT,B,Chinese,Thu Aug 16 11:00:29 2018,Mouse
2,3,2,0,42,1,3,0,-912,382,530,139,0,500,200,8000,"[(512, 384), (512, 384), (512, 384), (512, 384), (512, 384), (512, 384), (512, 384), (512, 384), (512, 384), (512, 384), (512, 384), (512, 384), (512, 384), (512, 384), (512, 384), (512, 384), (512, 384), (512, 384), (512, 384), (512, 384), (512, 384), (512, 384), (512, 384), (512, 384), (512, 384), (512, 384), (512, 384), (512, 384), (512, 384), (512, 384), (512, 384), (512, 384), (512, 384), (512, 384), (512, 384), (512, 384), (512, 384), (512, 384), (512, 386), (512, 386), (511, 388), (511, 389), (510, 391), (510, 392), (508, 394), (508, 394), (506, 396), (505, 397), (505, 397), (504, 399), (501, 401), (500, 403), (498, 405), (495, 407), (491, 410), (490, 411), (489, 412), (489, 412), (487, 414), (484, 415), (484, 416), (481, 418), (474, 422), (471, 424), (467, 427), (463, 429), (456, 433), (453, 434), (449, 437), (444, 441), (430, 449), (423, 451), (416, 456), (409, 458), (394, 465), (389, 467), (383, 471), (376, 475), (369, 479), (366, 481), (363, 482), (361, 484), (354, 489), (352, 490), (347, 493), (342, 497), (334, 504), (327, 509), (321, 515), (316, 520), (311, 527), (308, 529)]",144.5953823021027,"[2, 1, 6, 3, 4, 5, 7, 8, 9]","(0, 0.25)",DOT005B,DOT,B,Chinese,Thu Aug 16 11:00:29 2018,Mouse
2,3,2,0,43,5,5,1,1271,751,520,140,0,500,200,8000,"[(512, 384), (512, 384), (512, 384), (512, 384), (512, 384), (512, 384), (512, 384), (512, 384), (512, 384), (512, 384), (512, 384), (512, 384), (512, 384), (512, 384), (512, 384), (512, 384), (512, 384), (512, 384), (512, 384), (512, 384), (512, 384), (512, 384), (512, 384), (512, 384), (512, 384), (512, 384), (512, 384), (512, 384), (512, 384), (512, 384), (512, 384), (512, 384), (512, 384), (512, 384), (512, 384), (512, 384), (512, 384), (512, 384), (512, 384), (512, 384), (512, 384), (512, 384), (512, 384), (512, 384), (512, 384), (512, 384), (512, 384), (512, 384), (512, 384), (512, 384), (512, 384), (512, 384), (512, 384), (512, 384), (512, 384), (512, 384), (512, 384), (512, 384), (512, 384), (512, 384), (512, 384), (512, 384), (512, 384), (512, 384), (512, 384), (512, 384), (512, 384), (512, 384), (512, 384), (512, 384), (512, 384), (512, 384), (512, 384), (512, 384), (512, 384), (513, 383), (513, 383), (513, 383), (513, 383), (513, 383), (513, 383), (513, 383), (513, 383), (513, 383), (513, 383), (513, 382), (513, 381), (513, 379), (513, 377), (513, 376), (511, 373), (508, 369), (508, 369), (508, 367), (506, 365), (503, 361), (502, 359), (501, 357), (499, 356), (495, 350), (492, 345), (487, 341), (482, 338), (464, 330), (456, 325), (449, 323), (440, 319), (425, 314), (421, 313), (415, 310), (410, 309), (405, 307), (402, 305), (398, 303), (395, 300), (383, 294), (374, 291), (367, 288), (359, 285), (345, 279), (337, 275), (331, 273), (325, 270), (315, 266), (310, 264), (304, 261), (299, 259), (289, 255)]",210.04832264607566,"[2, 1, 6, 3, 4, 5, 7, 8, 9]","(0, 0.25)",DOT005B,DOT,B,Chinese,Thu Aug 16 11:00:29 2018,Mouse
2,3,2,0,44,7,7,1,1272,512,760,140,0,500,200,8000,"[(512, 384), (512, 384), (512, 384), (512, 384), (512, 384), (512, 384), (512, 384), (512, 384), (512, 384), (512, 384), (512, 384), (512, 384), (512, 384), (512, 384), (512, 384), (512, 384), (512, 384), (512, 384), (512, 384), (512, 384), (512, 384), (512, 384), (512, 384), (512, 384), (512, 384), (512, 384), (512, 384), (512, 384), (512, 384), (512, 384), (512, 384), (512, 384), (512, 384), (512, 384), (512, 384), (512, 384), (512, 384), (512, 384), (512, 384), (512, 384), (512, 384), (512, 384), (512, 384), (512, 384), (512, 384), (512, 384), (512, 384), (512, 384), (512, 384), (512, 384), (512, 384), (513, 384), (515, 384), (515, 384), (515, 384), (515, 384), (515, 383), (515, 383), (515, 383), (515, 383), (515, 383), (515, 383), (515, 383), (515, 383), (515, 383), (515, 383), (515, 383), (515, 383), (515, 383), (515, 383), (515, 383), (515, 383), (515, 383), (515, 383), (515, 383), (515, 383), (515, 383), (515, 383), (515, 383), (515, 383), (515, 383), (515, 383), (515, 383), (515, 383), (515, 383), (515, 383), (515, 383), (515, 383), (515, 383), (515, 383), (515, 380), (515, 369), (515, 351), (515, 339), (515, 328), (515, 319), (513, 295), (512, 287), (509, 277), (507, 267), (503, 252), (502, 246), (501, 241), (501, 238), (501, 233), (501, 230), (499, 225), (498, 220), (496, 210), (494, 205), (492, 198), (489, 193), (485, 186), (483, 183), (483, 180), (480, 176), (479, 172), (478, 169), (478, 167), (477, 165), (476, 160), (475, 157), (474, 154), (473, 149), (471, 142), (470, 139), (469, 138), (468, 136)]",259.93931020467704,"[2, 1, 6, 3, 4, 5, 7, 8, 9]","(0, 0.25)",DOT005B,DOT,B,Chinese,Thu Aug 16 11:00:29 2018,Mouse
2,3,2,0,45,4,4,1,2195,1205,990,139,0,500,200,8000,"[(512, 384), (512, 384), (512, 384), (512, 384), (512, 384), (512, 384), (512, 384), (512, 384), (512, 384), (512, 384), (512, 384), (512, 384), (512, 384), (512, 384), (512, 384), (512, 384), (512, 384), (512, 384), (512, 384), (512, 384), (512, 384), (512, 384), (512, 384), (512, 384), (512, 384), (512, 384), (512, 384), (512, 384), (512, 384), (512, 384), (512, 384), (512, 384), (512, 384), (512, 384), (512, 384), (512, 384), (512, 384), (512, 384), (512, 384), (512, 384), (512, 384), (512, 384), (512, 384), (512, 384), (512, 384), (512, 384), (512, 384), (512, 384), (512, 384), (512, 384), (512, 384), (512, 384), (512, 384), (512, 384), (512, 384), (512, 384), (512, 384), (512, 384), (512, 384), (512, 384), (512, 384), (512, 384), (512, 384), (512, 384), (512, 384), (512, 384), (512, 384), (512, 384), (512, 384), (512, 384), (512, 384), (512, 384), (512, 384), (512, 384), (512, 384), (512, 384), (512, 384), (512, 384), (512, 384), (512, 384), (512, 384), (512, 384), (512, 384), (512, 384), (512, 384), (512, 384), (512, 384), (512, 384), (512, 384), (512, 384), (512, 384), (512, 384), (512, 384), (512, 384), (512, 384), (512, 384), (512, 384), (512, 384), (512, 384), (512, 384), (512, 384), (512, 384), (512, 384), (512, 384), (512, 384), (512, 384), (512, 384), (512, 384), (512, 384), (512, 384), (512, 384), (512, 384), (512, 384), (512, 384), (512, 384), (512, 384), (512, 384), (512, 384), (512, 384), (512, 384), (511, 384), (508, 384), (506, 384), (502, 384), (495, 384), (495, 384), (495, 384), (495, 384), (494, 384), (493, 384), (492, 384), (491, 384), (491, 384), (490, 384), (490, 384), (490, 384), (490, 384), (490, 384), (490, 384), (487, 384), (459, 391), (418, 391), (412, 394), (412, 394), (412, 394), (412, 394), (412, 394), (412, 394), (412, 394), (412, 394), (412, 394), (412, 394), (412, 394), (412, 394), (412, 394), (412, 394), (412, 394), (412, 394), (412, 394), (412, 394), (412, 394), (412, 394), (412, 394), (412, 394), (412, 394), (412, 394), (412, 394), (412, 394), (412, 394), (412, 394), (412, 394), (412, 394), (412, 394), (412, 394), (412, 394), (412, 394), (412, 394), (412, 394), (412, 394), (412, 394), (412, 394), (412, 394), (412, 394), (412, 394), (412, 394), (412, 394), (412, 394), (412, 394), (412, 394), (412, 394), (412, 394), (412, 394), (412, 394), (412, 394), (412, 394), (412, 394), (412, 394), (412, 394), (412, 394), (412, 394), (412, 394), (412, 394), (412, 394), (412, 394), (412, 394), (412, 394), (412, 394), (412, 394), (409, 394), (404, 394), (394, 394), (383, 393), (359, 393), (345, 392), (331, 390), (318, 388), (293, 383), (280, 382), (269, 381), (260, 380)]",180.90938044919915,"[2, 1, 6, 3, 4, 5, 7, 8, 9]","(0, 0.25)",DOT005B,DOT,B,Chinese,Thu Aug 16 11:00:29 2018,Mouse
2,3,2,0,46,3,3,1,1042,202,840,138,0,500,200,8000,"[(512, 384), (512, 384), (512, 384), (512, 384), (512, 384), (512, 384), (512, 384), (512, 384), (512, 384), (512, 384), (512, 384), (512, 384), (512, 384), (512, 384), (512, 384), (512, 384), (512, 384), (512, 384), (512, 384), (512, 384), (513, 385), (513, 385), (513, 385), (514, 385), (514, 386), (514, 387), (514, 387), (515, 388), (515, 389), (516, 391), (516, 392), (516, 392), (516, 393), (516, 393), (516, 394), (516, 395), (516, 395), (516, 395), (517, 396), (517, 396), (517, 396), (517, 396), (517, 396), (517, 396), (517, 396), (517, 396), (517, 396), (517, 396), (517, 396), (517, 396), (517, 396), (517, 396), (517, 396), (517, 396), (517, 396), (517, 396), (517, 396), (517, 396), (517, 396), (517, 396), (517, 396), (517, 396), (517, 396), (517, 396), (517, 396), (517, 396), (517, 396), (517, 396), (517, 396), (517, 396), (517, 395), (517, 395), (515, 395), (514, 395), (512, 395), (512, 395), (510, 395), (507, 395), (504, 395), (497, 398), (493, 399), (468, 414), (455, 421), (444, 428), (432, 434), (415, 445), (407, 452), (399, 460), (393, 465), (383, 474), (380, 477), (377, 481), (373, 486), (367, 494), (362, 498), (356, 502), (351, 507), (340, 516), (337, 520), (333, 524), (332, 529), (328, 535), (325, 539), (324, 542), (321, 546)]",139.69647199170544,"[2, 1, 6, 3, 4, 5, 7, 8, 9]","(0, 0.25)",DOT005B,DOT,B,Chinese,Thu Aug 16 11:00:29 2018,Mouse
2,3,2,0,47,3,2,0,-725,145,580,137,0,500,200,8000,"[(512, 384), (512, 384), (512, 384), (512, 384), (512, 384), (512, 384), (512, 384), (512, 384), (512, 384), (512, 384), (512, 384), (512, 384), (512, 384), (512, 384), (512, 385), (512, 386), (510, 388), (510, 388), (510, 388), (510, 388), (510, 389), (510, 389), (510, 389), (510, 390), (510, 391), (510, 391), (510, 392), (510, 393), (510, 394), (510, 394), (510, 397), (510, 398), (510, 405), (514, 409), (516, 412), (520, 416), (525, 421), (528, 425), (533, 429), (538, 432), (547, 438), (552, 439), (557, 443), (563, 446), (576, 452), (583, 454), (591, 455), (598, 457), (610, 458), (616, 459), (623, 460), (627, 460), (640, 460), (645, 460), (654, 460), (660, 460), (678, 460), (686, 460), (695, 462), (700, 462), (714, 462), (720, 463), (726, 463), (730, 463), (737, 463), (738, 463), (742, 463), (744, 463), (746, 463), (748, 463), (748, 463), (749, 463), (751, 464)]",18.506838094498526,"[2, 1, 6, 3, 4, 5, 7, 8, 9]","(0, 0.25)",DOT005B,DOT,B,Chinese,Thu Aug 16 11:00:29 2018,Mouse
2,3,2,0,48,9,5,0,-1275,505,770,138,0,500,200,8000,"[(512, 384), (512, 384), (512, 384), (512, 384), (512, 384), (512, 384), (512, 384), (512, 384), (512, 384), (512, 384), (512, 384), (512, 384), (512, 384), (512, 384), (512, 384), (512, 384), (512, 384), (512, 384), (512, 384), (512, 384), (512, 384), (512, 384), (512, 384), (512, 384), (512, 384), (512, 384), (512, 384), (512, 384), (512, 384), (512, 384), (512, 384), (512, 384), (512, 384), (512, 384), (512, 384), (512, 384), (512, 384), (512, 384), (512, 384), (512, 384), (512, 384), (512, 384), (512, 384), (512, 384), (512, 384), (512, 384), (512, 384), (512, 384), (512, 384), (512, 384), (513, 384), (513, 383), (513, 383), (513, 383), (513, 383), (513, 382), (513, 382), (513, 382), (513, 382), (513, 382), (513, 382), (513, 381), (513, 381), (513, 381), (513, 381), (513, 381), (513, 381), (513, 381), (513, 381), (513, 381), (513, 381), (513, 380), (513, 379), (513, 379), (511, 378), (507, 376), (502, 374), (496, 373), (486, 369), (468, 360), (455, 355), (439, 350), (428, 346), (404, 339), (393, 334), (381, 331), (374, 329), (361, 326), (357, 324), (354, 323), (350, 323), (346, 321), (345, 321), (342, 320), (342, 320), (342, 320), (342, 320), (342, 320), (340, 320), (339, 318), (338, 317), (337, 317), (336, 315), (335, 314), (335, 313), (335, 311), (335, 311), (333, 307), (332, 305), (330, 302), (329, 301), (325, 296), (324, 294), (322, 292), (321, 291), (318, 286), (317, 285), (316, 283), (314, 281), (311, 277), (310, 277), (307, 274), (305, 272), (302, 269), (300, 267), (298, 265), (297, 263), (294, 260)]",209.63153667820387,"[2, 1, 6, 3, 4, 5, 7, 8, 9]","(0, 0.25)",DOT005B,DOT,B,Chinese,Thu Aug 16 11:00:29 2018,Mouse
2,3,2,0,49,4,5,0,-1242,142,1100,139,0,500,200,8000,"[(512, 384), (512, 384), (512, 384), (512, 384), (512, 384), (512, 384), (512, 384), (512, 384), (512, 384), (512, 384), (512, 384), (512, 384), (512, 384), (512, 384), (512, 385), (512, 385), (512, 386), (512, 386), (512, 386), (512, 386), (512, 386), (512, 386), (512, 386), (512, 386), (512, 386), (512, 386), (512, 386), (512, 386), (512, 387), (512, 387), (512, 387), (512, 387), (512, 387), (512, 387), (512, 387), (512, 387), (512, 387), (512, 387), (512, 387), (512, 387), (512, 387), (511, 387), (510, 387), (508, 387), (505, 387), (505, 387), (504, 387), (503, 387), (502, 387), (501, 387), (500, 387), (500, 387), (497, 387), (495, 387), (493, 389), (491, 390), (490, 391), (490, 392), (488, 392), (488, 392), (487, 393), (486, 395), (486, 395), (486, 396), (485, 398), (484, 399), (484, 400), (484, 400), (484, 402), (484, 403), (484, 403), (484, 403), (484, 404), (484, 404), (483, 405), (483, 405), (483, 405), (483, 405), (483, 405), (483, 405), (483, 406), (483, 406), (483, 406), (483, 406), (483, 406), (483, 406), (483, 406), (483, 406), (483, 406), (483, 406), (483, 406), (483, 406), (483, 406), (483, 406), (483, 404), (483, 400), (483, 395), (483, 390), (483, 386), (483, 382), (483, 375), (480, 370), (479, 364), (478, 360), (471, 349), (466, 341), (460, 334), (454, 327), (441, 312), (433, 306), (427, 300), (418, 295), (405, 284), (398, 279), (390, 274), (383, 269), (369, 260), (362, 256), (358, 253), (349, 249), (337, 240), (334, 239), (328, 235), (323, 233), (312, 227)]",218.1319136756017,"[2, 1, 6, 3, 4, 5, 7, 8, 9]","(0, 0.25)",DOT005B,DOT,B,Chinese,Thu Aug 16 11:00:29 2018,Mouse
2,3,2,0,50,8,8,1,682,22,660,140,0,500,200,8000,"[(513, 384), (513, 384), (515, 383), (515, 383), (516, 382), (516, 381), (518, 381), (520, 379), (521, 378), (522, 377), (522, 377), (523, 376), (523, 376), (524, 375), (524, 375), (524, 375), (525, 374), (527, 373), (527, 372), (528, 370), (532, 367), (532, 365), (534, 363), (535, 361), (537, 358), (539, 357), (540, 355), (541, 353), (544, 349), (546, 348), (546, 345), (548, 344), (550, 340), (552, 338), (552, 337), (552, 337), (553, 336), (553, 335), (554, 333), (555, 333), (556, 328), (559, 323), (559, 320), (560, 314), (564, 300), (565, 296), (569, 286), (570, 280), (574, 267), (576, 260), (580, 251), (582, 245), (588, 229), (591, 226), (594, 220), (596, 215), (602, 205), (603, 203), (605, 201), (606, 197), (609, 192), (611, 190), (612, 187), (614, 184), (619, 176), (621, 173), (624, 170), (625, 168), (629, 162)]",297.7904424794521,"[2, 1, 6, 3, 4, 5, 7, 8, 9]","(0, 0.25)",DOT005B,DOT,B,Chinese,Thu Aug 16 11:00:29 2018,Mouse
2,3,2,0,51,5,5,1,652,312,340,140,0,500,200,8000,"[(512, 384), (512, 384), (512, 384), (512, 384), (512, 384), (512, 384), (512, 384), (512, 384), (512, 384), (512, 384), (512, 384), (512, 384), (512, 384), (512, 384), (512, 384), (512, 384), (512, 384), (512, 384), (512, 384), (512, 384), (512, 384), (512, 384), (512, 384), (512, 384), (512, 384), (512, 384), (512, 384), (512, 384), (512, 384), (512, 384), (512, 384), (512, 385), (512, 385), (511, 385), (510, 384), (509, 382), (509, 381), (506, 378), (505, 376), (500, 373), (492, 368), (487, 367), (484, 364), (482, 364), (477, 360), (475, 360), (474, 359), (471, 356), (464, 350), (459, 347), (453, 341), (444, 336), (431, 327), (420, 321), (410, 315), (400, 308), (382, 297), (372, 292), (363, 286), (352, 281), (335, 272), (326, 266), (320, 263), (315, 259), (301, 251), (298, 249)]",212.24541439502264,"[2, 1, 6, 3, 4, 5, 7, 8, 9]","(0, 0.25)",DOT005B,DOT,B,Chinese,Thu Aug 16 11:00:29 2018,Mouse
2,3,2,0,52,2,4,0,-832,592,240,139,0,500,200,8000,"[(512, 384), (512, 384), (512, 384), (512, 384), (512, 384), (512, 384), (512, 384), (512, 384), (512, 384), (512, 384), (512, 384), (512, 384), (512, 384), (512, 384), (512, 384), (512, 384), (512, 384), (512, 384), (512, 384), (512, 384), (512, 384), (512, 384), (512, 384), (512, 384), (512, 384), (512, 384), (512, 384), (512, 384), (512, 384), (512, 384), (512, 384), (512, 384), (512, 384), (512, 384), (512, 384), (512, 384), (512, 384), (512, 384), (512, 384), (512, 384), (512, 384), (512, 384), (512, 384), (512, 384), (512, 384), (512, 384), (512, 384), (512, 384), (512, 384), (512, 384), (512, 384), (512, 384), (512, 384), (512, 384), (512, 384), (512, 384), (512, 384), (512, 384), (512, 384), (512, 385), (512, 386), (512, 387), (511, 387), (510, 389), (508, 390), (506, 391), (503, 391), (492, 394), (486, 395), (481, 396), (476, 396), (459, 397), (447, 399), (437, 399), (424, 399), (394, 399), (377, 399), (360, 399), (346, 399), (314, 399), (302, 399), (290, 399), (279, 399), (258, 399)]",176.62031621667734,"[2, 1, 6, 3, 4, 5, 7, 8, 9]","(0, 0.25)",DOT005B,DOT,B,Chinese,Thu Aug 16 11:00:29 2018,Mouse
2,3,2,0,53,2,2,1,746,466,280,140,0,500,200,8000,"[(512, 384), (512, 384), (512, 384), (512, 384), (512, 384), (512, 384), (512, 384), (512, 384), (512, 384), (512, 384), (512, 384), (512, 384), (512, 384), (512, 384), (512, 384), (512, 384), (512, 384), (512, 384), (512, 384), (512, 384), (512, 384), (512, 384), (512, 384), (512, 384), (512, 384), (512, 384), (512, 384), (512, 384), (512, 384), (512, 384), (512, 384), (512, 384), (512, 384), (512, 384), (512, 384), (512, 384), (512, 384), (512, 384), (512, 384), (512, 384), (512, 384), (512, 384), (512, 384), (512, 384), (512, 384), (512, 384), (513, 385), (527, 391), (537, 394), (547, 396), (557, 399), (570, 404), (575, 406), (580, 409), (582, 410), (589, 415), (593, 417), (596, 418), (601, 422), (611, 429), (616, 433), (622, 437), (628, 440), (638, 448), (646, 453), (652, 456), (658, 459), (672, 467), (681, 469), (691, 473), (699, 476), (717, 479), (727, 479), (737, 480), (748, 481)]",22.343493117381467,"[2, 1, 6, 3, 4, 5, 7, 8, 9]","(0, 0.25)",DOT005B,DOT,B,Chinese,Thu Aug 16 11:00:29 2018,Mouse
2,3,2,0,54,8,8,1,1022,212,810,140,0,500,200,8000,"[(512, 384), (512, 384), (512, 384), (512, 384), (512, 384), (512, 384), (512, 384), (512, 384), (512, 384), (512, 384), (512, 384), (512, 384), (512, 384), (512, 384), (512, 384), (512, 384), (512, 384), (512, 384), (512, 384), (512, 384), (512, 384), (513, 384), (514, 384), (514, 384), (514, 384), (515, 383), (515, 383), (515, 383), (515, 383), (516, 383), (516, 383), (516, 383), (516, 383), (516, 383), (516, 383), (516, 383), (516, 383), (516, 383), (516, 383), (517, 382), (517, 382), (518, 380), (519, 380), (519, 379), (520, 378), (522, 376), (524, 374), (524, 374), (525, 372), (529, 368), (531, 365), (534, 362), (536, 359), (542, 351), (546, 346), (550, 341), (553, 335), (557, 327), (560, 322), (562, 318), (562, 313), (566, 305), (569, 299), (570, 296), (571, 293), (576, 283), (578, 279), (581, 271), (584, 264), (590, 251), (593, 242), (595, 236), (598, 232), (601, 221), (603, 218), (605, 213), (605, 210), (608, 206), (609, 205), (611, 202), (611, 200), (612, 196), (613, 194), (615, 191), (616, 190), (617, 185), (619, 183), (620, 181), (620, 181), (620, 179), (620, 178), (621, 177), (621, 177), (622, 176), (623, 175), (623, 173), (623, 173), (626, 170), (627, 168), (629, 166), (629, 165), (630, 164), (631, 163)]",298.3007557660064,"[2, 1, 6, 3, 4, 5, 7, 8, 9]","(0, 0.25)",DOT005B,DOT,B,Chinese,Thu Aug 16 11:00:29 2018,Mouse
2,3,2,0,55,4,4,1,1120,370,750,139,0,500,200,8000,"[(512, 384), (512, 384), (512, 384), (512, 384), (512, 384), (512, 384), (512, 384), (512, 384), (512, 384), (512, 384), (512, 384), (512, 384), (512, 384), (512, 384), (512, 384), (512, 384), (512, 384), (512, 384), (512, 384), (512, 384), (512, 384), (512, 384), (512, 384), (512, 384), (512, 384), (512, 384), (512, 384), (512, 384), (512, 384), (512, 384), (512, 384), (512, 384), (512, 384), (512, 384), (512, 384), (512, 384), (513, 384), (513, 384), (516, 384), (517, 384), (518, 384), (519, 383), (520, 382), (520, 380), (521, 380), (522, 378), (523, 376), (524, 373), (524, 373), (524, 373), (524, 373), (524, 373), (524, 373), (524, 373), (524, 373), (524, 373), (524, 372), (525, 372), (525, 372), (525, 372), (525, 372), (525, 372), (525, 372), (525, 372), (525, 372), (525, 372), (525, 372), (525, 372), (525, 372), (525, 372), (525, 372), (525, 372), (525, 372), (525, 372), (525, 372), (525, 372), (525, 372), (524, 372), (521, 372), (520, 372), (518, 372), (517, 372), (510, 372), (503, 372), (494, 372), (484, 372), (472, 372), (464, 372), (459, 372), (456, 372), (451, 372), (448, 372), (445, 372), (444, 372), (440, 372), (437, 372), (434, 372), (430, 372), (420, 372), (413, 372), (405, 372), (398, 372), (379, 372), (370, 372), (360, 372), (348, 374), (323, 376), (311, 377), (296, 377), (289, 377), (268, 377), (259, 377)]",181.5848543930505,"[2, 1, 6, 3, 4, 5, 7, 8, 9]","(0, 0.25)",DOT005B,DOT,B,Chinese,Thu Aug 16 11:00:29 2018,Mouse
2,3,2,0,56,1,4,0,-642,242,400,138,0,500,200,8000,"[(512, 384), (512, 384), (512, 384), (512, 384), (512, 384), (512, 384), (512, 384), (512, 384), (512, 384), (512, 384), (512, 384), (512, 384), (512, 384), (512, 384), (512, 384), (512, 384), (512, 384), (512, 384), (512, 384), (512, 384), (512, 384), (512, 384), (512, 384), (512, 384), (511, 386), (511, 386), (511, 386), (511, 386), (511, 386), (511, 386), (511, 386), (511, 386), (511, 386), (511, 386), (511, 386), (510, 386), (510, 387), (509, 388), (508, 389), (505, 390), (504, 390), (501, 391), (500, 391), (494, 393), (493, 393), (489, 394), (487, 394), (479, 394), (477, 394), (470, 394), (464, 394), (437, 393), (422, 392), (405, 390), (388, 390), (360, 390), (348, 390), (337, 390), (327, 390), (311, 390), (305, 390), (297, 390), (288, 390), (270, 390), (259, 392)]",178.1888792078093,"[2, 1, 6, 3, 4, 5, 7, 8, 9]","(0, 0.25)",DOT005B,DOT,B,Chinese,Thu Aug 16 11:00:29 2018,Mouse
2,3,2,0,57,2,2,1,2552,462,2090,139,0,500,200,8000,"[(512, 384), (512, 384), (512, 384), (512, 384), (512, 384), (512, 384), (512, 384), (512, 384), (512, 384), (512, 384), (512, 384), (512, 384), (512, 384), (512, 384), (512, 384), (512, 384), (512, 384), (512, 384), (512, 384), (512, 384), (512, 384), (512, 384), (512, 384), (512, 384), (512, 384), (512, 384), (512, 384), (512, 384), (512, 384), (512, 384), (512, 384), (512, 384), (512, 384), (512, 384), (512, 384), (512, 384), (512, 384), (512, 384), (512, 384), (512, 384), (512, 384), (512, 384), (512, 384), (512, 384), (512, 384), (512, 384), (512, 387), (515, 392), (521, 395), (529, 400), (539, 402), (561, 408), (573, 411), (582, 414), (588, 416), (600, 422), (604, 423), (607, 426), (609, 426), (612, 429), (614, 429), (615, 430), (617, 431), (620, 432), (621, 433), (622, 433), (624, 433), (625, 433), (625, 433), (625, 433), (625, 433), (625, 433), (625, 433), (625, 433), (626, 433), (628, 433), (630, 433), (631, 433), (633, 433), (636, 434), (636, 434), (636, 434), (637, 434), (637, 434), (637, 434), (637, 434), (637, 434), (637, 434), (637, 434), (637, 434), (637, 434), (637, 434), (637, 434), (637, 434), (637, 434), (637, 434), (637, 434), (637, 434), (637, 434), (637, 434), (637, 434), (637, 434), (637, 434), (637, 434), (637, 434), (637, 434), (637, 434), (637, 434), (637, 434), (637, 434), (637, 434), (637, 434), (637, 434), (637, 434), (637, 434), (637, 434), (637, 434), (637, 434), (637, 434), (637, 434), (637, 434), (637, 434), (637, 434), (637, 434), (637, 434), (637, 434), (637, 434), (637, 434), (637, 434), (637, 434), (637, 434), (637, 434), (637, 434), (637, 434), (637, 434), (637, 434), (637, 434), (637, 434), (637, 434), (637, 434), (637, 434), (637, 434), (637, 434), (637, 434), (637, 434), (637, 434), (637, 434), (637, 434), (637, 434), (637, 434), (637, 434), (637, 434), (637, 434), (637, 434), (637, 434), (637, 434), (637, 434), (637, 434), (637, 434), (637, 434), (637, 434), (637, 434), (637, 434), (637, 434), (637, 434), (637, 434), (637, 434), (637, 434), (637, 434), (637, 434), (637, 434), (637, 434), (637, 434), (637, 434), (637, 434), (637, 434), (637, 434), (637, 434), (637, 434), (637, 434), (637, 434), (637, 434), (637, 434), (637, 435), (637, 435), (637, 435), (637, 435), (637, 435), (637, 435), (637, 435), (637, 435), (637, 435), (637, 435), (637, 435), (637, 435), (637, 435), (637, 435), (637, 435), (637, 436), (637, 436), (637, 436), (637, 436), (636, 437), (636, 437), (635, 437), (635, 437), (634, 437), (634, 437), (634, 437), (634, 437), (634, 437), (634, 437), (634, 437), (634, 437), (634, 437), (634, 437), (634, 437), (634, 437), (634, 437), (634, 437), (634, 437), (634, 437), (634, 437), (634, 437), (634, 437), (634, 437), (634, 437), (634, 437), (633, 437), (633, 438), (633, 438), (633, 441), (633, 442), (633, 444), (634, 444), (636, 447), (639, 449), (643, 451), (649, 453), (662, 457), (669, 460), (677, 462), (683, 464), (698, 467), (702, 469), (704, 469), (707, 470), (709, 471), (709, 471), (711, 472), (713, 473), (716, 474), (722, 476), (728, 478), (734, 479), (747, 483)]",22.844553127664927,"[2, 1, 6, 3, 4, 5, 7, 8, 9]","(0, 0.25)",DOT005B,DOT,B,Chinese,Thu Aug 16 11:00:29 2018,Mouse
2,3,2,0,58,1,3,0,-1333,542,791,139,0,500,200,8000,"[(512, 384), (512, 384), (512, 384), (512, 384), (512, 384), (512, 384), (512, 384), (512, 384), (512, 384), (512, 384), (512, 384), (512, 384), (512, 384), (512, 384), (512, 384), (512, 384), (512, 384), (512, 384), (512, 384), (512, 384), (512, 384), (512, 384), (512, 384), (512, 384), (512, 384), (512, 384), (512, 384), (512, 384), (512, 384), (512, 384), (512, 384), (512, 384), (512, 384), (512, 384), (512, 384), (512, 384), (512, 384), (512, 384), (512, 384), (512, 384), (512, 384), (512, 384), (512, 384), (512, 384), (512, 384), (512, 384), (512, 384), (512, 384), (512, 384), (512, 384), (512, 384), (512, 384), (512, 384), (512, 384), (509, 386), (509, 388), (508, 392), (507, 393), (507, 393), (507, 394), (507, 394), (507, 394), (507, 394), (507, 394), (506, 395), (506, 395), (506, 395), (506, 395), (506, 396), (506, 396), (506, 396), (506, 396), (506, 397), (506, 397), (506, 397), (506, 397), (506, 397), (506, 397), (506, 397), (506, 397), (506, 397), (506, 397), (506, 397), (506, 397), (506, 397), (506, 397), (506, 397), (506, 397), (506, 397), (506, 397), (506, 397), (506, 397), (506, 397), (506, 397), (506, 397), (506, 397), (506, 397), (506, 397), (506, 397), (506, 397), (506, 397), (506, 397), (506, 397), (506, 397), (506, 397), (506, 397), (506, 397), (506, 397), (506, 397), (506, 397), (506, 397), (506, 397), (506, 397), (506, 397), (506, 397), (506, 397), (506, 397), (506, 397), (506, 397), (506, 397), (506, 397), (506, 397), (506, 397), (506, 397), (506, 397), (506, 397), (503, 397), (497, 401), (472, 417), (451, 437), (425, 455), (394, 477), (314, 532), (275, 559)]",143.55796512345825,"[2, 1, 6, 3, 4, 5, 7, 8, 9]","(0, 0.25)",DOT005B,DOT,B,Chinese,Thu Aug 16 11:00:29 2018,Mouse
2,3,2,0,59,5,5,1,2070,390,1680,140,0,500,200,8000,"[(512, 384), (512, 384), (512, 384), (512, 384), (512, 384), (512, 384), (512, 384), (512, 384), (512, 384), (512, 384), (512, 384), (512, 384), (512, 384), (512, 384), (512, 384), (512, 384), (512, 384), (512, 384), (512, 384), (512, 384), (512, 384), (512, 384), (512, 384), (512, 384), (512, 384), (512, 384), (512, 384), (512, 384), (512, 384), (512, 384), (512, 384), (512, 384), (512, 384), (512, 384), (512, 384), (512, 384), (512, 384), (512, 384), (512, 380), (510, 375), (509, 373), (505, 370), (502, 368), (502, 366), (501, 364), (499, 363), (497, 360), (496, 358), (495, 357), (494, 356), (491, 351), (490, 349), (490, 347), (488, 343), (487, 338), (486, 336), (484, 334), (484, 333), (483, 330), (482, 328), (482, 327), (481, 325), (480, 324), (480, 324), (480, 323), (480, 323), (479, 323), (479, 323), (479, 323), (479, 323), (479, 323), (479, 323), (479, 323), (479, 323), (479, 323), (479, 323), (479, 323), (479, 323), (479, 323), (479, 323), (479, 323), (479, 323), (479, 323), (479, 323), (479, 323), (479, 323), (479, 323), (479, 323), (479, 323), (479, 323), (479, 323), (479, 323), (479, 323), (479, 323), (479, 323), (479, 323), (479, 323), (479, 323), (479, 323), (479, 323), (479, 323), (479, 323), (479, 323), (479, 323), (479, 323), (479, 323), (479, 323), (479, 323), (479, 323), (479, 323), (479, 323), (479, 323), (479, 323), (479, 323), (479, 323), (479, 323), (479, 323), (479, 323), (479, 323), (479, 323), (479, 323), (479, 323), (479, 323), (479, 323), (479, 323), (479, 323), (479, 323), (479, 323), (479, 323), (479, 323), (479, 323), (479, 323), (479, 323), (479, 323), (479, 323), (479, 323), (479, 323), (479, 323), (479, 323), (479, 323), (479, 323), (479, 323), (479, 323), (479, 323), (479, 323), (479, 323), (479, 323), (479, 323), (479, 323), (479, 323), (479, 323), (479, 323), (479, 323), (479, 323), (479, 323), (479, 323), (479, 323), (479, 323), (479, 323), (479, 323), (479, 323), (479, 323), (479, 323), (479, 323), (479, 323), (479, 323), (479, 323), (479, 323), (479, 323), (479, 323), (479, 323), (479, 323), (479, 323), (479, 323), (479, 323), (479, 323), (479, 323), (479, 323), (479, 323), (479, 323), (479, 323), (479, 323), (479, 323), (479, 323), (479, 323), (479, 322), (478, 320), (477, 319), (477, 319), (476, 318), (475, 318), (474, 316), (473, 315), (473, 315), (470, 312), (464, 310), (461, 308), (455, 305), (441, 299), (434, 297), (427, 292), (417, 286), (394, 270), (377, 257), (366, 249), (346, 235), (317, 214)]",221.08175113593262,"[2, 1, 6, 3, 4, 5, 7, 8, 9]","(0, 0.25)",DOT005B,DOT,B,Chinese,Thu Aug 16 11:00:29 2018,Mouse
2,3,2,0,60,7,7,1,821,511,310,140,0,500,200,8000,"[(512, 384), (512, 384), (512, 384), (512, 384), (512, 384), (512, 384), (512, 384), (512, 384), (512, 384), (512, 384), (512, 384), (512, 384), (512, 384), (512, 384), (512, 384), (512, 384), (512, 384), (512, 384), (512, 384), (512, 384), (512, 384), (512, 384), (512, 384), (512, 384), (512, 384), (512, 384), (512, 384), (512, 384), (512, 384), (512, 384), (512, 384), (512, 384), (512, 384), (512, 384), (512, 384), (512, 384), (512, 384), (512, 384), (512, 384), (512, 384), (512, 384), (512, 384), (512, 384), (512, 384), (512, 384), (512, 384), (512, 384), (512, 384), (512, 384), (512, 384), (512, 384), (514, 382), (514, 374), (514, 368), (514, 360), (514, 356), (514, 341), (514, 335), (514, 327), (514, 322), (514, 312), (514, 307), (514, 299), (513, 291), (506, 271), (501, 261), (498, 251), (495, 241), (490, 225), (486, 218), (485, 212), (482, 205), (479, 193), (476, 187), (475, 183), (475, 178), (472, 169), (470, 163), (468, 157), (467, 153), (465, 144), (465, 141), (463, 136)]",258.823416655681,"[2, 1, 6, 3, 4, 5, 7, 8, 9]","(0, 0.25)",DOT005B,DOT,B,Chinese,Thu Aug 16 11:00:29 2018,Mouse
2,3,2,0,61,3,2,0,-1112,622,490,139,0,500,200,8000,"[(512, 384), (512, 384), (512, 384), (512, 384), (512, 384), (512, 384), (512, 384), (512, 384), (512, 384), (512, 384), (512, 384), (512, 384), (512, 384), (512, 384), (512, 384), (512, 384), (512, 384), (512, 384), (512, 384), (512, 384), (512, 384), (512, 384), (512, 384), (512, 384), (512, 384), (512, 384), (512, 384), (512, 384), (512, 384), (512, 384), (512, 384), (512, 384), (512, 384), (512, 384), (512, 384), (512, 384), (512, 384), (512, 384), (512, 384), (512, 384), (512, 384), (512, 384), (512, 384), (512, 384), (512, 384), (512, 384), (512, 384), (512, 384), (512, 384), (512, 384), (512, 384), (512, 384), (512, 384), (512, 384), (512, 384), (512, 384), (512, 384), (512, 384), (512, 384), (512, 384), (512, 384), (512, 384), (512, 385), (513, 386), (516, 387), (518, 389), (523, 391), (527, 393), (527, 393), (528, 394), (531, 394), (534, 397), (535, 398), (539, 400), (542, 401), (546, 403), (550, 405), (551, 405), (553, 405), (554, 406), (556, 407), (558, 407), (560, 409), (561, 409), (563, 410), (564, 411), (566, 413), (567, 413), (568, 414), (571, 416), (574, 419), (576, 420), (579, 422), (583, 424), (592, 430), (597, 433), (603, 437), (606, 439), (617, 445), (622, 447), (631, 450), (641, 454), (659, 463), (669, 466), (678, 470), (687, 475), (702, 479), (708, 481), (715, 484), (723, 487), (733, 491), (742, 494)]",25.559965171823812,"[2, 1, 6, 3, 4, 5, 7, 8, 9]","(0, 0.25)",DOT005B,DOT,B,Chinese,Thu Aug 16 11:00:29 2018,Mouse
2,3,2,0,62,9,8,0,-785,15,770,140,0,500,200,8000,"[(512, 384), (510, 386), (508, 386), (507, 386), (506, 386), (505, 386), (503, 387), (502, 387), (501, 388), (500, 388), (499, 388), (498, 389), (498, 389), (498, 389), (497, 389), (496, 389), (495, 390), (495, 390), (494, 390), (494, 390), (493, 390), (493, 390), (491, 390), (490, 390), (490, 390), (489, 390), (488, 390), (488, 390), (487, 390), (487, 390), (487, 390), (487, 390), (487, 390), (487, 389), (487, 385), (487, 383), (488, 378), (489, 374), (493, 366), (497, 358), (500, 353), (504, 345), (516, 331), (524, 321), (531, 312), (536, 307), (546, 295), (550, 289), (552, 287), (556, 282), (562, 275), (564, 272), (566, 269), (568, 267), (571, 260), (573, 255), (576, 252), (578, 247), (583, 239), (586, 235), (587, 233), (591, 229), (595, 223), (599, 218), (603, 215), (605, 212), (612, 206), (614, 204), (616, 201), (618, 199), (621, 194), (623, 190), (626, 186), (627, 185), (635, 177), (637, 174), (639, 172), (641, 170), (644, 163)]",300.8492414690076,"[2, 1, 6, 3, 4, 5, 7, 8, 9]","(0, 0.25)",DOT005B,DOT,B,Chinese,Thu Aug 16 11:00:29 2018,Mouse
