NativeLangNumber,LanuageNumber,SessionNumber,Block,TrialNum,ConditionNumber,Response,Accuracy,RT,MovementOnsetTime,TimeInMotion,SignalContrast,SignalContrastNumber,StimDisplayTime,MaskTime,MaxResponseTime,MousePositionXY,MouseAngle,WheelOrder,NoiseMuSigma,ParticipantID,LanuageTested,SessionTested,NativeLanuage,Date,ResponseDevice
2,3,4,0,1,3,3,1,936,726,210,153,0,500,200,8000,"[(512, 384), (512, 384), (512, 384), (512, 384), (512, 384), (512, 384), (512, 384), (512, 384), (512, 384), (512, 384), (512, 384), (512, 384), (512, 384), (512, 384), (512, 384), (512, 384), (512, 384), (512, 384), (512, 384), (512, 384), (512, 384), (512, 384), (512, 384), (512, 384), (512, 384), (512, 384), (512, 384), (512, 384), (512, 384), (512, 384), (512, 384), (512, 384), (512, 384), (512, 384), (512, 384), (512, 384), (512, 384), (512, 384), (512, 384), (512, 384), (512, 384), (512, 384), (512, 384), (512, 384), (512, 384), (512, 384), (512, 384), (512, 384), (512, 384), (512, 384), (512, 384), (512, 384), (512, 384), (512, 384), (512, 384), (512, 384), (512, 384), (512, 384), (512, 384), (512, 384), (512, 384), (512, 384), (512, 384), (512, 384), (512, 384), (512, 384), (512, 384), (512, 384), (512, 384), (512, 384), (512, 384), (512, 384), (516, 388), (519, 391), (523, 394), (524, 393), (524, 393), (524, 393), (525, 393), (526, 393), (530, 393), (536, 393), (555, 393), (567, 393), (581, 396), (597, 401), (627, 410), (642, 416), (659, 420), (675, 423), (709, 434), (729, 439), (748, 444), (768, 451)]",14.666419113786628,"[3, 8, 7, 5, 6, 9, 1, 2, 4]","(0, 0.25)",DOT006D,DOT,D,Chinese,Mon Oct 15 13:15:22 2018,Mouse
2,3,4,0,2,1,1,1,482,262,220,153,0,500,200,8000,"[(512, 384), (512, 384), (512, 384), (512, 384), (512, 384), (512, 384), (512, 384), (512, 384), (512, 384), (512, 384), (512, 384), (512, 384), (512, 384), (512, 384), (512, 384), (512, 384), (512, 384), (512, 384), (512, 384), (512, 384), (512, 384), (512, 384), (512, 384), (512, 384), (512, 384), (512, 384), (512, 385), (512, 386), (512, 386), (513, 384), (513, 381), (513, 377), (513, 357), (510, 344), (508, 333), (505, 321), (504, 307), (499, 279), (498, 267), (496, 256), (492, 243), (486, 220), (484, 208), (482, 196), (480, 184), (476, 159), (474, 149), (473, 139), (470, 131)]",260.57440585073414,"[3, 8, 7, 5, 6, 9, 1, 2, 4]","(0, 0.25)",DOT006D,DOT,D,Chinese,Mon Oct 15 13:15:22 2018,Mouse
2,3,4,0,3,8,8,1,890,520,370,152,0,500,200,8000,"[(512, 384), (512, 384), (512, 384), (512, 384), (512, 384), (512, 384), (512, 384), (512, 384), (512, 384), (512, 384), (512, 384), (512, 384), (512, 384), (512, 384), (512, 384), (512, 384), (512, 384), (512, 384), (512, 384), (512, 384), (512, 384), (512, 384), (512, 384), (512, 384), (512, 384), (512, 384), (512, 384), (512, 384), (512, 384), (512, 384), (512, 384), (512, 384), (512, 384), (512, 384), (512, 384), (512, 384), (512, 384), (512, 384), (512, 384), (512, 384), (512, 384), (512, 384), (512, 384), (512, 384), (512, 384), (512, 384), (512, 384), (512, 384), (512, 384), (512, 384), (512, 384), (510, 381), (510, 381), (510, 381), (510, 381), (510, 381), (510, 381), (510, 381), (510, 381), (512, 382), (515, 388), (518, 393), (521, 400), (523, 409), (528, 426), (531, 436), (534, 446), (536, 453), (545, 472), (547, 479), (551, 485), (556, 492), (563, 505), (569, 511), (572, 516), (573, 520), (578, 528), (579, 530), (580, 532), (581, 534), (584, 539), (586, 542), (590, 549), (594, 556), (605, 571), (612, 581), (617, 589), (623, 599), (629, 615)]",63.13808215559732,"[3, 8, 7, 5, 6, 9, 1, 2, 4]","(0, 0.25)",DOT006D,DOT,D,Chinese,Mon Oct 15 13:15:22 2018,Mouse
2,3,4,0,4,7,7,1,899,569,330,151,0,500,200,8000,"[(512, 384), (512, 384), (512, 384), (512, 384), (512, 384), (512, 384), (512, 384), (512, 384), (512, 384), (512, 384), (512, 384), (512, 384), (512, 384), (512, 384), (512, 384), (512, 384), (512, 384), (512, 384), (512, 384), (512, 384), (512, 384), (512, 384), (512, 384), (512, 384), (512, 384), (512, 384), (512, 384), (512, 384), (512, 384), (512, 384), (512, 384), (512, 384), (512, 384), (512, 384), (512, 384), (512, 384), (512, 384), (512, 384), (512, 384), (512, 384), (512, 384), (512, 384), (512, 384), (512, 384), (512, 384), (512, 384), (512, 384), (512, 384), (512, 384), (512, 384), (512, 384), (512, 384), (512, 384), (512, 384), (512, 384), (512, 384), (511, 388), (504, 391), (500, 396), (500, 397), (499, 397), (499, 397), (496, 401), (494, 406), (489, 413), (487, 419), (481, 434), (479, 441), (477, 448), (476, 456), (473, 476), (472, 486), (471, 495), (468, 506), (466, 526), (466, 535), (466, 543), (466, 553), (465, 568), (463, 574), (463, 578), (463, 583), (463, 591), (463, 598), (463, 603), (463, 608), (463, 617), (463, 622), (463, 627), (462, 632)]",101.39876306875793,"[3, 8, 7, 5, 6, 9, 1, 2, 4]","(0, 0.25)",DOT006D,DOT,D,Chinese,Mon Oct 15 13:15:22 2018,Mouse
2,3,4,0,5,8,8,1,505,205,300,150,0,500,200,8000,"[(512, 384), (512, 384), (512, 384), (512, 384), (512, 384), (512, 384), (512, 384), (512, 384), (512, 384), (512, 384), (512, 384), (512, 384), (512, 384), (512, 384), (512, 384), (512, 384), (512, 384), (512, 384), (512, 384), (512, 384), (512, 389), (513, 389), (513, 389), (513, 389), (513, 389), (513, 389), (513, 389), (513, 389), (513, 389), (513, 389), (513, 389), (515, 391), (522, 403), (525, 410), (527, 419), (531, 427), (540, 446), (546, 456), (553, 466), (560, 476), (578, 502), (592, 518), (600, 529), (606, 538), (617, 553), (623, 562), (626, 567), (629, 573), (634, 585), (639, 592), (642, 598)]",58.72229713313355,"[3, 8, 7, 5, 6, 9, 1, 2, 4]","(0, 0.25)",DOT006D,DOT,D,Chinese,Mon Oct 15 13:15:22 2018,Mouse
2,3,4,0,6,3,3,1,601,411,190,149,0,500,200,8000,"[(512, 384), (512, 384), (512, 384), (512, 384), (512, 384), (512, 384), (512, 384), (512, 384), (512, 384), (512, 384), (512, 384), (512, 384), (512, 384), (512, 384), (512, 384), (512, 384), (512, 384), (512, 384), (512, 384), (512, 384), (512, 384), (512, 384), (512, 384), (512, 384), (512, 384), (512, 384), (512, 384), (512, 384), (512, 384), (512, 384), (512, 384), (512, 384), (512, 384), (512, 384), (512, 384), (512, 384), (512, 384), (512, 384), (512, 384), (512, 384), (512, 384), (512, 388), (516, 392), (517, 393), (519, 394), (523, 396), (532, 401), (540, 405), (549, 411), (559, 415), (578, 428), (586, 433), (598, 440), (611, 447), (643, 466), (659, 474), (672, 479), (692, 485), (719, 494), (731, 497), (748, 502)]",26.56505117707799,"[3, 8, 7, 5, 6, 9, 1, 2, 4]","(0, 0.25)",DOT006D,DOT,D,Chinese,Mon Oct 15 13:15:22 2018,Mouse
2,3,4,0,7,6,6,1,2212,422,1790,148,0,500,200,8000,"[(512, 384), (512, 384), (512, 384), (512, 384), (512, 384), (512, 384), (512, 384), (512, 384), (512, 384), (512, 384), (512, 384), (512, 384), (512, 384), (512, 384), (512, 384), (512, 384), (512, 384), (512, 384), (512, 384), (512, 384), (512, 384), (512, 384), (512, 384), (512, 384), (512, 384), (512, 384), (512, 384), (512, 384), (512, 384), (512, 384), (512, 384), (512, 384), (512, 384), (512, 384), (512, 384), (512, 384), (512, 384), (512, 384), (512, 384), (512, 384), (512, 384), (512, 384), (512, 385), (514, 387), (514, 387), (514, 387), (514, 387), (514, 387), (515, 387), (515, 387), (515, 387), (515, 387), (515, 387), (515, 387), (515, 387), (515, 387), (515, 387), (515, 387), (515, 387), (515, 387), (515, 387), (515, 387), (515, 387), (515, 387), (517, 389), (517, 389), (517, 389), (517, 390), (517, 390), (517, 390), (517, 390), (517, 390), (517, 390), (517, 390), (517, 390), (517, 390), (517, 390), (517, 391), (517, 392), (517, 393), (517, 394), (517, 394), (517, 395), (517, 395), (517, 395), (517, 395), (517, 395), (517, 395), (517, 395), (518, 395), (518, 395), (518, 395), (518, 395), (519, 395), (521, 395), (521, 395), (521, 395), (522, 395), (523, 395), (525, 395), (526, 395), (527, 394), (529, 394), (530, 394), (530, 394), (532, 393), (532, 393), (532, 393), (532, 393), (532, 393), (532, 393), (532, 393), (532, 393), (532, 393), (532, 393), (532, 393), (532, 393), (532, 393), (532, 393), (533, 393), (533, 393), (533, 392), (534, 392), (534, 391), (534, 391), (534, 391), (534, 391), (534, 391), (534, 391), (534, 391), (534, 391), (534, 391), (534, 391), (534, 391), (534, 391), (534, 391), (534, 391), (534, 391), (534, 391), (534, 391), (534, 391), (534, 391), (534, 391), (534, 391), (534, 391), (534, 391), (534, 391), (534, 391), (534, 391), (534, 391), (534, 391), (534, 391), (534, 391), (534, 391), (534, 391), (534, 391), (533, 391), (527, 391), (524, 391), (521, 391), (517, 391), (514, 391), (509, 391), (507, 391), (505, 391), (501, 392), (499, 392), (496, 392), (496, 392), (495, 392), (493, 393), (492, 393), (491, 394), (491, 394), (490, 394), (490, 394), (490, 394), (490, 394), (490, 394), (490, 394), (490, 394), (490, 394), (490, 394), (489, 394), (489, 394), (489, 394), (489, 394), (489, 394), (489, 394), (489, 394), (489, 394), (489, 394), (489, 394), (489, 394), (489, 394), (489, 394), (489, 394), (484, 394), (481, 394), (477, 394), (473, 394), (464, 394), (460, 394), (453, 394), (446, 394), (437, 394), (432, 394), (424, 394), (419, 394), (414, 394), (402, 394), (396, 394), (388, 394), (380, 394), (361, 394), (350, 394), (339, 394), (328, 394), (307, 394), (296, 394), (283, 394), (255, 394)]",177.77171634405838,"[3, 8, 7, 5, 6, 9, 1, 2, 4]","(0, 0.25)",DOT006D,DOT,D,Chinese,Mon Oct 15 13:15:22 2018,Mouse
2,3,4,0,8,8,8,1,686,316,370,147,0,500,200,8000,"[(512, 384), (512, 384), (512, 384), (512, 384), (512, 384), (512, 384), (512, 384), (512, 384), (512, 384), (512, 384), (512, 384), (512, 384), (512, 384), (512, 384), (512, 384), (512, 384), (512, 384), (512, 384), (512, 384), (512, 384), (512, 384), (512, 384), (512, 384), (512, 384), (512, 384), (512, 384), (512, 384), (512, 384), (512, 384), (512, 384), (512, 384), (509, 386), (509, 389), (509, 389), (509, 389), (509, 392), (508, 394), (508, 396), (507, 397), (505, 402), (504, 403), (504, 405), (504, 408), (503, 410), (503, 412), (502, 416), (502, 419), (502, 427), (502, 433), (503, 438), (506, 447), (513, 462), (518, 468), (525, 476), (530, 483), (546, 496), (552, 503), (561, 512), (569, 521), (586, 539), (594, 549), (601, 557), (607, 563), (616, 575), (620, 579), (622, 584), (627, 590), (632, 598), (635, 603)]",60.67952412241925,"[3, 8, 7, 5, 6, 9, 1, 2, 4]","(0, 0.25)",DOT006D,DOT,D,Chinese,Mon Oct 15 13:15:22 2018,Mouse
2,3,4,0,9,2,2,1,933,323,610,146,0,500,200,8000,"[(512, 384), (512, 384), (512, 384), (512, 384), (512, 384), (512, 384), (512, 384), (512, 384), (512, 384), (512, 384), (512, 384), (512, 384), (512, 384), (512, 384), (512, 384), (512, 384), (512, 384), (512, 384), (512, 384), (512, 384), (512, 384), (512, 384), (512, 384), (512, 384), (512, 384), (512, 384), (512, 384), (512, 384), (512, 384), (512, 384), (512, 384), (512, 384), (512, 385), (512, 385), (512, 385), (512, 385), (512, 385), (512, 386), (512, 386), (512, 386), (512, 386), (512, 386), (512, 386), (513, 386), (514, 386), (514, 386), (514, 386), (514, 386), (514, 386), (514, 386), (514, 386), (514, 386), (515, 386), (515, 386), (515, 386), (516, 386), (516, 386), (518, 386), (518, 386), (518, 386), (519, 385), (519, 385), (521, 383), (524, 380), (527, 374), (530, 369), (532, 366), (537, 357), (541, 349), (544, 342), (547, 337), (555, 318), (558, 310), (562, 300), (564, 290), (568, 272), (570, 262), (573, 255), (575, 248), (583, 235), (588, 228), (591, 223), (598, 217), (605, 206), (607, 202), (609, 197), (612, 194), (617, 184), (618, 182), (621, 178), (623, 175), (629, 169), (632, 168), (636, 164)]",299.40718906073363,"[3, 8, 7, 5, 6, 9, 1, 2, 4]","(0, 0.25)",DOT006D,DOT,D,Chinese,Mon Oct 15 13:15:22 2018,Mouse
2,3,4,0,10,1,1,1,505,245,260,145,0,500,200,8000,"[(512, 384), (512, 384), (512, 384), (512, 384), (512, 384), (512, 384), (512, 384), (512, 384), (512, 384), (512, 384), (512, 384), (512, 384), (512, 384), (512, 384), (512, 384), (512, 384), (512, 384), (512, 384), (512, 384), (512, 384), (512, 384), (512, 384), (512, 384), (512, 384), (512, 387), (510, 389), (510, 389), (510, 389), (510, 389), (510, 387), (510, 383), (506, 373), (505, 362), (501, 336), (498, 324), (495, 313), (493, 302), (486, 278), (484, 267), (483, 255), (482, 243), (482, 220), (482, 210), (482, 199), (482, 191), (484, 174), (485, 168), (486, 160), (486, 153), (489, 138), (490, 132)]",265.0106374303578,"[3, 8, 7, 5, 6, 9, 1, 2, 4]","(0, 0.25)",DOT006D,DOT,D,Chinese,Mon Oct 15 13:15:22 2018,Mouse
2,3,4,0,11,7,7,1,782,542,240,144,0,500,200,8000,"[(512, 384), (512, 384), (512, 384), (512, 384), (512, 384), (512, 384), (512, 384), (512, 384), (512, 384), (512, 384), (512, 384), (512, 384), (512, 384), (512, 384), (512, 384), (512, 384), (512, 384), (512, 384), (512, 384), (512, 384), (512, 384), (512, 384), (512, 384), (512, 384), (512, 384), (512, 384), (512, 384), (512, 384), (512, 384), (512, 384), (512, 384), (512, 384), (512, 384), (512, 384), (512, 384), (512, 384), (512, 384), (512, 384), (512, 384), (512, 384), (512, 384), (512, 384), (512, 384), (512, 384), (512, 384), (512, 384), (512, 384), (512, 384), (512, 384), (512, 384), (512, 384), (512, 384), (512, 384), (512, 384), (512, 385), (512, 382), (512, 382), (512, 382), (512, 382), (512, 383), (511, 385), (507, 390), (506, 393), (501, 412), (498, 423), (495, 435), (494, 449), (488, 482), (485, 501), (482, 515), (478, 527), (473, 547), (472, 555), (469, 565), (466, 576), (461, 597), (460, 608), (458, 619), (456, 630)]",102.82439810223515,"[3, 8, 7, 5, 6, 9, 1, 2, 4]","(0, 0.25)",DOT006D,DOT,D,Chinese,Mon Oct 15 13:15:22 2018,Mouse
2,3,4,0,12,5,7,0,-812,582,230,143,0,500,200,8000,"[(512, 384), (512, 384), (512, 384), (512, 384), (512, 384), (512, 384), (512, 384), (512, 384), (512, 384), (512, 384), (512, 384), (512, 384), (512, 384), (512, 384), (512, 384), (512, 384), (512, 384), (512, 384), (512, 384), (512, 384), (512, 384), (512, 384), (512, 384), (512, 384), (512, 384), (512, 384), (512, 384), (512, 384), (512, 384), (512, 384), (512, 384), (512, 384), (512, 384), (512, 384), (512, 384), (512, 384), (512, 384), (512, 384), (512, 384), (512, 384), (512, 384), (512, 384), (512, 384), (512, 384), (512, 384), (512, 384), (512, 384), (512, 384), (512, 384), (512, 384), (512, 384), (512, 384), (512, 384), (512, 384), (512, 384), (512, 384), (512, 384), (512, 384), (511, 389), (509, 395), (506, 403), (503, 428), (500, 440), (496, 453), (493, 464), (488, 485), (484, 499), (482, 513), (482, 525), (477, 552), (477, 564), (477, 575), (475, 593), (472, 601), (471, 604), (469, 610), (468, 613), (465, 618), (464, 621), (463, 623), (461, 628), (458, 636)]",102.0947570770121,"[3, 8, 7, 5, 6, 9, 1, 2, 4]","(0, 0.25)",DOT006D,DOT,D,Chinese,Mon Oct 15 13:15:22 2018,Mouse
2,3,4,0,13,8,8,1,1182,232,950,144,0,500,200,8000,"[(512, 384), (512, 384), (512, 384), (512, 384), (512, 384), (512, 384), (512, 384), (512, 384), (512, 384), (512, 384), (512, 384), (512, 384), (512, 384), (512, 384), (512, 384), (512, 384), (512, 384), (512, 384), (512, 384), (512, 384), (512, 384), (512, 384), (512, 384), (511, 383), (509, 382), (507, 380), (507, 380), (507, 380), (507, 380), (507, 380), (507, 380), (507, 380), (507, 380), (507, 380), (507, 380), (507, 380), (507, 380), (507, 380), (507, 380), (507, 380), (507, 380), (507, 380), (507, 380), (507, 380), (507, 380), (507, 380), (507, 380), (507, 380), (507, 380), (507, 380), (507, 380), (507, 380), (507, 380), (507, 380), (507, 380), (507, 380), (507, 380), (507, 380), (507, 380), (507, 380), (507, 380), (507, 380), (507, 380), (507, 380), (507, 380), (507, 380), (507, 380), (507, 380), (507, 380), (507, 380), (507, 380), (507, 380), (507, 380), (507, 380), (507, 380), (507, 380), (507, 380), (507, 380), (507, 380), (507, 380), (507, 380), (507, 380), (507, 380), (507, 380), (507, 380), (507, 380), (507, 380), (507, 380), (508, 380), (508, 380), (508, 380), (508, 380), (509, 380), (509, 380), (509, 380), (509, 380), (509, 380), (509, 380), (511, 380), (516, 386), (520, 391), (525, 398), (528, 403), (539, 418), (546, 426), (552, 432), (560, 441), (575, 459), (583, 469), (593, 480), (601, 490), (616, 510), (624, 522), (632, 532), (639, 542), (655, 563), (661, 571), (666, 580), (670, 585)]",51.8301864665432,"[3, 8, 7, 5, 6, 9, 1, 2, 4]","(0, 0.25)",DOT006D,DOT,D,Chinese,Mon Oct 15 13:15:22 2018,Mouse
2,3,4,0,14,1,1,1,695,155,540,144,0,500,200,8000,"[(512, 384), (512, 384), (512, 384), (512, 384), (512, 384), (512, 384), (512, 384), (512, 384), (512, 384), (512, 384), (512, 384), (512, 384), (512, 384), (512, 384), (512, 384), (511, 384), (511, 384), (511, 384), (511, 384), (511, 384), (511, 384), (511, 384), (511, 385), (511, 385), (511, 386), (511, 386), (511, 386), (511, 386), (511, 386), (511, 386), (511, 386), (511, 386), (511, 386), (511, 386), (511, 386), (511, 386), (511, 386), (511, 386), (511, 386), (511, 386), (511, 386), (512, 382), (513, 376), (514, 370), (517, 355), (518, 345), (519, 335), (520, 326), (522, 310), (522, 304), (522, 295), (522, 288), (518, 271), (516, 264), (512, 256), (511, 250), (508, 238), (508, 234), (507, 229), (506, 224), (501, 209), (500, 203), (496, 195), (494, 186), (490, 172), (489, 163), (486, 157), (485, 152), (484, 139), (482, 134)]",263.15722658736905,"[3, 8, 7, 5, 6, 9, 1, 2, 4]","(0, 0.25)",DOT006D,DOT,D,Chinese,Mon Oct 15 13:15:22 2018,Mouse
2,3,4,0,15,6,6,1,1101,51,1050,143,0,500,200,8000,"[(512, 384), (512, 384), (512, 384), (512, 384), (512, 384), (512, 383), (512, 383), (512, 383), (512, 383), (512, 383), (512, 383), (512, 383), (512, 383), (512, 383), (512, 383), (512, 383), (512, 383), (512, 383), (512, 383), (512, 383), (512, 383), (512, 383), (512, 383), (512, 383), (512, 383), (512, 383), (512, 383), (512, 383), (512, 383), (512, 383), (512, 383), (512, 383), (512, 383), (512, 383), (512, 383), (512, 383), (512, 383), (512, 383), (512, 383), (512, 383), (512, 383), (512, 383), (512, 383), (512, 383), (512, 383), (512, 383), (512, 383), (513, 383), (513, 383), (513, 383), (513, 383), (513, 384), (513, 384), (513, 384), (513, 384), (513, 384), (513, 384), (513, 384), (513, 384), (513, 384), (513, 384), (513, 384), (513, 384), (513, 384), (513, 385), (513, 385), (513, 385), (511, 387), (510, 387), (509, 388), (509, 389), (509, 389), (509, 389), (509, 389), (509, 389), (508, 389), (507, 389), (507, 390), (506, 391), (504, 392), (504, 392), (502, 393), (501, 393), (500, 394), (499, 394), (499, 394), (497, 394), (494, 394), (491, 394), (489, 394), (483, 394), (472, 394), (465, 394), (459, 394), (453, 394), (441, 394), (434, 394), (428, 394), (419, 394), (402, 394), (394, 394), (386, 394), (375, 394), (356, 394), (345, 394), (331, 394), (319, 394), (293, 394), (280, 394), (266, 394), (254, 394)]",177.7803444468021,"[3, 8, 7, 5, 6, 9, 1, 2, 4]","(0, 0.25)",DOT006D,DOT,D,Chinese,Mon Oct 15 13:15:22 2018,Mouse
2,3,4,0,16,3,3,1,1043,13,1030,142,0,500,200,8000,"[(512, 384), (514, 381), (514, 381), (514, 379), (514, 377), (514, 375), (514, 375), (514, 375), (514, 374), (514, 374), (514, 374), (514, 374), (514, 374), (514, 374), (514, 374), (514, 374), (514, 374), (514, 374), (514, 374), (514, 374), (514, 374), (514, 374), (514, 374), (514, 374), (514, 374), (514, 374), (514, 374), (514, 374), (514, 374), (514, 374), (514, 374), (514, 374), (514, 374), (514, 374), (514, 374), (514, 374), (514, 374), (514, 374), (514, 374), (514, 374), (514, 374), (514, 374), (514, 374), (514, 374), (514, 374), (514, 374), (514, 374), (514, 374), (514, 374), (514, 374), (514, 374), (514, 374), (514, 374), (514, 375), (514, 376), (515, 378), (515, 378), (515, 378), (515, 378), (515, 378), (515, 378), (515, 378), (515, 378), (515, 378), (515, 378), (515, 378), (515, 378), (515, 378), (515, 378), (515, 378), (515, 378), (515, 378), (515, 378), (515, 378), (515, 378), (515, 378), (517, 378), (522, 379), (524, 382), (526, 382), (529, 385), (535, 390), (537, 391), (541, 394), (546, 398), (555, 405), (560, 408), (564, 410), (567, 414), (574, 418), (580, 422), (585, 427), (589, 431), (602, 439), (612, 445), (621, 449), (631, 454), (652, 464), (667, 470), (677, 474), (690, 481), (710, 494), (719, 499), (725, 501), (734, 507)]",28.988822521191544,"[3, 8, 7, 5, 6, 9, 1, 2, 4]","(0, 0.25)",DOT006D,DOT,D,Chinese,Mon Oct 15 13:15:22 2018,Mouse
2,3,4,0,17,3,3,1,392,92,300,141,0,500,200,8000,"[(512, 384), (512, 384), (512, 384), (512, 384), (512, 384), (512, 384), (512, 384), (512, 384), (512, 384), (510, 384), (510, 384), (510, 384), (510, 384), (510, 386), (510, 386), (510, 386), (512, 387), (512, 387), (514, 388), (518, 390), (520, 391), (527, 392), (532, 394), (536, 396), (540, 397), (547, 400), (553, 401), (559, 404), (568, 410), (585, 419), (591, 423), (600, 427), (620, 436), (636, 442), (654, 449), (676, 455), (697, 464), (721, 476), (733, 480), (743, 485)]",23.616364835238254,"[3, 8, 7, 5, 6, 9, 1, 2, 4]","(0, 0.25)",DOT006D,DOT,D,Chinese,Mon Oct 15 13:15:22 2018,Mouse
2,3,4,0,18,7,7,1,771,491,280,140,0,500,200,8000,"[(512, 384), (512, 384), (512, 384), (512, 384), (512, 384), (512, 384), (512, 384), (512, 384), (512, 384), (512, 384), (512, 384), (512, 384), (512, 384), (512, 384), (512, 384), (512, 384), (512, 384), (512, 384), (512, 384), (512, 384), (512, 384), (512, 384), (512, 384), (512, 384), (512, 384), (512, 384), (512, 384), (512, 384), (512, 384), (512, 384), (512, 384), (512, 384), (512, 384), (512, 384), (512, 384), (512, 384), (512, 384), (512, 384), (512, 384), (512, 384), (512, 384), (512, 384), (512, 384), (512, 384), (512, 384), (512, 384), (512, 384), (512, 384), (512, 384), (512, 390), (512, 394), (512, 394), (512, 394), (510, 398), (507, 403), (505, 407), (501, 413), (494, 426), (488, 433), (486, 439), (482, 445), (478, 454), (471, 469), (469, 477), (465, 484), (460, 500), (457, 510), (454, 519), (453, 527), (449, 550), (448, 560), (446, 571), (443, 581), (442, 598), (440, 606), (440, 612), (440, 620), (440, 636)]",105.94539590092286,"[3, 8, 7, 5, 6, 9, 1, 2, 4]","(0, 0.25)",DOT006D,DOT,D,Chinese,Mon Oct 15 13:15:22 2018,Mouse
2,3,4,0,19,9,9,1,1092,372,720,139,0,500,200,8000,"[(512, 384), (512, 384), (512, 384), (512, 384), (512, 384), (512, 384), (512, 384), (512, 384), (512, 384), (512, 384), (512, 384), (512, 384), (512, 384), (512, 384), (512, 384), (512, 384), (512, 384), (512, 384), (512, 384), (512, 384), (512, 384), (512, 384), (512, 384), (512, 384), (512, 384), (512, 384), (512, 384), (512, 384), (512, 384), (512, 384), (512, 384), (512, 384), (512, 384), (512, 384), (512, 384), (512, 384), (512, 384), (509, 384), (508, 384), (508, 384), (508, 384), (508, 384), (508, 384), (508, 386), (508, 386), (508, 386), (508, 386), (508, 386), (508, 386), (508, 386), (508, 386), (508, 386), (508, 386), (508, 386), (508, 386), (508, 386), (508, 386), (508, 386), (508, 386), (508, 386), (508, 386), (508, 386), (508, 386), (508, 386), (508, 386), (507, 387), (507, 387), (506, 387), (504, 387), (503, 387), (503, 387), (502, 387), (497, 388), (493, 388), (490, 388), (487, 388), (482, 388), (480, 388), (479, 388), (477, 388), (474, 388), (473, 388), (473, 388), (473, 388), (471, 388), (470, 388), (468, 388), (466, 388), (460, 387), (456, 384), (451, 380), (446, 377), (434, 368), (426, 361), (419, 354), (411, 347), (394, 331), (388, 322), (380, 313), (372, 304), (357, 285), (352, 276), (346, 268), (341, 261), (331, 248), (328, 243), (325, 240), (322, 235), (316, 229), (315, 228)]",218.37493413410624,"[3, 8, 7, 5, 6, 9, 1, 2, 4]","(0, 0.25)",DOT006D,DOT,D,Chinese,Mon Oct 15 13:15:22 2018,Mouse
2,3,4,0,20,6,6,1,1061,201,860,138,0,500,200,8000,"[(512, 384), (512, 384), (512, 384), (512, 384), (512, 384), (512, 384), (512, 384), (512, 384), (512, 384), (512, 384), (512, 384), (512, 384), (512, 384), (512, 384), (512, 384), (512, 384), (512, 384), (512, 384), (512, 384), (512, 384), (516, 384), (520, 384), (525, 378), (525, 378), (525, 378), (525, 378), (525, 378), (525, 378), (525, 378), (525, 378), (525, 378), (525, 378), (525, 378), (525, 378), (525, 378), (525, 378), (525, 378), (525, 378), (525, 378), (525, 378), (525, 378), (525, 378), (525, 378), (525, 378), (525, 378), (525, 378), (525, 378), (525, 378), (525, 378), (525, 378), (525, 378), (525, 378), (525, 378), (525, 378), (525, 378), (525, 378), (525, 378), (525, 378), (525, 378), (525, 378), (525, 378), (525, 378), (525, 378), (525, 378), (525, 378), (525, 378), (527, 378), (527, 380), (528, 380), (528, 380), (528, 380), (528, 380), (528, 380), (528, 380), (528, 380), (528, 380), (528, 380), (528, 380), (528, 380), (528, 380), (528, 381), (528, 381), (528, 381), (528, 381), (528, 383), (528, 384), (527, 385), (524, 385), (519, 389), (515, 390), (508, 393), (502, 394), (487, 394), (479, 394), (469, 394), (459, 394), (432, 394), (419, 394), (404, 394), (391, 394), (364, 394), (349, 394), (332, 394), (315, 394), (285, 394), (270, 394), (257, 394)]",177.75425743410491,"[3, 8, 7, 5, 6, 9, 1, 2, 4]","(0, 0.25)",DOT006D,DOT,D,Chinese,Mon Oct 15 13:15:22 2018,Mouse
2,3,4,0,21,5,5,1,1348,567,781,137,0,500,200,8000,"[(512, 384), (512, 384), (512, 384), (512, 384), (512, 384), (512, 384), (512, 384), (512, 384), (512, 384), (512, 384), (512, 384), (512, 384), (512, 384), (512, 384), (512, 384), (512, 384), (512, 384), (512, 384), (512, 384), (512, 384), (512, 384), (512, 384), (512, 384), (512, 384), (512, 384), (512, 384), (512, 384), (512, 384), (512, 384), (512, 384), (512, 384), (512, 384), (512, 384), (512, 384), (512, 384), (512, 384), (512, 384), (512, 384), (512, 384), (512, 384), (512, 384), (512, 384), (512, 384), (512, 384), (512, 384), (512, 384), (512, 384), (512, 384), (512, 384), (512, 384), (512, 384), (512, 384), (512, 384), (512, 384), (512, 384), (512, 384), (512, 385), (511, 388), (509, 391), (509, 391), (509, 391), (508, 392), (507, 394), (506, 395), (505, 398), (501, 408), (498, 414), (496, 424), (493, 432), (489, 449), (486, 459), (482, 470), (480, 480), (476, 501), (475, 510), (474, 521), (472, 533), (469, 551), (466, 558), (465, 562), (464, 567), (462, 571), (462, 571), (462, 571), (462, 571), (462, 571), (462, 571), (462, 571), (462, 571), (462, 571), (462, 571), (462, 571), (462, 571), (462, 571), (462, 571), (462, 571), (462, 571), (462, 571), (462, 571), (462, 569), (463, 569), (465, 566), (465, 565), (467, 562), (467, 561), (471, 553), (473, 548), (474, 545), (475, 543), (477, 537), (477, 536), (477, 534), (477, 533), (477, 528), (477, 526), (477, 525), (477, 523), (475, 522), (474, 522), (470, 522), (468, 522), (461, 522), (457, 522), (452, 522), (443, 522), (424, 522), (418, 522), (406, 523), (397, 524), (369, 529), (358, 530), (349, 531), (337, 535), (318, 537), (310, 539)]",142.50000920696505,"[3, 8, 7, 5, 6, 9, 1, 2, 4]","(0, 0.25)",DOT006D,DOT,D,Chinese,Mon Oct 15 13:15:22 2018,Mouse
2,3,4,0,22,8,6,0,-892,522,370,136,0,500,200,8000,"[(512, 384), (512, 384), (512, 384), (512, 384), (512, 384), (512, 384), (512, 384), (512, 384), (512, 384), (512, 384), (512, 384), (512, 384), (512, 384), (512, 384), (512, 384), (512, 384), (512, 384), (512, 384), (512, 384), (512, 384), (512, 384), (512, 384), (512, 384), (512, 384), (512, 384), (512, 384), (512, 384), (512, 384), (512, 384), (512, 384), (512, 384), (512, 384), (512, 384), (512, 384), (512, 384), (512, 384), (512, 384), (512, 384), (512, 384), (512, 384), (512, 384), (512, 384), (512, 384), (512, 384), (512, 384), (512, 384), (512, 384), (512, 384), (512, 384), (512, 384), (512, 384), (512, 384), (512, 386), (512, 388), (512, 389), (512, 389), (512, 389), (512, 389), (512, 389), (512, 389), (512, 389), (512, 389), (512, 389), (512, 389), (512, 389), (512, 389), (512, 389), (512, 389), (512, 389), (510, 389), (492, 389), (481, 389), (470, 389), (458, 389), (435, 389), (418, 389), (404, 389), (391, 389), (366, 389), (356, 389), (343, 389), (333, 389), (311, 389), (301, 389), (294, 389), (287, 389), (276, 389), (272, 389), (265, 389), (260, 389)]",178.8633281224012,"[3, 8, 7, 5, 6, 9, 1, 2, 4]","(0, 0.25)",DOT006D,DOT,D,Chinese,Mon Oct 15 13:15:22 2018,Mouse
2,3,4,0,23,2,7,0,-1470,250,1220,137,0,500,200,8000,"[(512, 384), (512, 384), (512, 384), (512, 384), (512, 384), (512, 384), (512, 384), (512, 384), (512, 384), (512, 384), (512, 384), (512, 384), (512, 384), (512, 384), (512, 384), (512, 384), (512, 384), (512, 384), (512, 384), (512, 384), (512, 384), (512, 384), (512, 384), (512, 384), (514, 384), (515, 383), (516, 383), (516, 383), (516, 383), (516, 383), (516, 383), (516, 383), (516, 383), (516, 383), (516, 383), (516, 383), (516, 383), (516, 383), (516, 383), (516, 383), (516, 383), (516, 383), (516, 383), (516, 383), (516, 383), (516, 383), (516, 383), (516, 383), (516, 383), (516, 383), (516, 383), (516, 383), (516, 383), (516, 383), (516, 383), (516, 383), (516, 383), (516, 383), (516, 383), (516, 383), (516, 383), (516, 383), (516, 383), (516, 383), (516, 383), (516, 383), (516, 383), (516, 383), (515, 383), (515, 383), (515, 383), (515, 383), (515, 383), (515, 383), (515, 383), (515, 383), (515, 383), (515, 383), (515, 383), (515, 383), (515, 383), (515, 383), (515, 383), (515, 383), (515, 383), (515, 383), (515, 383), (515, 383), (515, 383), (515, 383), (515, 383), (515, 383), (515, 383), (515, 383), (515, 383), (515, 383), (515, 383), (515, 383), (515, 385), (515, 386), (514, 390), (513, 392), (513, 394), (512, 397), (511, 401), (511, 403), (511, 404), (511, 404), (511, 405), (511, 406), (511, 406), (511, 406), (511, 406), (511, 406), (511, 406), (511, 407), (511, 412), (511, 419), (511, 426), (511, 434), (511, 452), (510, 460), (507, 468), (506, 472), (504, 483), (502, 489), (500, 495), (497, 503), (492, 516), (490, 522), (485, 530), (485, 536), (478, 551), (475, 557), (473, 563), (470, 569), (465, 579), (464, 583), (462, 587), (461, 592), (459, 599), (459, 606), (457, 611), (457, 617), (457, 624), (457, 626), (457, 629)]",102.65255650055798,"[3, 8, 7, 5, 6, 9, 1, 2, 4]","(0, 0.25)",DOT006D,DOT,D,Chinese,Mon Oct 15 13:15:22 2018,Mouse
2,3,4,0,24,5,5,1,462,172,290,138,0,500,200,8000,"[(512, 384), (512, 384), (512, 384), (512, 384), (512, 384), (512, 384), (512, 384), (512, 384), (512, 384), (512, 384), (512, 384), (512, 384), (512, 384), (512, 384), (512, 384), (512, 384), (512, 384), (511, 385), (507, 391), (505, 393), (504, 393), (504, 393), (503, 393), (502, 393), (500, 393), (499, 394), (492, 396), (488, 398), (484, 399), (477, 401), (456, 412), (443, 415), (433, 418), (424, 422), (401, 429), (390, 435), (380, 441), (367, 446), (343, 457), (334, 462), (327, 466), (320, 473), (309, 484), (305, 492), (301, 499), (297, 508), (292, 521)]",148.08835213489624,"[3, 8, 7, 5, 6, 9, 1, 2, 4]","(0, 0.25)",DOT006D,DOT,D,Chinese,Mon Oct 15 13:15:22 2018,Mouse
2,3,4,0,25,1,1,1,484,54,430,138,0,500,200,8000,"[(512, 384), (512, 384), (512, 384), (512, 384), (512, 384), (513, 384), (513, 384), (513, 384), (513, 384), (513, 384), (513, 384), (513, 384), (513, 384), (513, 384), (513, 384), (513, 384), (513, 384), (513, 384), (513, 384), (513, 384), (513, 384), (513, 384), (513, 384), (513, 384), (513, 384), (513, 384), (513, 384), (513, 384), (514, 383), (516, 382), (517, 381), (517, 378), (520, 371), (521, 366), (522, 359), (524, 348), (524, 328), (524, 318), (524, 306), (523, 295), (516, 265), (512, 253), (510, 239), (508, 223), (504, 194), (499, 180), (498, 166), (493, 152), (487, 127)]",264.4439615768749,"[3, 8, 7, 5, 6, 9, 1, 2, 4]","(0, 0.25)",DOT006D,DOT,D,Chinese,Mon Oct 15 13:15:22 2018,Mouse
2,3,4,0,26,1,1,1,402,202,200,137,0,500,200,8000,"[(512, 384), (512, 384), (512, 384), (512, 384), (512, 384), (512, 384), (512, 384), (512, 384), (512, 384), (512, 384), (512, 384), (512, 384), (512, 384), (512, 384), (512, 384), (512, 384), (512, 384), (512, 384), (512, 384), (512, 384), (512, 385), (513, 386), (513, 386), (513, 386), (513, 385), (513, 385), (513, 381), (513, 377), (512, 359), (511, 345), (508, 330), (506, 317), (504, 291), (499, 279), (498, 264), (493, 250), (485, 212), (480, 192), (474, 172), (472, 161), (467, 137)]",259.67474178307253,"[3, 8, 7, 5, 6, 9, 1, 2, 4]","(0, 0.25)",DOT006D,DOT,D,Chinese,Mon Oct 15 13:15:22 2018,Mouse
2,3,4,0,27,5,5,1,825,155,670,136,0,500,200,8000,"[(512, 384), (512, 384), (512, 384), (512, 384), (512, 384), (512, 384), (512, 384), (512, 384), (512, 384), (512, 384), (512, 384), (512, 384), (512, 384), (512, 384), (512, 384), (512, 385), (512, 386), (511, 388), (511, 388), (511, 388), (511, 388), (511, 388), (511, 388), (511, 389), (511, 389), (511, 389), (511, 389), (511, 389), (511, 389), (510, 390), (510, 390), (510, 390), (509, 390), (508, 391), (507, 392), (501, 395), (499, 395), (497, 396), (496, 397), (492, 398), (490, 398), (489, 398), (488, 400), (487, 400), (487, 400), (486, 401), (486, 401), (486, 401), (484, 401), (483, 403), (482, 403), (482, 403), (482, 403), (482, 404), (481, 404), (481, 405), (479, 406), (477, 407), (472, 411), (471, 413), (467, 416), (461, 424), (456, 429), (444, 440), (438, 446), (433, 450), (430, 452), (418, 462), (413, 466), (407, 472), (394, 484), (387, 492), (383, 498), (376, 503), (370, 511), (356, 523), (351, 528), (344, 534), (340, 538), (334, 543), (330, 547), (326, 550), (316, 560)]",138.0774553994244,"[3, 8, 7, 5, 6, 9, 1, 2, 4]","(0, 0.25)",DOT006D,DOT,D,Chinese,Mon Oct 15 13:15:22 2018,Mouse
2,3,4,0,28,5,5,1,522,12,510,135,0,500,200,8000,"[(510, 384), (509, 384), (509, 384), (509, 384), (509, 384), (509, 384), (509, 384), (509, 384), (509, 384), (509, 384), (509, 384), (509, 384), (509, 384), (509, 384), (509, 384), (509, 384), (509, 384), (509, 384), (509, 384), (509, 384), (509, 384), (509, 384), (509, 384), (509, 384), (509, 384), (509, 384), (509, 384), (509, 384), (509, 384), (509, 384), (509, 384), (509, 384), (509, 384), (508, 384), (505, 385), (503, 386), (496, 389), (495, 389), (495, 389), (494, 389), (485, 391), (478, 396), (466, 404), (456, 412), (430, 432), (417, 443), (402, 455), (388, 466), (356, 491), (342, 500), (332, 508), (323, 514), (302, 531)]",145.00797980144134,"[3, 8, 7, 5, 6, 9, 1, 2, 4]","(0, 0.25)",DOT006D,DOT,D,Chinese,Mon Oct 15 13:15:22 2018,Mouse
2,3,4,0,29,9,5,0,-322,122,200,134,0,500,200,8000,"[(512, 384), (512, 384), (512, 384), (512, 384), (512, 384), (512, 384), (512, 384), (512, 384), (512, 384), (512, 384), (512, 384), (512, 384), (510, 387), (505, 391), (503, 391), (502, 392), (496, 394), (491, 398), (487, 400), (480, 404), (466, 409), (458, 414), (448, 418), (440, 421), (416, 438), (401, 452), (391, 461), (379, 470), (353, 497), (338, 514), (329, 525), (316, 539), (300, 561)]",140.14130348993828,"[3, 8, 7, 5, 6, 9, 1, 2, 4]","(0, 0.25)",DOT006D,DOT,D,Chinese,Mon Oct 15 13:15:22 2018,Mouse
2,3,4,0,30,4,4,1,1727,317,1410,135,0,500,200,8000,"[(512, 384), (512, 384), (512, 384), (512, 384), (512, 384), (512, 384), (512, 384), (512, 384), (512, 384), (512, 384), (512, 384), (512, 384), (512, 384), (512, 384), (512, 384), (512, 384), (512, 384), (512, 384), (512, 384), (512, 384), (512, 384), (512, 384), (512, 384), (512, 384), (512, 384), (512, 384), (512, 384), (512, 384), (512, 384), (512, 384), (512, 384), (510, 384), (510, 386), (510, 389), (510, 390), (510, 391), (510, 391), (510, 391), (510, 391), (510, 391), (510, 391), (510, 391), (510, 391), (510, 391), (510, 391), (510, 391), (510, 391), (510, 391), (510, 391), (510, 391), (507, 391), (506, 391), (504, 391), (504, 391), (504, 391), (504, 391), (504, 391), (504, 391), (504, 391), (504, 391), (504, 391), (504, 391), (504, 391), (504, 391), (504, 391), (504, 391), (504, 391), (504, 391), (504, 391), (504, 391), (504, 391), (504, 390), (504, 388), (504, 388), (504, 386), (504, 384), (504, 383), (504, 383), (504, 383), (504, 383), (504, 383), (504, 383), (504, 383), (504, 383), (504, 383), (504, 383), (504, 383), (504, 383), (504, 383), (504, 383), (504, 383), (504, 383), (504, 383), (504, 383), (504, 383), (504, 383), (504, 383), (504, 383), (504, 383), (504, 383), (504, 383), (504, 383), (504, 383), (504, 383), (504, 383), (504, 383), (504, 383), (504, 383), (504, 383), (504, 383), (504, 383), (504, 383), (504, 383), (504, 383), (504, 383), (504, 383), (504, 383), (504, 383), (504, 383), (504, 383), (504, 383), (504, 383), (504, 383), (504, 383), (504, 383), (504, 383), (504, 383), (504, 383), (504, 383), (504, 383), (504, 383), (504, 383), (504, 383), (504, 383), (504, 383), (504, 383), (504, 383), (504, 383), (504, 383), (504, 383), (504, 383), (504, 383), (504, 383), (504, 383), (504, 383), (504, 383), (504, 383), (504, 383), (504, 383), (507, 382), (511, 380), (523, 376), (533, 372), (543, 370), (553, 367), (575, 359), (588, 356), (600, 352), (616, 347), (642, 340), (653, 336), (663, 331), (670, 329), (690, 320), (699, 316), (706, 315), (712, 313), (722, 310), (730, 308), (735, 306), (740, 305), (748, 302), (750, 300)]",340.5599651718238,"[3, 8, 7, 5, 6, 9, 1, 2, 4]","(0, 0.25)",DOT006D,DOT,D,Chinese,Mon Oct 15 13:15:22 2018,Mouse
2,3,4,0,31,7,5,0,-550,30,520,135,0,500,200,8000,"[(510, 385), (510, 385), (509, 385), (508, 385), (508, 385), (508, 385), (508, 385), (508, 385), (508, 385), (508, 385), (508, 385), (508, 385), (508, 385), (508, 385), (508, 385), (508, 385), (508, 385), (508, 385), (508, 385), (508, 385), (508, 385), (508, 385), (508, 385), (508, 385), (508, 385), (508, 385), (508, 385), (508, 385), (510, 387), (510, 387), (510, 387), (510, 387), (510, 387), (510, 387), (509, 387), (502, 391), (497, 395), (495, 397), (489, 403), (476, 414), (466, 421), (456, 428), (443, 435), (412, 449), (399, 455), (388, 460), (377, 466), (357, 475), (349, 478), (341, 482), (334, 486), (318, 500), (310, 506), (303, 513), (294, 518)]",148.4218350678862,"[3, 8, 7, 5, 6, 9, 1, 2, 4]","(0, 0.25)",DOT006D,DOT,D,Chinese,Mon Oct 15 13:15:22 2018,Mouse
2,3,4,0,32,1,5,0,-640,350,290,136,0,500,200,8000,"[(512, 384), (512, 384), (512, 384), (512, 384), (512, 384), (512, 384), (512, 384), (512, 384), (512, 384), (512, 384), (512, 384), (512, 384), (512, 384), (512, 384), (512, 384), (512, 384), (512, 384), (512, 384), (512, 384), (512, 384), (512, 384), (512, 384), (512, 384), (512, 384), (512, 384), (512, 384), (512, 384), (512, 384), (512, 384), (512, 384), (512, 384), (512, 384), (512, 384), (512, 384), (514, 387), (515, 388), (515, 391), (515, 391), (515, 393), (515, 393), (514, 395), (511, 399), (508, 403), (494, 413), (491, 415), (483, 419), (475, 426), (465, 435), (447, 452), (438, 460), (426, 469), (417, 477), (401, 490), (394, 494), (386, 501), (379, 504), (364, 512), (358, 517), (353, 519), (342, 529), (335, 534), (329, 538), (322, 542), (317, 544)]",140.63068275763524,"[3, 8, 7, 5, 6, 9, 1, 2, 4]","(0, 0.25)",DOT006D,DOT,D,Chinese,Mon Oct 15 13:15:22 2018,Mouse
2,3,4,0,33,9,7,0,-3133,93,3040,137,0,500,200,8000,"[(512, 384), (512, 384), (512, 384), (512, 384), (512, 384), (512, 384), (512, 384), (512, 384), (512, 384), (511, 384), (511, 384), (511, 384), (511, 384), (511, 384), (511, 384), (511, 384), (511, 384), (511, 384), (511, 384), (511, 384), (511, 384), (511, 384), (511, 384), (511, 384), (511, 384), (511, 384), (511, 384), (511, 384), (511, 384), (511, 384), (511, 384), (511, 384), (511, 384), (511, 384), (511, 384), (511, 384), (511, 384), (511, 384), (511, 384), (511, 384), (511, 384), (511, 384), (511, 384), (511, 384), (511, 384), (506, 388), (505, 388), (504, 388), (504, 389), (504, 389), (504, 389), (504, 389), (504, 389), (504, 389), (504, 389), (504, 389), (504, 389), (504, 389), (503, 389), (501, 389), (493, 389), (489, 389), (484, 388), (480, 387), (475, 386), (475, 386), (474, 386), (474, 386), (473, 386), (473, 386), (473, 386), (473, 386), (473, 386), (473, 386), (473, 386), (473, 386), (473, 386), (473, 386), (473, 386), (473, 386), (473, 386), (473, 386), (473, 386), (473, 386), (473, 386), (473, 386), (473, 386), (473, 386), (473, 386), (473, 386), (473, 386), (473, 386), (472, 386), (472, 386), (472, 386), (472, 386), (472, 386), (472, 386), (472, 386), (472, 386), (472, 386), (472, 386), (471, 386), (471, 386), (471, 386), (471, 386), (471, 386), (471, 386), (471, 386), (471, 386), (471, 386), (471, 386), (471, 386), (471, 386), (471, 386), (471, 386), (471, 386), (471, 387), (471, 388), (471, 388), (471, 390), (470, 393), (470, 396), (469, 397), (468, 404), (467, 410), (467, 418), (467, 427), (467, 446), (467, 455), (467, 463), (467, 471), (467, 484), (467, 492), (467, 496), (467, 502), (467, 510), (467, 513), (467, 515), (467, 517), (467, 517), (467, 518), (467, 518), (467, 518), (467, 518), (467, 518), (467, 518), (467, 518), (467, 518), (467, 518), (467, 518), (467, 518), (467, 518), (467, 518), (467, 518), (467, 518), (467, 518), (467, 518), (467, 518), (467, 518), (468, 518), (468, 517), (468, 517), (468, 516), (468, 515), (468, 515), (469, 515), (469, 515), (470, 514), (470, 514), (470, 514), (470, 514), (470, 514), (470, 514), (470, 514), (470, 514), (470, 514), (470, 514), (470, 514), (470, 514), (470, 514), (470, 514), (470, 514), (470, 514), (470, 514), (470, 514), (470, 514), (470, 514), (470, 514), (472, 513), (474, 513), (476, 513), (482, 513), (488, 513), (492, 513), (499, 511), (518, 511), (528, 514), (538, 519), (548, 522), (568, 530), (577, 533), (584, 536), (591, 539), (606, 545), (610, 547), (613, 549), (616, 550), (618, 550), (618, 550), (618, 550), (618, 550), (618, 550), (618, 550), (618, 550), (618, 550), (618, 550), (618, 550), (618, 550), (618, 550), (618, 550), (618, 550), (618, 550), (618, 550), (618, 550), (618, 550), (617, 550), (614, 550), (611, 548), (610, 547), (608, 547), (607, 546), (603, 543), (601, 542), (599, 541), (597, 540), (595, 539), (594, 539), (593, 538), (593, 538), (593, 538), (593, 538), (593, 538), (593, 538), (593, 538), (593, 538), (593, 538), (593, 538), (593, 538), (593, 538), (593, 538), (593, 538), (593, 538), (593, 538), (593, 538), (593, 538), (593, 538), (593, 538), (593, 538), (593, 538), (593, 538), (593, 538), (593, 538), (593, 538), (593, 538), (593, 538), (593, 538), (593, 538), (593, 538), (593, 538), (593, 538), (593, 538), (593, 538), (593, 538), (593, 538), (593, 538), (593, 538), (593, 538), (593, 538), (593, 538), (593, 538), (593, 538), (593, 538), (593, 538), (593, 538), (593, 538), (593, 538), (593, 538), (593, 538), (593, 538), (593, 538), (593, 538), (593, 538), (593, 538), (593, 538), (593, 538), (590, 537), (586, 537), (579, 540), (569, 543), (546, 553), (536, 556), (525, 562), (512, 568), (492, 579), (482, 583), (473, 589), (467, 593), (455, 601), (450, 606), (447, 611), (443, 616), (440, 623), (439, 626)]",106.7860888503416,"[3, 8, 7, 5, 6, 9, 1, 2, 4]","(0, 0.25)",DOT006D,DOT,D,Chinese,Mon Oct 15 13:15:22 2018,Mouse
2,3,4,0,34,4,5,0,-902,22,880,138,0,500,200,8000,"[(512, 384), (512, 384), (512, 383), (512, 383), (512, 383), (512, 383), (512, 383), (512, 383), (512, 383), (512, 383), (511, 382), (511, 381), (511, 381), (511, 381), (511, 381), (511, 381), (511, 381), (511, 381), (511, 381), (511, 381), (511, 381), (511, 381), (511, 381), (511, 381), (511, 381), (511, 381), (511, 381), (511, 381), (511, 381), (511, 381), (511, 381), (511, 381), (511, 381), (511, 381), (511, 381), (511, 381), (511, 381), (511, 381), (511, 381), (511, 381), (511, 381), (511, 381), (511, 381), (511, 381), (511, 381), (511, 381), (511, 381), (511, 381), (513, 381), (518, 386), (518, 391), (518, 395), (518, 395), (518, 395), (518, 395), (518, 395), (518, 395), (518, 395), (517, 395), (516, 395), (515, 396), (515, 396), (514, 397), (514, 397), (513, 398), (513, 398), (510, 399), (507, 401), (506, 402), (503, 405), (502, 405), (491, 412), (485, 415), (480, 419), (472, 423), (455, 432), (445, 438), (435, 443), (428, 449), (408, 460), (397, 468), (387, 473), (377, 479), (356, 491), (348, 497), (341, 503), (334, 508), (322, 518), (318, 520), (313, 525), (308, 529)]",144.5953823021027,"[3, 8, 7, 5, 6, 9, 1, 2, 4]","(0, 0.25)",DOT006D,DOT,D,Chinese,Mon Oct 15 13:15:22 2018,Mouse
2,3,4,0,35,8,8,1,1172,462,710,139,0,500,200,8000,"[(512, 384), (512, 384), (512, 384), (512, 384), (512, 384), (512, 384), (512, 384), (512, 384), (512, 384), (512, 384), (512, 384), (512, 384), (512, 384), (512, 384), (512, 384), (512, 384), (512, 384), (512, 384), (512, 384), (512, 384), (512, 384), (512, 384), (512, 384), (512, 384), (512, 384), (512, 384), (512, 384), (512, 384), (512, 384), (512, 384), (512, 384), (512, 384), (512, 384), (512, 384), (512, 384), (512, 384), (512, 384), (512, 384), (512, 384), (512, 384), (512, 384), (512, 384), (512, 384), (512, 384), (512, 384), (512, 384), (512, 385), (512, 388), (512, 391), (512, 391), (512, 391), (512, 392), (512, 392), (510, 396), (510, 396), (510, 396), (510, 397), (509, 398), (508, 399), (508, 399), (507, 399), (506, 401), (506, 401), (505, 402), (505, 404), (505, 406), (504, 407), (504, 407), (504, 408), (503, 411), (503, 413), (503, 414), (503, 416), (503, 419), (503, 421), (503, 423), (503, 425), (503, 430), (503, 432), (503, 434), (503, 437), (505, 442), (505, 447), (507, 451), (509, 456), (512, 465), (513, 469), (515, 474), (518, 478), (522, 489), (524, 492), (527, 496), (527, 497), (531, 503), (532, 507), (535, 512), (537, 516), (541, 526), (544, 532), (546, 536), (546, 538), (549, 542), (552, 545), (553, 547), (556, 550), (561, 555), (567, 559), (570, 562), (574, 566), (584, 575), (590, 580), (596, 584), (601, 588), (611, 594), (618, 597), (624, 600), (632, 603), (643, 608)]",59.67998918210186,"[3, 8, 7, 5, 6, 9, 1, 2, 4]","(0, 0.25)",DOT006D,DOT,D,Chinese,Mon Oct 15 13:15:22 2018,Mouse
2,3,4,0,36,9,9,1,566,366,200,139,0,500,200,8000,"[(512, 384), (512, 384), (512, 384), (512, 384), (512, 384), (512, 384), (512, 384), (512, 384), (512, 384), (512, 384), (512, 384), (512, 384), (512, 384), (512, 384), (512, 384), (512, 384), (512, 384), (512, 384), (512, 384), (512, 384), (512, 384), (512, 384), (512, 384), (512, 384), (512, 384), (512, 384), (512, 384), (512, 384), (512, 384), (512, 384), (512, 384), (512, 384), (512, 384), (512, 384), (512, 384), (512, 384), (510, 390), (510, 390), (510, 390), (510, 390), (510, 390), (510, 390), (510, 390), (510, 390), (510, 387), (508, 384), (504, 378), (498, 369), (477, 352), (461, 340), (447, 330), (427, 316), (391, 293), (376, 281), (358, 266), (343, 252), (310, 218)]",219.41275603579564,"[3, 8, 7, 5, 6, 9, 1, 2, 4]","(0, 0.25)",DOT006D,DOT,D,Chinese,Mon Oct 15 13:15:22 2018,Mouse
2,3,4,0,37,2,7,0,-942,652,290,138,0,500,200,8000,"[(512, 384), (512, 384), (512, 384), (512, 384), (512, 384), (512, 384), (512, 384), (512, 384), (512, 384), (512, 384), (512, 384), (512, 384), (512, 384), (512, 384), (512, 384), (512, 384), (512, 384), (512, 384), (512, 384), (512, 384), (512, 384), (512, 384), (512, 384), (512, 384), (512, 384), (512, 384), (512, 384), (512, 384), (512, 384), (512, 384), (512, 384), (512, 384), (512, 384), (512, 384), (512, 384), (512, 384), (512, 384), (512, 384), (512, 384), (512, 384), (512, 384), (512, 384), (512, 384), (512, 384), (512, 384), (512, 384), (512, 384), (512, 384), (512, 384), (512, 384), (512, 384), (512, 384), (512, 384), (512, 384), (512, 384), (512, 384), (512, 384), (512, 384), (512, 384), (512, 384), (512, 384), (512, 384), (512, 384), (512, 384), (512, 384), (512, 386), (515, 391), (520, 393), (523, 393), (527, 397), (529, 403), (532, 418), (531, 429), (527, 440), (521, 455), (508, 485), (505, 499), (502, 510), (499, 520), (496, 541), (495, 549), (494, 557), (494, 563), (490, 570), (487, 574), (485, 577), (481, 582), (477, 595), (476, 602), (475, 609), (473, 616), (473, 622), (473, 628), (472, 629), (472, 631)]",99.19880865433738,"[3, 8, 7, 5, 6, 9, 1, 2, 4]","(0, 0.25)",DOT006D,DOT,D,Chinese,Mon Oct 15 13:15:22 2018,Mouse
2,3,4,0,38,7,7,1,753,453,300,139,0,500,200,8000,"[(512, 384), (512, 384), (512, 384), (512, 384), (512, 384), (512, 384), (512, 384), (512, 384), (512, 384), (512, 384), (512, 384), (512, 384), (512, 384), (512, 384), (512, 384), (512, 384), (512, 384), (512, 384), (512, 384), (512, 384), (512, 384), (512, 384), (512, 384), (512, 384), (512, 384), (512, 384), (512, 384), (512, 384), (512, 384), (512, 384), (512, 384), (512, 384), (512, 384), (512, 384), (512, 384), (512, 384), (512, 384), (512, 384), (512, 384), (512, 384), (512, 384), (512, 384), (512, 384), (512, 384), (512, 384), (512, 393), (512, 407), (511, 421), (508, 440), (503, 472), (503, 482), (502, 493), (500, 499), (498, 511), (498, 516), (497, 521), (496, 528), (493, 543), (493, 551), (492, 560), (492, 567), (489, 578), (488, 582), (487, 587), (486, 590), (484, 595), (484, 598), (484, 602), (483, 606), (483, 612), (483, 614), (483, 617), (483, 620), (483, 628), (482, 632), (481, 634)]",97.06859511700317,"[3, 8, 7, 5, 6, 9, 1, 2, 4]","(0, 0.25)",DOT006D,DOT,D,Chinese,Mon Oct 15 13:15:22 2018,Mouse
2,3,4,0,39,3,3,1,1295,215,1080,139,0,500,200,8000,"[(512, 384), (512, 384), (512, 384), (512, 384), (512, 384), (512, 384), (512, 384), (512, 384), (512, 384), (512, 384), (512, 384), (512, 384), (512, 384), (512, 384), (512, 384), (512, 384), (512, 384), (512, 384), (512, 384), (512, 384), (512, 384), (513, 376), (513, 376), (513, 376), (513, 376), (513, 376), (513, 376), (513, 376), (513, 376), (513, 376), (513, 376), (513, 376), (513, 376), (513, 376), (513, 376), (513, 376), (513, 376), (513, 376), (513, 376), (513, 376), (513, 376), (513, 376), (513, 376), (513, 376), (513, 376), (513, 376), (513, 376), (513, 376), (513, 376), (513, 376), (513, 376), (513, 376), (513, 376), (513, 376), (513, 376), (513, 376), (513, 376), (513, 376), (513, 376), (513, 376), (513, 376), (513, 376), (513, 376), (513, 376), (513, 376), (513, 376), (513, 376), (513, 376), (513, 376), (513, 376), (513, 376), (513, 376), (513, 376), (513, 376), (513, 376), (513, 376), (513, 376), (513, 376), (513, 376), (513, 376), (513, 376), (513, 376), (513, 376), (513, 376), (513, 376), (513, 376), (513, 376), (514, 376), (515, 377), (515, 377), (517, 378), (517, 378), (518, 378), (519, 379), (520, 380), (520, 380), (521, 380), (522, 380), (522, 380), (522, 380), (522, 380), (522, 380), (522, 380), (522, 380), (524, 380), (529, 381), (532, 381), (536, 382), (541, 385), (551, 386), (558, 389), (566, 390), (571, 390), (586, 392), (593, 393), (601, 394), (608, 395), (628, 397), (638, 400), (646, 402), (656, 405), (670, 410), (679, 412), (689, 415), (695, 418), (713, 424), (722, 429), (735, 435), (742, 441), (763, 449)]",14.518610009176063,"[3, 8, 7, 5, 6, 9, 1, 2, 4]","(0, 0.25)",DOT006D,DOT,D,Chinese,Mon Oct 15 13:15:22 2018,Mouse
2,3,4,0,40,1,1,1,552,82,470,138,0,500,200,8000,"[(512, 384), (512, 384), (512, 384), (512, 384), (512, 384), (512, 384), (512, 384), (512, 384), (513, 384), (514, 384), (516, 384), (517, 384), (519, 383), (522, 383), (523, 383), (525, 383), (527, 380), (527, 379), (529, 376), (529, 374), (529, 371), (529, 371), (529, 371), (529, 371), (529, 371), (529, 371), (529, 371), (529, 371), (529, 371), (529, 371), (529, 371), (529, 371), (529, 371), (529, 371), (529, 371), (530, 371), (532, 373), (532, 373), (533, 373), (533, 373), (533, 369), (533, 364), (533, 356), (533, 346), (533, 326), (531, 315), (526, 300), (523, 288), (511, 261), (502, 240), (494, 222), (485, 204), (470, 168), (466, 153), (461, 141), (459, 131)]",258.1684208212595,"[3, 8, 7, 5, 6, 9, 1, 2, 4]","(0, 0.25)",DOT006D,DOT,D,Chinese,Mon Oct 15 13:15:22 2018,Mouse
2,3,4,0,41,5,5,1,1372,212,1160,137,0,500,200,8000,"[(512, 384), (512, 384), (512, 384), (512, 384), (512, 384), (512, 384), (512, 384), (512, 384), (512, 384), (512, 384), (512, 384), (512, 384), (512, 384), (512, 384), (512, 384), (512, 384), (512, 384), (512, 384), (512, 384), (512, 384), (512, 384), (513, 384), (513, 384), (515, 383), (516, 381), (517, 377), (517, 377), (517, 377), (517, 377), (517, 377), (517, 377), (517, 377), (517, 377), (517, 377), (517, 377), (517, 377), (517, 377), (517, 377), (517, 377), (517, 377), (517, 377), (517, 377), (517, 377), (517, 377), (517, 377), (517, 377), (517, 377), (517, 377), (517, 377), (517, 377), (517, 377), (517, 377), (517, 377), (517, 377), (517, 377), (517, 377), (517, 377), (517, 377), (517, 377), (517, 377), (517, 377), (517, 377), (517, 377), (517, 377), (517, 377), (517, 377), (517, 377), (517, 377), (517, 377), (517, 377), (517, 377), (517, 377), (517, 377), (517, 377), (517, 377), (517, 377), (517, 377), (517, 377), (517, 377), (517, 377), (517, 377), (517, 377), (517, 377), (517, 377), (517, 377), (517, 377), (517, 377), (517, 377), (517, 377), (517, 377), (517, 377), (517, 377), (517, 378), (513, 381), (512, 382), (507, 384), (504, 386), (493, 391), (485, 394), (479, 398), (471, 402), (459, 409), (453, 414), (448, 416), (440, 422), (428, 431), (422, 437), (415, 443), (406, 452), (390, 465), (381, 473), (372, 481), (363, 486), (349, 496), (343, 499), (341, 500), (337, 503), (333, 506), (331, 507), (330, 509), (329, 510), (325, 513), (324, 515), (322, 516), (322, 518), (321, 522), (320, 525), (319, 526), (318, 529), (318, 532), (317, 534), (317, 534), (317, 535), (317, 537), (317, 537), (317, 539), (317, 539), (315, 541)]",141.44675537910456,"[3, 8, 7, 5, 6, 9, 1, 2, 4]","(0, 0.25)",DOT006D,DOT,D,Chinese,Mon Oct 15 13:15:22 2018,Mouse
2,3,4,0,42,7,5,0,-591,141,450,136,0,500,200,8000,"[(512, 384), (512, 384), (512, 384), (512, 384), (512, 384), (512, 384), (512, 384), (512, 384), (512, 384), (512, 384), (512, 384), (512, 384), (512, 384), (512, 384), (512, 380), (512, 379), (512, 379), (512, 379), (512, 379), (512, 379), (512, 379), (512, 379), (512, 379), (512, 379), (512, 379), (512, 379), (512, 379), (512, 379), (512, 379), (512, 379), (512, 379), (512, 379), (512, 379), (512, 379), (512, 379), (512, 379), (512, 379), (512, 379), (512, 379), (512, 379), (512, 379), (511, 381), (506, 390), (499, 399), (482, 416), (468, 427), (456, 435), (441, 447), (414, 463), (398, 471), (387, 478), (379, 483), (362, 494), (353, 499), (345, 504), (339, 508), (327, 521), (320, 527), (314, 535), (307, 541)]",142.55316977502923,"[3, 8, 7, 5, 6, 9, 1, 2, 4]","(0, 0.25)",DOT006D,DOT,D,Chinese,Mon Oct 15 13:15:22 2018,Mouse
2,3,4,0,43,6,7,0,-717,286,431,137,0,500,200,8000,"[(512, 384), (512, 384), (512, 384), (512, 384), (512, 384), (512, 384), (512, 384), (512, 384), (512, 384), (512, 384), (512, 384), (512, 384), (512, 384), (512, 384), (512, 384), (512, 384), (512, 384), (512, 384), (512, 384), (512, 384), (512, 384), (512, 384), (512, 384), (512, 384), (512, 384), (512, 384), (512, 384), (512, 384), (513, 384), (515, 384), (515, 384), (516, 386), (516, 386), (516, 386), (516, 386), (516, 386), (516, 386), (516, 386), (516, 386), (516, 386), (516, 386), (516, 386), (516, 386), (516, 386), (516, 386), (516, 386), (516, 386), (516, 390), (516, 393), (516, 398), (515, 408), (513, 422), (513, 428), (513, 432), (513, 438), (513, 447), (513, 454), (513, 463), (512, 472), (508, 498), (506, 512), (502, 530), (501, 543), (496, 571), (494, 582), (491, 592), (489, 599), (487, 614), (487, 621), (487, 627), (487, 632), (487, 642)]",95.53463736201417,"[3, 8, 7, 5, 6, 9, 1, 2, 4]","(0, 0.25)",DOT006D,DOT,D,Chinese,Mon Oct 15 13:15:22 2018,Mouse
2,3,4,0,44,1,1,1,742,32,710,138,0,500,200,8000,"[(512, 384), (512, 384), (512, 384), (515, 383), (520, 382), (524, 381), (525, 380), (527, 377), (528, 377), (528, 377), (528, 377), (528, 377), (528, 377), (528, 377), (528, 377), (528, 377), (528, 377), (528, 377), (528, 377), (528, 377), (528, 377), (528, 377), (528, 377), (528, 377), (528, 377), (528, 377), (528, 377), (528, 377), (528, 377), (528, 377), (528, 377), (528, 377), (528, 377), (528, 377), (528, 377), (528, 377), (528, 377), (528, 377), (528, 377), (528, 377), (528, 377), (528, 377), (528, 377), (528, 377), (528, 377), (528, 377), (528, 378), (527, 380), (526, 382), (524, 382), (524, 383), (524, 383), (524, 383), (524, 383), (524, 383), (524, 383), (524, 383), (524, 383), (524, 383), (524, 383), (524, 381), (524, 376), (524, 366), (524, 357), (524, 330), (524, 309), (524, 289), (524, 270), (524, 235), (518, 221), (512, 206), (503, 187), (490, 155), (484, 142), (479, 129)]",262.62623363866976,"[3, 8, 7, 5, 6, 9, 1, 2, 4]","(0, 0.25)",DOT006D,DOT,D,Chinese,Mon Oct 15 13:15:22 2018,Mouse
2,3,4,0,45,6,6,1,902,222,680,138,0,500,200,8000,"[(512, 384), (512, 384), (512, 384), (512, 384), (512, 384), (512, 384), (512, 384), (512, 384), (512, 384), (512, 384), (512, 384), (512, 384), (512, 384), (512, 384), (512, 384), (512, 384), (512, 384), (512, 384), (512, 384), (512, 384), (512, 384), (512, 384), (516, 384), (522, 383), (533, 380), (543, 377), (557, 375), (560, 375), (560, 375), (561, 375), (561, 375), (561, 375), (561, 375), (561, 375), (561, 375), (561, 375), (561, 375), (561, 375), (561, 375), (561, 375), (561, 375), (561, 375), (561, 375), (561, 375), (561, 375), (561, 375), (561, 375), (561, 375), (561, 375), (561, 375), (561, 375), (561, 375), (561, 375), (561, 375), (561, 375), (561, 375), (561, 375), (560, 375), (553, 376), (553, 376), (549, 376), (546, 376), (530, 376), (519, 378), (509, 379), (500, 379), (477, 379), (463, 379), (448, 379), (436, 379), (410, 380), (399, 384), (391, 385), (378, 386), (358, 389), (348, 390), (338, 391), (332, 392), (318, 394), (314, 395), (310, 395), (304, 395), (294, 397), (291, 397), (288, 397), (285, 397), (280, 397), (277, 397), (272, 397), (268, 397), (258, 397)]",177.0700953593903,"[3, 8, 7, 5, 6, 9, 1, 2, 4]","(0, 0.25)",DOT006D,DOT,D,Chinese,Mon Oct 15 13:15:22 2018,Mouse
2,3,4,0,46,5,5,1,782,112,670,137,0,500,200,8000,"[(512, 384), (512, 384), (512, 384), (512, 384), (512, 384), (512, 384), (512, 384), (512, 384), (512, 384), (512, 384), (512, 384), (513, 384), (513, 384), (513, 384), (513, 384), (513, 384), (513, 384), (513, 384), (513, 384), (513, 384), (513, 384), (513, 384), (513, 384), (513, 384), (513, 384), (513, 384), (513, 384), (513, 384), (513, 384), (513, 384), (513, 384), (513, 384), (513, 384), (513, 384), (513, 384), (513, 384), (513, 384), (513, 384), (513, 384), (513, 384), (513, 384), (513, 384), (513, 384), (513, 384), (513, 384), (513, 384), (513, 384), (513, 384), (513, 384), (513, 384), (513, 384), (513, 384), (513, 384), (513, 384), (513, 384), (513, 384), (513, 384), (513, 384), (513, 384), (513, 384), (513, 384), (513, 385), (510, 388), (507, 394), (507, 397), (504, 399), (502, 403), (497, 406), (487, 416), (478, 425), (469, 432), (460, 438), (435, 456), (418, 467), (399, 477), (375, 492), (334, 515), (313, 524), (298, 530)]",145.6965107357781,"[3, 8, 7, 5, 6, 9, 1, 2, 4]","(0, 0.25)",DOT006D,DOT,D,Chinese,Mon Oct 15 13:15:22 2018,Mouse
2,3,4,0,47,1,5,0,-891,182,709,136,0,500,200,8000,"[(512, 384), (512, 384), (512, 384), (512, 384), (512, 384), (512, 384), (512, 384), (512, 384), (512, 384), (512, 384), (512, 384), (512, 384), (512, 384), (512, 384), (512, 384), (512, 384), (512, 384), (512, 384), (512, 382), (512, 382), (512, 382), (512, 382), (512, 382), (512, 382), (512, 382), (512, 382), (512, 382), (512, 382), (512, 382), (512, 382), (512, 382), (512, 382), (512, 382), (512, 382), (512, 382), (512, 382), (512, 382), (512, 382), (512, 382), (512, 382), (512, 382), (512, 382), (512, 382), (512, 382), (512, 382), (512, 382), (512, 382), (512, 382), (512, 382), (512, 382), (513, 380), (513, 380), (513, 380), (513, 380), (513, 380), (513, 380), (513, 382), (512, 385), (508, 390), (506, 396), (503, 402), (498, 410), (488, 426), (481, 436), (475, 445), (468, 453), (455, 467), (449, 470), (444, 474), (438, 479), (429, 488), (424, 493), (419, 498), (413, 501), (409, 505), (397, 514), (392, 518), (386, 522), (374, 528), (369, 530), (364, 532), (360, 533), (354, 534), (350, 536), (348, 537), (343, 538), (333, 540), (329, 541), (323, 543), (315, 545)]",140.74228327780415,"[3, 8, 7, 5, 6, 9, 1, 2, 4]","(0, 0.25)",DOT006D,DOT,D,Chinese,Mon Oct 15 13:15:22 2018,Mouse
2,3,4,0,48,8,8,1,2683,1162,1521,137,0,500,200,8000,"[(512, 384), (512, 384), (512, 384), (512, 384), (512, 384), (512, 384), (512, 384), (512, 384), (512, 384), (512, 384), (512, 384), (512, 384), (512, 384), (512, 384), (512, 384), (512, 384), (512, 384), (512, 384), (512, 384), (512, 384), (512, 384), (512, 384), (512, 384), (512, 384), (512, 384), (512, 384), (512, 384), (512, 384), (512, 384), (512, 384), (512, 384), (512, 384), (512, 384), (512, 384), (512, 384), (512, 384), (512, 384), (512, 384), (512, 384), (512, 384), (512, 384), (512, 384), (512, 384), (512, 384), (512, 384), (512, 384), (512, 384), (512, 384), (512, 384), (512, 384), (512, 384), (512, 384), (512, 384), (512, 384), (512, 384), (512, 384), (512, 384), (512, 384), (512, 384), (512, 384), (512, 384), (512, 384), (512, 384), (512, 384), (512, 384), (512, 384), (512, 384), (512, 384), (512, 384), (512, 384), (512, 384), (512, 384), (512, 384), (512, 384), (512, 384), (512, 384), (512, 384), (512, 384), (512, 384), (512, 384), (512, 384), (512, 384), (512, 384), (512, 384), (512, 384), (512, 384), (512, 384), (512, 384), (512, 384), (512, 384), (512, 384), (512, 384), (512, 384), (512, 384), (512, 384), (512, 384), (512, 384), (512, 384), (512, 384), (512, 384), (512, 384), (512, 384), (512, 384), (512, 384), (512, 384), (512, 384), (512, 384), (512, 384), (512, 384), (512, 384), (512, 384), (512, 384), (512, 384), (512, 384), (512, 384), (512, 384), (512, 386), (513, 387), (513, 387), (514, 389), (514, 389), (515, 390), (515, 391), (516, 392), (517, 393), (518, 394), (518, 394), (518, 395), (519, 396), (520, 397), (520, 397), (521, 398), (521, 398), (523, 400), (525, 402), (526, 402), (527, 403), (528, 405), (531, 406), (531, 406), (531, 406), (533, 407), (534, 408), (537, 410), (537, 410), (543, 413), (547, 415), (550, 418), (554, 418), (562, 422), (565, 423), (567, 425), (570, 426), (575, 428), (577, 428), (580, 429), (583, 431), (588, 433), (590, 434), (594, 434), (595, 436), (596, 436), (596, 436), (596, 437), (596, 437), (596, 437), (596, 438), (596, 438), (596, 439), (595, 441), (593, 442), (591, 443), (590, 444), (586, 447), (582, 448), (581, 450), (579, 452), (574, 457), (572, 462), (569, 468), (568, 471), (565, 482), (564, 488), (562, 497), (560, 500), (559, 507), (558, 509), (557, 510), (557, 510), (556, 512), (556, 512), (555, 513), (555, 513), (555, 513), (555, 513), (555, 513), (555, 513), (555, 513), (555, 513), (555, 513), (555, 513), (553, 513), (548, 513), (541, 512), (535, 510), (523, 506), (518, 506), (513, 505), (506, 505), (500, 504), (498, 503), (495, 503), (493, 503), (486, 503), (484, 503), (481, 503), (478, 503), (470, 503), (467, 503), (462, 503), (460, 504), (456, 505), (455, 505), (453, 506), (452, 507), (451, 508), (451, 508), (451, 508), (451, 508), (451, 508), (451, 508), (451, 508), (449, 508), (449, 508), (449, 508), (449, 508), (449, 508), (452, 509), (459, 509), (466, 509), (473, 509), (492, 509), (503, 509), (514, 509), (526, 509), (548, 509), (558, 509), (562, 509), (566, 509), (574, 512), (576, 513), (579, 514), (583, 516), (592, 525), (597, 530), (603, 535), (609, 542), (616, 550), (621, 556), (624, 560), (629, 566), (635, 574), (639, 581), (640, 584), (642, 585), (643, 590), (644, 592), (646, 595), (646, 598)]",57.946509515636926,"[3, 8, 7, 5, 6, 9, 1, 2, 4]","(0, 0.25)",DOT006D,DOT,D,Chinese,Mon Oct 15 13:15:22 2018,Mouse
2,3,4,0,49,3,3,1,1942,322,1620,137,0,500,200,8000,"[(512, 384), (512, 384), (512, 384), (512, 384), (512, 384), (512, 384), (512, 384), (512, 384), (512, 384), (512, 384), (512, 384), (512, 384), (512, 384), (512, 384), (512, 384), (512, 384), (512, 384), (512, 384), (512, 384), (512, 384), (512, 384), (512, 384), (512, 384), (512, 384), (512, 384), (512, 384), (512, 384), (512, 384), (512, 384), (512, 384), (512, 384), (512, 384), (511, 384), (510, 384), (510, 384), (510, 384), (510, 384), (510, 384), (510, 384), (510, 384), (510, 384), (510, 384), (510, 384), (510, 384), (510, 384), (510, 384), (510, 384), (510, 384), (510, 384), (510, 384), (510, 384), (510, 384), (510, 384), (510, 384), (510, 384), (510, 384), (510, 384), (510, 384), (510, 384), (510, 384), (510, 384), (510, 384), (510, 384), (510, 384), (510, 384), (510, 384), (510, 384), (510, 384), (510, 384), (510, 384), (510, 384), (510, 384), (510, 384), (515, 386), (521, 386), (522, 387), (524, 387), (531, 387), (535, 387), (538, 387), (540, 387), (548, 387), (552, 387), (558, 389), (565, 390), (583, 392), (591, 394), (599, 396), (605, 397), (613, 399), (615, 400), (617, 401), (619, 402), (621, 403), (621, 403), (621, 403), (621, 403), (621, 403), (621, 403), (621, 403), (621, 403), (621, 403), (621, 403), (621, 403), (621, 403), (621, 405), (621, 406), (621, 409), (621, 412), (621, 423), (621, 429), (621, 438), (621, 445), (621, 457), (621, 463), (621, 470), (621, 475), (621, 487), (621, 493), (621, 499), (622, 506), (623, 521), (626, 530), (626, 535), (627, 541), (628, 550), (629, 554), (630, 556), (630, 558), (631, 561), (631, 563), (631, 564), (631, 567), (633, 571), (634, 572), (634, 572), (634, 574), (634, 576), (634, 576), (634, 576), (634, 577), (634, 577), (634, 577), (634, 577), (634, 577), (634, 577), (634, 577), (634, 577), (634, 577), (634, 577), (634, 577), (634, 577), (634, 577), (634, 577), (634, 577), (634, 577), (634, 577), (634, 577), (634, 577), (634, 577), (634, 577), (634, 577), (634, 577), (634, 577), (634, 577), (634, 577), (634, 577), (634, 577), (634, 577), (634, 577), (634, 577), (634, 577), (634, 577), (634, 577), (634, 577), (634, 577), (634, 577), (634, 577), (634, 577), (634, 577), (634, 577), (638, 572), (641, 563), (647, 552), (651, 540), (665, 514), (673, 502), (680, 495), (689, 486), (704, 476), (711, 472), (720, 469), (726, 467), (742, 466), (751, 466)]",18.936901508497282,"[3, 8, 7, 5, 6, 9, 1, 2, 4]","(0, 0.25)",DOT006D,DOT,D,Chinese,Mon Oct 15 13:15:22 2018,Mouse
2,3,4,0,50,6,7,0,-2242,112,2130,136,0,500,200,8000,"[(512, 384), (512, 384), (512, 384), (512, 384), (512, 384), (512, 384), (512, 384), (512, 384), (512, 384), (512, 384), (512, 384), (511, 384), (511, 384), (511, 384), (511, 384), (511, 384), (511, 384), (511, 384), (511, 384), (511, 384), (511, 384), (511, 384), (511, 384), (511, 384), (511, 384), (511, 384), (511, 384), (511, 384), (511, 384), (511, 384), (511, 384), (511, 384), (511, 384), (511, 384), (511, 384), (511, 384), (511, 384), (511, 384), (511, 384), (511, 384), (511, 384), (511, 384), (511, 384), (511, 384), (511, 384), (512, 384), (512, 384), (512, 384), (512, 384), (512, 384), (512, 384), (512, 384), (512, 384), (512, 384), (512, 384), (512, 384), (512, 384), (512, 384), (512, 384), (512, 384), (512, 384), (512, 384), (512, 384), (512, 384), (512, 384), (512, 384), (512, 384), (512, 384), (512, 384), (512, 384), (512, 384), (512, 384), (512, 384), (512, 384), (512, 384), (512, 384), (512, 384), (512, 384), (512, 384), (512, 384), (512, 384), (512, 384), (512, 384), (512, 384), (512, 384), (512, 384), (512, 384), (512, 384), (512, 384), (512, 384), (512, 384), (512, 384), (512, 384), (512, 384), (512, 384), (512, 384), (512, 384), (512, 384), (512, 384), (511, 384), (510, 384), (507, 384), (504, 384), (495, 384), (489, 384), (482, 384), (477, 384), (468, 384), (467, 384), (466, 384), (466, 384), (466, 384), (466, 384), (466, 384), (466, 384), (466, 384), (466, 384), (466, 384), (466, 384), (466, 384), (466, 384), (466, 384), (466, 384), (466, 384), (466, 384), (466, 384), (466, 384), (466, 384), (466, 384), (466, 384), (466, 384), (466, 384), (466, 384), (466, 384), (466, 384), (466, 384), (466, 384), (466, 384), (466, 384), (466, 384), (466, 384), (466, 384), (466, 384), (466, 384), (466, 384), (466, 384), (466, 384), (466, 384), (466, 384), (466, 384), (466, 384), (465, 386), (463, 389), (459, 396), (457, 404), (449, 415), (448, 420), (444, 426), (443, 428), (440, 432), (440, 432), (440, 433), (440, 433), (440, 433), (439, 434), (439, 434), (439, 434), (439, 434), (439, 434), (439, 434), (439, 434), (439, 434), (439, 434), (439, 434), (439, 434), (439, 434), (439, 434), (439, 434), (439, 434), (437, 436), (437, 436), (437, 436), (437, 436), (437, 436), (437, 436), (437, 436), (437, 436), (437, 436), (437, 436), (437, 436), (436, 436), (436, 436), (436, 436), (436, 436), (436, 436), (436, 436), (436, 436), (436, 436), (436, 436), (436, 436), (436, 436), (436, 436), (436, 436), (436, 440), (436, 448), (437, 458), (439, 466), (444, 488), (446, 500), (451, 512), (454, 522), (460, 543), (462, 553), (465, 560), (466, 569), (468, 580), (469, 588), (470, 594), (470, 598), (472, 607), (472, 610), (472, 613), (472, 616), (472, 624), (474, 632)]",98.71143755195037,"[3, 8, 7, 5, 6, 9, 1, 2, 4]","(0, 0.25)",DOT006D,DOT,D,Chinese,Mon Oct 15 13:15:22 2018,Mouse
2,3,4,0,51,7,7,1,422,62,360,137,0,500,200,8000,"[(512, 384), (512, 384), (512, 384), (512, 384), (512, 384), (512, 384), (512, 381), (508, 378), (508, 378), (508, 378), (508, 378), (508, 378), (508, 378), (508, 378), (508, 378), (508, 378), (508, 378), (508, 378), (508, 378), (508, 378), (508, 378), (508, 378), (508, 378), (508, 378), (506, 382), (506, 383), (506, 385), (499, 396), (495, 406), (486, 422), (484, 435), (473, 468), (470, 485), (464, 502), (459, 519), (452, 550), (448, 562), (447, 577), (446, 588), (446, 607), (446, 617), (446, 625), (446, 630)]",105.01836063115067,"[3, 8, 7, 5, 6, 9, 1, 2, 4]","(0, 0.25)",DOT006D,DOT,D,Chinese,Mon Oct 15 13:15:22 2018,Mouse
2,3,4,0,52,3,3,1,1411,481,930,137,0,500,200,8000,"[(512, 384), (512, 384), (512, 384), (512, 384), (512, 384), (512, 384), (512, 384), (512, 384), (512, 384), (512, 384), (512, 384), (512, 384), (512, 384), (512, 384), (512, 384), (512, 384), (512, 384), (512, 384), (512, 384), (512, 384), (512, 384), (512, 384), (512, 384), (512, 384), (512, 384), (512, 384), (512, 384), (512, 384), (512, 384), (512, 384), (512, 384), (512, 384), (512, 384), (512, 384), (512, 384), (512, 384), (512, 384), (512, 384), (512, 384), (512, 384), (512, 384), (512, 384), (512, 384), (512, 384), (512, 384), (512, 384), (512, 384), (512, 384), (514, 384), (515, 385), (515, 385), (515, 385), (515, 385), (515, 385), (515, 385), (515, 385), (516, 385), (516, 385), (516, 385), (516, 384), (516, 384), (516, 384), (516, 384), (516, 384), (516, 383), (512, 381), (511, 380), (508, 380), (505, 379), (500, 379), (499, 378), (498, 378), (497, 378), (497, 378), (497, 378), (497, 378), (497, 378), (497, 378), (497, 378), (497, 378), (497, 378), (497, 378), (497, 378), (497, 378), (497, 378), (497, 378), (497, 378), (497, 378), (497, 378), (497, 378), (497, 378), (497, 378), (497, 378), (497, 378), (497, 378), (497, 378), (497, 378), (497, 378), (497, 378), (497, 378), (497, 378), (504, 378), (515, 378), (526, 378), (538, 378), (560, 378), (567, 378), (570, 378), (573, 378), (574, 378), (574, 378), (574, 378), (574, 378), (574, 378), (574, 378), (574, 378), (574, 378), (574, 378), (574, 378), (574, 378), (574, 378), (574, 384), (574, 385), (574, 388), (578, 393), (582, 399), (587, 402), (593, 407), (599, 409), (612, 416), (621, 418), (630, 422), (640, 427), (659, 434), (668, 439), (678, 442), (688, 447), (707, 454), (717, 457), (726, 461), (733, 462), (753, 468)]",19.21588382410642,"[3, 8, 7, 5, 6, 9, 1, 2, 4]","(0, 0.25)",DOT006D,DOT,D,Chinese,Mon Oct 15 13:15:22 2018,Mouse
2,3,4,0,53,8,8,1,837,537,300,136,0,500,200,8000,"[(512, 384), (512, 384), (512, 384), (512, 384), (512, 384), (512, 384), (512, 384), (512, 384), (512, 384), (512, 384), (512, 384), (512, 384), (512, 384), (512, 384), (512, 384), (512, 384), (512, 384), (512, 384), (512, 384), (512, 384), (512, 384), (512, 384), (512, 384), (512, 384), (512, 384), (512, 384), (512, 384), (512, 384), (512, 384), (512, 384), (512, 384), (512, 384), (512, 384), (512, 384), (512, 384), (512, 384), (512, 384), (512, 384), (512, 384), (512, 384), (512, 384), (512, 384), (512, 384), (512, 384), (512, 384), (512, 384), (512, 384), (512, 384), (512, 384), (512, 384), (512, 384), (512, 384), (512, 384), (515, 385), (521, 387), (531, 391), (532, 392), (533, 393), (533, 393), (534, 394), (534, 396), (536, 399), (537, 401), (542, 416), (545, 426), (546, 435), (548, 445), (551, 466), (552, 476), (554, 488), (556, 502), (562, 527), (564, 538), (567, 548), (569, 554), (575, 571), (580, 578), (584, 584), (587, 592), (592, 600), (594, 605), (597, 609), (599, 614), (603, 622)]",69.07549825507883,"[3, 8, 7, 5, 6, 9, 1, 2, 4]","(0, 0.25)",DOT006D,DOT,D,Chinese,Mon Oct 15 13:15:22 2018,Mouse
2,3,4,0,54,4,4,1,2311,191,2120,135,0,500,200,8000,"[(512, 384), (512, 384), (512, 384), (512, 384), (512, 384), (512, 384), (512, 384), (512, 384), (512, 384), (512, 384), (512, 384), (512, 384), (512, 384), (512, 384), (512, 384), (512, 384), (512, 384), (512, 384), (512, 384), (511, 384), (512, 377), (517, 371), (517, 371), (517, 371), (517, 371), (517, 371), (517, 371), (517, 371), (517, 371), (517, 371), (517, 371), (517, 371), (517, 371), (517, 371), (517, 371), (517, 371), (517, 371), (517, 371), (517, 371), (517, 371), (517, 371), (517, 371), (517, 371), (517, 371), (517, 371), (517, 371), (517, 371), (517, 371), (517, 371), (517, 371), (517, 371), (517, 371), (517, 371), (517, 371), (517, 371), (517, 371), (517, 371), (517, 371), (517, 371), (517, 371), (517, 371), (515, 373), (510, 377), (506, 383), (495, 400), (490, 411), (484, 421), (482, 425), (479, 433), (478, 435), (476, 439), (475, 446), (474, 458), (473, 465), (471, 473), (470, 479), (466, 493), (464, 499), (463, 504), (460, 507), (457, 512), (457, 515), (455, 518), (455, 520), (453, 524), (452, 526), (451, 526), (450, 527), (449, 527), (448, 527), (446, 528), (445, 529), (440, 529), (437, 529), (431, 529), (426, 529), (411, 529), (401, 529), (394, 529), (386, 528), (374, 523), (369, 520), (369, 520), (367, 519), (366, 517), (365, 516), (365, 516), (364, 513), (364, 510), (364, 506), (363, 502), (362, 496), (361, 482), (359, 473), (358, 466), (357, 459), (355, 443), (355, 432), (355, 422), (355, 411), (355, 391), (355, 384), (355, 377), (354, 373), (353, 365), (352, 362), (352, 361), (352, 360), (352, 360), (352, 360), (352, 360), (352, 360), (352, 360), (352, 360), (352, 360), (352, 360), (352, 360), (352, 360), (352, 360), (352, 360), (352, 360), (352, 360), (352, 360), (352, 360), (352, 360), (352, 360), (352, 360), (352, 360), (352, 360), (352, 360), (352, 360), (352, 360), (352, 360), (352, 360), (352, 360), (352, 360), (352, 360), (352, 360), (352, 360), (352, 360), (352, 360), (352, 360), (352, 360), (352, 360), (352, 360), (352, 360), (352, 360), (352, 360), (352, 360), (352, 360), (352, 360), (352, 360), (352, 360), (352, 360), (352, 360), (352, 360), (352, 360), (352, 360), (352, 360), (352, 360), (352, 360), (352, 360), (352, 360), (352, 360), (352, 360), (352, 360), (352, 360), (352, 360), (352, 360), (352, 360), (352, 360), (352, 360), (352, 360), (352, 360), (352, 360), (352, 360), (352, 360), (352, 360), (352, 360), (352, 360), (352, 360), (352, 360), (357, 360), (360, 360), (370, 360), (378, 360), (386, 360), (397, 360), (426, 360), (442, 360), (459, 360), (479, 360), (513, 360), (535, 360), (555, 360), (572, 360), (600, 360), (614, 360), (627, 358), (638, 356), (663, 353), (670, 352), (680, 351), (687, 349), (701, 347), (707, 346), (712, 343), (717, 342), (732, 336), (742, 331), (749, 327), (758, 325)]",346.51307603332805,"[3, 8, 7, 5, 6, 9, 1, 2, 4]","(0, 0.25)",DOT006D,DOT,D,Chinese,Mon Oct 15 13:15:22 2018,Mouse
2,3,4,0,55,3,1,0,-522,92,430,134,0,500,200,8000,"[(512, 384), (512, 384), (512, 384), (512, 384), (512, 384), (512, 384), (512, 384), (512, 384), (512, 384), (517, 390), (525, 393), (534, 397), (540, 397), (542, 397), (542, 397), (543, 397), (543, 397), (543, 397), (543, 397), (543, 397), (543, 397), (543, 397), (543, 397), (543, 400), (543, 403), (543, 405), (543, 405), (543, 405), (543, 405), (543, 405), (543, 400), (543, 393), (544, 385), (544, 364), (544, 352), (543, 335), (540, 321), (534, 286), (530, 268), (530, 253), (530, 239), (529, 211), (529, 198), (529, 187), (529, 180), (529, 166), (529, 158), (529, 154), (529, 150), (529, 144), (527, 140), (525, 135), (521, 129)]",272.021364940356,"[3, 8, 7, 5, 6, 9, 1, 2, 4]","(0, 0.25)",DOT006D,DOT,D,Chinese,Mon Oct 15 13:15:22 2018,Mouse
2,3,4,0,56,8,2,0,-524,84,440,135,0,500,200,8000,"[(512, 384), (512, 384), (512, 384), (512, 384), (512, 384), (512, 384), (512, 384), (512, 384), (514, 385), (514, 385), (514, 385), (514, 385), (514, 385), (514, 385), (514, 385), (514, 385), (514, 385), (514, 385), (514, 385), (514, 385), (514, 385), (514, 385), (514, 385), (514, 388), (515, 395), (516, 395), (516, 395), (517, 395), (521, 394), (524, 391), (529, 389), (533, 384), (541, 373), (545, 367), (549, 357), (556, 347), (566, 326), (573, 314), (577, 304), (585, 291), (594, 267), (601, 254), (607, 242), (612, 230), (619, 214), (621, 209), (623, 204), (625, 200), (630, 188), (632, 182), (634, 175), (637, 169), (642, 159)]",300.01836742760906,"[3, 8, 7, 5, 6, 9, 1, 2, 4]","(0, 0.25)",DOT006D,DOT,D,Chinese,Mon Oct 15 13:15:22 2018,Mouse
2,3,4,0,57,8,8,1,971,671,300,136,0,500,200,8000,"[(512, 384), (512, 384), (512, 384), (512, 384), (512, 384), (512, 384), (512, 384), (512, 384), (512, 384), (512, 384), (512, 384), (512, 384), (512, 384), (512, 384), (512, 384), (512, 384), (512, 384), (512, 384), (512, 384), (512, 384), (512, 384), (512, 384), (512, 384), (512, 384), (512, 384), (512, 384), (512, 384), (512, 384), (512, 384), (512, 384), (512, 384), (512, 384), (512, 384), (512, 384), (512, 384), (512, 384), (512, 384), (512, 384), (512, 384), (512, 384), (512, 384), (512, 384), (512, 384), (512, 384), (512, 384), (512, 384), (512, 384), (512, 384), (512, 384), (512, 384), (512, 384), (512, 384), (512, 384), (512, 384), (512, 384), (512, 384), (512, 384), (512, 384), (512, 384), (512, 384), (512, 384), (512, 384), (512, 384), (512, 384), (512, 384), (512, 384), (512, 384), (512, 387), (516, 394), (519, 399), (519, 400), (519, 401), (522, 410), (524, 418), (525, 423), (528, 429), (534, 445), (538, 454), (541, 463), (546, 470), (554, 486), (556, 493), (559, 499), (562, 508), (571, 523), (575, 529), (578, 534), (580, 539), (586, 549), (590, 556), (592, 560), (598, 568), (607, 580), (612, 585), (617, 593), (621, 598), (628, 605), (630, 608)]",62.2203792749783,"[3, 8, 7, 5, 6, 9, 1, 2, 4]","(0, 0.25)",DOT006D,DOT,D,Chinese,Mon Oct 15 13:15:22 2018,Mouse
2,3,4,0,58,2,3,0,-1643,72,1571,136,0,500,200,8000,"[(512, 384), (512, 384), (512, 384), (512, 384), (512, 384), (512, 384), (512, 384), (511, 384), (509, 384), (509, 384), (509, 384), (509, 384), (509, 384), (509, 384), (509, 384), (509, 384), (509, 384), (509, 384), (509, 384), (509, 384), (509, 384), (509, 384), (509, 384), (509, 384), (509, 384), (509, 384), (509, 384), (509, 384), (509, 384), (509, 384), (509, 384), (509, 384), (509, 384), (509, 384), (509, 384), (509, 384), (509, 384), (509, 384), (509, 384), (509, 384), (509, 384), (509, 384), (509, 384), (509, 384), (509, 384), (509, 384), (509, 384), (509, 384), (509, 384), (509, 384), (509, 384), (509, 384), (509, 384), (509, 384), (509, 384), (509, 384), (509, 384), (510, 385), (510, 385), (511, 387), (511, 388), (511, 388), (511, 388), (511, 388), (511, 388), (511, 388), (511, 388), (511, 388), (511, 388), (511, 388), (511, 388), (511, 388), (511, 388), (511, 388), (511, 388), (512, 389), (512, 389), (513, 389), (514, 389), (519, 380), (519, 374), (520, 368), (523, 362), (526, 352), (526, 349), (528, 344), (530, 340), (531, 332), (533, 328), (533, 326), (533, 325), (534, 324), (534, 324), (536, 323), (536, 323), (536, 323), (536, 323), (536, 323), (536, 322), (536, 322), (536, 322), (537, 321), (537, 321), (539, 321), (539, 320), (540, 320), (541, 319), (543, 319), (544, 319), (544, 319), (544, 319), (544, 319), (544, 319), (544, 319), (544, 319), (544, 319), (544, 319), (544, 319), (544, 319), (544, 319), (544, 319), (544, 319), (544, 319), (544, 319), (544, 319), (544, 319), (544, 319), (544, 319), (544, 319), (544, 319), (544, 319), (544, 319), (544, 319), (544, 319), (544, 319), (544, 319), (544, 319), (544, 319), (544, 319), (544, 319), (544, 319), (545, 319), (549, 323), (567, 337), (577, 345), (586, 351), (595, 357), (608, 367), (616, 373), (622, 378), (627, 382), (637, 391), (642, 395), (647, 398), (653, 402), (671, 414), (680, 421), (690, 427), (698, 432), (713, 441), (721, 445), (728, 448), (734, 451), (745, 457), (751, 462)]",18.07460275953478,"[3, 8, 7, 5, 6, 9, 1, 2, 4]","(0, 0.25)",DOT006D,DOT,D,Chinese,Mon Oct 15 13:15:22 2018,Mouse
2,3,4,0,59,9,6,0,-1868,158,1710,137,0,500,200,8000,"[(512, 384), (512, 384), (512, 384), (512, 384), (512, 384), (512, 384), (512, 384), (512, 384), (512, 384), (512, 384), (512, 384), (512, 384), (512, 384), (512, 384), (512, 384), (512, 383), (512, 383), (512, 383), (512, 383), (512, 383), (512, 383), (512, 383), (512, 383), (512, 383), (512, 383), (512, 383), (512, 383), (512, 383), (512, 383), (512, 383), (512, 383), (512, 383), (512, 383), (512, 383), (512, 383), (512, 383), (512, 383), (512, 383), (512, 383), (512, 383), (512, 383), (512, 383), (512, 383), (512, 383), (512, 383), (512, 383), (512, 383), (512, 383), (512, 383), (512, 383), (512, 383), (512, 383), (511, 383), (511, 383), (510, 385), (510, 385), (510, 385), (510, 386), (510, 386), (510, 386), (510, 386), (510, 386), (510, 386), (510, 386), (510, 386), (510, 386), (510, 386), (510, 386), (510, 386), (510, 386), (510, 386), (510, 386), (510, 386), (510, 386), (510, 387), (510, 387), (511, 387), (511, 387), (511, 388), (512, 389), (512, 391), (512, 393), (516, 399), (518, 405), (522, 414), (525, 421), (530, 432), (531, 435), (532, 437), (533, 440), (536, 443), (537, 446), (537, 446), (538, 447), (539, 447), (539, 447), (539, 447), (539, 447), (539, 447), (539, 447), (539, 447), (539, 447), (539, 447), (539, 447), (539, 447), (539, 447), (539, 447), (539, 447), (539, 447), (539, 447), (539, 447), (539, 447), (539, 447), (539, 447), (539, 447), (539, 447), (539, 447), (539, 447), (539, 449), (539, 451), (539, 453), (539, 455), (539, 455), (539, 456), (539, 456), (539, 456), (539, 456), (539, 456), (539, 456), (539, 456), (539, 456), (539, 456), (539, 456), (539, 456), (539, 456), (539, 456), (539, 456), (539, 456), (539, 456), (539, 456), (539, 456), (539, 456), (539, 456), (539, 456), (539, 456), (539, 456), (539, 456), (539, 456), (539, 456), (539, 456), (539, 456), (539, 456), (539, 456), (539, 456), (539, 456), (539, 456), (539, 456), (539, 456), (539, 456), (539, 456), (539, 456), (539, 456), (539, 456), (538, 456), (533, 454), (526, 451), (510, 446), (501, 444), (491, 441), (480, 438), (459, 433), (451, 430), (441, 427), (431, 424), (413, 421), (402, 419), (391, 415), (378, 412), (352, 405), (339, 402), (325, 398), (314, 395), (294, 393), (284, 389), (273, 388), (263, 385), (243, 382)]",180.42598307664315,"[3, 8, 7, 5, 6, 9, 1, 2, 4]","(0, 0.25)",DOT006D,DOT,D,Chinese,Mon Oct 15 13:15:22 2018,Mouse
2,3,4,0,60,5,7,0,-2442,212,2230,138,0,500,200,8000,"[(512, 384), (512, 384), (512, 384), (512, 384), (512, 384), (512, 384), (512, 384), (512, 384), (512, 384), (512, 384), (512, 384), (512, 384), (512, 384), (512, 384), (512, 384), (512, 384), (512, 384), (512, 384), (512, 384), (512, 384), (512, 384), (513, 384), (516, 384), (516, 384), (517, 384), (517, 384), (517, 384), (517, 384), (517, 384), (517, 384), (517, 384), (517, 384), (517, 384), (517, 384), (517, 384), (517, 384), (517, 384), (517, 384), (517, 384), (517, 384), (517, 384), (517, 384), (517, 384), (517, 384), (517, 384), (517, 384), (517, 384), (517, 384), (517, 384), (517, 384), (517, 384), (517, 384), (517, 384), (517, 384), (517, 384), (517, 384), (517, 384), (517, 384), (517, 384), (517, 384), (517, 384), (517, 384), (517, 384), (517, 384), (517, 384), (517, 385), (517, 389), (514, 392), (513, 392), (513, 392), (512, 392), (512, 392), (512, 392), (512, 392), (512, 392), (512, 392), (512, 392), (512, 392), (512, 392), (512, 392), (512, 392), (512, 392), (512, 392), (512, 392), (512, 392), (512, 392), (512, 392), (512, 392), (512, 392), (512, 392), (512, 392), (508, 393), (503, 396), (498, 399), (494, 403), (489, 409), (482, 425), (479, 435), (478, 445), (478, 456), (478, 474), (478, 482), (478, 486), (478, 490), (478, 498), (478, 502), (478, 507), (478, 512), (478, 529), (479, 537), (480, 544), (481, 554), (482, 565), (483, 571), (485, 576), (485, 578), (485, 581), (485, 583), (485, 583), (485, 583), (485, 583), (485, 583), (485, 583), (485, 583), (485, 583), (485, 583), (485, 583), (485, 583), (485, 583), (485, 583), (485, 583), (485, 583), (485, 583), (485, 583), (485, 581), (485, 580), (483, 572), (482, 568), (481, 563), (480, 560), (478, 552), (476, 548), (475, 543), (474, 539), (474, 532), (474, 528), (474, 525), (474, 523), (474, 520), (472, 518), (472, 518), (472, 518), (472, 518), (472, 518), (472, 518), (472, 518), (472, 518), (472, 518), (472, 518), (472, 518), (472, 518), (472, 518), (472, 518), (472, 518), (472, 518), (472, 518), (472, 518), (472, 518), (472, 518), (472, 518), (472, 518), (472, 518), (472, 518), (472, 518), (472, 518), (472, 518), (472, 518), (472, 518), (472, 518), (472, 518), (472, 518), (472, 518), (472, 518), (472, 518), (472, 518), (472, 518), (472, 518), (472, 518), (472, 518), (472, 518), (472, 518), (472, 518), (472, 518), (472, 518), (472, 518), (472, 518), (472, 518), (472, 518), (472, 518), (472, 518), (472, 518), (472, 518), (472, 518), (472, 518), (472, 518), (472, 518), (472, 518), (472, 521), (471, 526), (471, 528), (471, 529), (471, 530), (471, 530), (471, 530), (471, 530), (471, 530), (471, 530), (471, 530), (471, 530), (471, 530), (471, 530), (471, 530), (471, 530), (471, 530), (471, 530), (471, 530), (471, 530), (471, 530), (471, 532), (471, 535), (470, 539), (470, 545), (470, 560), (470, 568), (470, 576), (470, 582), (470, 594), (470, 599), (470, 603), (470, 607), (471, 616), (472, 620), (472, 624), (472, 626), (472, 632)]",99.16234704572172,"[3, 8, 7, 5, 6, 9, 1, 2, 4]","(0, 0.25)",DOT006D,DOT,D,Chinese,Mon Oct 15 13:15:22 2018,Mouse
2,3,4,0,61,2,5,0,-502,142,360,139,0,500,200,8000,"[(512, 384), (512, 384), (512, 384), (512, 384), (512, 384), (512, 384), (512, 384), (512, 384), (512, 384), (512, 384), (512, 384), (512, 384), (512, 384), (512, 384), (514, 384), (514, 384), (517, 382), (518, 381), (521, 375), (522, 372), (523, 366), (523, 364), (523, 360), (523, 358), (523, 356), (523, 355), (523, 355), (523, 355), (523, 354), (520, 354), (514, 354), (505, 357), (479, 368), (464, 379), (452, 385), (437, 397), (415, 413), (403, 424), (394, 433), (383, 445), (364, 469), (352, 484), (342, 494), (334, 505), (323, 516), (320, 521), (318, 523), (316, 525), (312, 529), (310, 529), (307, 531)]",144.35670798752867,"[3, 8, 7, 5, 6, 9, 1, 2, 4]","(0, 0.25)",DOT006D,DOT,D,Chinese,Mon Oct 15 13:15:22 2018,Mouse
2,3,4,0,62,9,9,1,731,101,630,140,0,500,200,8000,"[(512, 384), (512, 384), (512, 384), (512, 384), (512, 384), (512, 384), (512, 384), (512, 384), (512, 384), (512, 384), (514, 383), (520, 382), (520, 381), (520, 381), (520, 381), (520, 381), (520, 381), (520, 381), (520, 381), (520, 381), (520, 381), (520, 381), (520, 381), (520, 381), (520, 381), (520, 381), (520, 381), (520, 381), (520, 381), (520, 381), (520, 381), (520, 381), (520, 381), (520, 381), (520, 381), (520, 381), (520, 381), (520, 381), (520, 381), (520, 381), (520, 381), (520, 381), (520, 381), (520, 381), (520, 381), (520, 381), (519, 381), (517, 385), (514, 385), (511, 385), (509, 384), (505, 380), (501, 378), (493, 375), (482, 368), (471, 360), (463, 354), (454, 347), (432, 328), (423, 321), (414, 313), (404, 305), (386, 289), (377, 280), (371, 274), (364, 267), (355, 256), (352, 250), (348, 244), (344, 238), (337, 228), (334, 223), (329, 218), (325, 213)]",222.44099768230055,"[3, 8, 7, 5, 6, 9, 1, 2, 4]","(0, 0.25)",DOT006D,DOT,D,Chinese,Mon Oct 15 13:15:22 2018,Mouse
2,3,4,0,63,5,5,1,1563,1303,260,140,0,500,200,8000,"[(512, 384), (512, 384), (512, 384), (512, 384), (512, 384), (512, 384), (512, 384), (512, 384), (512, 384), (512, 384), (512, 384), (512, 384), (512, 384), (512, 384), (512, 384), (512, 384), (512, 384), (512, 384), (512, 384), (512, 384), (512, 384), (512, 384), (512, 384), (512, 384), (512, 384), (512, 384), (512, 384), (512, 384), (512, 384), (512, 384), (512, 384), (512, 384), (512, 384), (512, 384), (512, 384), (512, 384), (512, 384), (512, 384), (512, 384), (512, 384), (512, 384), (512, 384), (512, 384), (512, 384), (512, 384), (512, 384), (512, 384), (512, 384), (512, 384), (512, 384), (512, 384), (512, 384), (512, 384), (512, 384), (512, 384), (512, 384), (512, 384), (512, 384), (512, 384), (512, 384), (512, 384), (512, 384), (512, 384), (512, 384), (512, 384), (512, 384), (512, 384), (512, 384), (512, 384), (512, 384), (512, 384), (512, 384), (512, 384), (512, 384), (512, 384), (512, 384), (512, 384), (512, 384), (512, 384), (512, 384), (512, 384), (512, 384), (512, 384), (512, 384), (512, 384), (512, 384), (512, 384), (512, 384), (512, 384), (512, 384), (512, 384), (512, 384), (512, 384), (512, 384), (512, 384), (512, 384), (512, 384), (512, 384), (512, 384), (512, 384), (512, 384), (512, 384), (512, 384), (512, 384), (512, 384), (512, 384), (512, 384), (512, 384), (512, 384), (512, 384), (512, 384), (512, 384), (512, 384), (512, 384), (512, 384), (512, 384), (512, 384), (512, 384), (512, 384), (512, 384), (512, 384), (512, 384), (512, 384), (512, 384), (512, 384), (512, 384), (512, 384), (512, 384), (512, 384), (512, 384), (508, 384), (502, 386), (498, 389), (492, 390), (487, 393), (482, 396), (477, 400), (468, 410), (466, 414), (462, 419), (456, 425), (448, 437), (445, 445), (440, 455), (435, 465), (423, 485), (417, 494), (413, 502), (407, 511), (398, 524), (393, 531), (386, 539), (381, 545), (366, 559), (357, 565), (348, 570), (337, 576)]",132.34786786096274,"[3, 8, 7, 5, 6, 9, 1, 2, 4]","(0, 0.25)",DOT006D,DOT,D,Chinese,Mon Oct 15 13:15:22 2018,Mouse
2,3,4,0,64,5,5,1,432,112,320,139,0,500,200,8000,"[(512, 384), (512, 384), (512, 384), (512, 384), (512, 384), (512, 384), (512, 384), (512, 384), (512, 384), (512, 384), (512, 384), (511, 384), (510, 384), (510, 384), (510, 384), (510, 384), (510, 384), (510, 384), (510, 384), (510, 384), (509, 386), (505, 388), (502, 389), (497, 392), (493, 394), (484, 398), (479, 399), (475, 402), (468, 406), (452, 417), (442, 423), (432, 427), (420, 432), (395, 443), (380, 449), (370, 455), (357, 463), (341, 475), (332, 482), (327, 487), (321, 493), (307, 507), (302, 514), (297, 519)]",147.87500155961249,"[3, 8, 7, 5, 6, 9, 1, 2, 4]","(0, 0.25)",DOT006D,DOT,D,Chinese,Mon Oct 15 13:15:22 2018,Mouse
2,3,4,0,65,4,5,0,-462,42,420,138,0,500,200,8000,"[(512, 384), (512, 384), (512, 384), (512, 384), (513, 383), (516, 381), (521, 375), (521, 375), (521, 375), (521, 375), (521, 375), (521, 375), (521, 375), (521, 375), (521, 375), (521, 375), (521, 375), (521, 375), (521, 375), (521, 375), (521, 375), (521, 375), (521, 375), (521, 375), (521, 375), (521, 375), (521, 375), (521, 375), (521, 375), (521, 375), (507, 386), (505, 386), (497, 390), (488, 394), (462, 405), (445, 413), (430, 419), (418, 425), (396, 437), (386, 443), (377, 452), (368, 460), (347, 481), (336, 491), (325, 504), (313, 513), (293, 526)]",147.04055105769442,"[3, 8, 7, 5, 6, 9, 1, 2, 4]","(0, 0.25)",DOT006D,DOT,D,Chinese,Mon Oct 15 13:15:22 2018,Mouse
2,3,4,0,66,6,6,1,712,12,700,139,0,500,200,8000,"[(512, 381), (512, 380), (512, 380), (512, 380), (512, 380), (512, 380), (512, 380), (512, 380), (512, 380), (512, 380), (512, 380), (512, 380), (512, 380), (512, 380), (512, 380), (512, 380), (512, 380), (512, 380), (512, 380), (512, 380), (512, 380), (512, 380), (512, 380), (512, 380), (512, 380), (512, 380), (512, 380), (512, 380), (512, 380), (512, 380), (512, 380), (512, 380), (512, 380), (512, 380), (512, 380), (512, 380), (512, 380), (512, 380), (512, 380), (512, 380), (512, 380), (512, 380), (512, 380), (512, 380), (512, 380), (512, 380), (512, 380), (512, 380), (512, 380), (512, 380), (512, 380), (512, 380), (513, 380), (513, 380), (513, 380), (513, 381), (508, 383), (503, 385), (498, 387), (488, 390), (461, 395), (448, 396), (429, 396), (414, 396), (378, 396), (359, 396), (339, 396), (319, 396), (292, 396), (280, 396), (266, 398), (255, 399)]",176.65967792030116,"[3, 8, 7, 5, 6, 9, 1, 2, 4]","(0, 0.25)",DOT006D,DOT,D,Chinese,Mon Oct 15 13:15:22 2018,Mouse
2,3,4,0,67,1,1,1,534,104,430,139,0,500,200,8000,"[(512, 384), (512, 384), (512, 384), (512, 384), (512, 384), (512, 384), (512, 384), (512, 384), (512, 384), (512, 384), (515, 384), (518, 382), (520, 379), (520, 379), (520, 379), (520, 379), (520, 379), (520, 379), (520, 379), (520, 379), (520, 379), (520, 379), (520, 379), (520, 379), (520, 379), (520, 379), (520, 379), (520, 379), (520, 379), (520, 379), (520, 379), (520, 379), (522, 380), (522, 380), (522, 380), (522, 380), (522, 380), (522, 378), (522, 372), (522, 365), (522, 346), (522, 332), (522, 317), (522, 301), (522, 269), (521, 256), (520, 241), (515, 228), (505, 195), (501, 179), (498, 166), (497, 154), (496, 135), (496, 128)]",266.4236656250026,"[3, 8, 7, 5, 6, 9, 1, 2, 4]","(0, 0.25)",DOT006D,DOT,D,Chinese,Mon Oct 15 13:15:22 2018,Mouse
2,3,4,0,68,7,7,1,1311,621,690,138,0,500,200,8000,"[(512, 384), (512, 384), (512, 384), (512, 384), (512, 384), (512, 384), (512, 384), (512, 384), (512, 384), (512, 384), (512, 384), (512, 384), (512, 384), (512, 384), (512, 384), (512, 384), (512, 384), (512, 384), (512, 384), (512, 384), (512, 384), (512, 384), (512, 384), (512, 384), (512, 384), (512, 384), (512, 384), (512, 384), (512, 384), (512, 384), (512, 384), (512, 384), (512, 384), (512, 384), (512, 384), (512, 384), (512, 384), (512, 384), (512, 384), (512, 384), (512, 384), (512, 384), (512, 384), (512, 384), (512, 384), (512, 384), (512, 384), (512, 384), (512, 384), (512, 384), (512, 384), (512, 384), (512, 384), (512, 384), (512, 384), (512, 384), (512, 384), (512, 384), (512, 384), (512, 384), (512, 384), (512, 384), (512, 385), (512, 387), (512, 388), (512, 389), (512, 389), (511, 390), (511, 390), (511, 390), (511, 390), (511, 390), (511, 390), (511, 390), (511, 390), (511, 390), (511, 390), (511, 390), (511, 390), (511, 390), (511, 390), (511, 390), (511, 390), (511, 390), (511, 390), (511, 390), (511, 390), (511, 390), (511, 390), (511, 390), (511, 390), (511, 390), (511, 390), (511, 390), (511, 390), (511, 390), (511, 390), (511, 390), (511, 390), (511, 390), (511, 391), (511, 392), (509, 395), (502, 400), (500, 402), (496, 411), (492, 421), (490, 443), (487, 454), (487, 466), (485, 477), (481, 501), (480, 509), (479, 517), (479, 526), (478, 542), (478, 549), (476, 556), (476, 561), (475, 568), (475, 572), (474, 578), (473, 584), (470, 594), (469, 600), (468, 604), (466, 610), (466, 617), (465, 620), (465, 625), (464, 628), (461, 636)]",101.44104386876742,"[3, 8, 7, 5, 6, 9, 1, 2, 4]","(0, 0.25)",DOT006D,DOT,D,Chinese,Mon Oct 15 13:15:22 2018,Mouse
2,3,4,0,69,3,5,0,-1203,393,810,137,0,500,200,8000,"[(512, 384), (512, 384), (512, 384), (512, 384), (512, 384), (512, 384), (512, 384), (512, 384), (512, 384), (512, 384), (512, 384), (512, 384), (512, 384), (512, 384), (512, 384), (512, 384), (512, 384), (512, 384), (512, 384), (512, 384), (512, 384), (512, 384), (512, 384), (512, 384), (512, 384), (512, 384), (512, 384), (512, 384), (512, 384), (512, 384), (512, 384), (512, 384), (512, 384), (512, 384), (512, 384), (512, 384), (512, 384), (512, 384), (512, 384), (513, 382), (514, 380), (514, 380), (514, 380), (514, 378), (517, 377), (518, 377), (519, 377), (519, 377), (520, 377), (520, 377), (520, 377), (520, 377), (520, 377), (520, 377), (520, 377), (520, 377), (520, 377), (520, 377), (520, 377), (520, 377), (520, 377), (520, 377), (520, 377), (520, 377), (520, 377), (520, 377), (520, 377), (520, 377), (520, 377), (520, 377), (520, 377), (520, 377), (520, 377), (520, 377), (520, 377), (520, 377), (520, 377), (520, 377), (520, 377), (520, 377), (520, 377), (520, 377), (520, 377), (520, 377), (520, 377), (520, 377), (520, 377), (520, 377), (520, 377), (520, 377), (520, 377), (520, 377), (520, 377), (520, 377), (520, 377), (520, 377), (520, 378), (517, 382), (516, 385), (516, 387), (501, 390), (492, 396), (482, 403), (470, 412), (447, 426), (437, 435), (427, 442), (419, 447), (403, 459), (394, 465), (385, 470), (378, 474), (363, 483), (357, 486), (351, 490), (345, 494), (330, 502), (321, 505), (313, 509), (304, 512), (287, 521)]",148.66322934012854,"[3, 8, 7, 5, 6, 9, 1, 2, 4]","(0, 0.25)",DOT006D,DOT,D,Chinese,Mon Oct 15 13:15:22 2018,Mouse
2,3,4,0,70,1,1,1,482,202,280,138,0,500,200,8000,"[(512, 384), (512, 384), (512, 384), (512, 384), (512, 384), (512, 384), (512, 384), (512, 384), (512, 384), (512, 384), (512, 384), (512, 384), (512, 384), (512, 384), (512, 384), (512, 384), (512, 384), (512, 384), (512, 384), (512, 384), (513, 383), (513, 373), (513, 361), (508, 348), (502, 327), (499, 317), (494, 306), (489, 293), (482, 270), (479, 260), (477, 251), (477, 246), (474, 233), (473, 227), (472, 222), (472, 217), (470, 208), (470, 203), (470, 199), (470, 195), (470, 183), (470, 179), (470, 174), (470, 169), (472, 159), (473, 153), (475, 148), (476, 141), (480, 128)]",262.8749836510982,"[3, 8, 7, 5, 6, 9, 1, 2, 4]","(0, 0.25)",DOT006D,DOT,D,Chinese,Mon Oct 15 13:15:22 2018,Mouse
2,3,4,0,71,6,6,1,812,42,770,138,0,500,200,8000,"[(512, 384), (512, 384), (512, 384), (512, 384), (513, 384), (513, 384), (513, 383), (513, 383), (513, 380), (513, 380), (513, 380), (513, 380), (513, 380), (513, 380), (513, 380), (513, 380), (513, 380), (513, 380), (513, 380), (513, 380), (513, 380), (513, 380), (513, 380), (513, 380), (513, 380), (513, 380), (513, 380), (513, 380), (513, 380), (513, 380), (513, 380), (513, 380), (513, 380), (513, 380), (513, 380), (513, 380), (513, 380), (513, 380), (513, 380), (513, 380), (513, 380), (513, 380), (513, 380), (513, 380), (513, 380), (513, 380), (513, 380), (513, 380), (513, 380), (513, 380), (513, 380), (513, 380), (513, 380), (513, 380), (513, 380), (513, 380), (513, 380), (513, 380), (513, 380), (513, 380), (513, 380), (513, 380), (512, 380), (499, 381), (474, 383), (460, 385), (448, 386), (436, 388), (413, 391), (402, 393), (393, 394), (382, 396), (366, 397), (357, 397), (347, 398), (339, 400), (313, 400), (303, 400), (293, 400), (284, 400), (269, 400), (262, 400)]",176.33806442448022,"[3, 8, 7, 5, 6, 9, 1, 2, 4]","(0, 0.25)",DOT006D,DOT,D,Chinese,Mon Oct 15 13:15:22 2018,Mouse
2,3,4,0,72,6,6,1,572,452,120,137,0,500,200,8000,"[(512, 384), (512, 384), (512, 384), (512, 384), (512, 384), (512, 384), (512, 384), (512, 384), (512, 384), (512, 384), (512, 384), (512, 384), (512, 384), (512, 384), (512, 384), (512, 384), (512, 384), (512, 384), (512, 384), (512, 384), (512, 384), (512, 384), (512, 384), (512, 384), (512, 384), (512, 384), (512, 384), (512, 384), (512, 384), (512, 384), (512, 384), (512, 384), (512, 384), (512, 384), (512, 384), (512, 384), (512, 384), (512, 384), (512, 384), (512, 384), (512, 384), (512, 384), (512, 384), (512, 384), (512, 384), (507, 384), (501, 385), (458, 392), (435, 394), (408, 399), (388, 400), (349, 404), (337, 406), (322, 407), (309, 407), (281, 407), (268, 407), (254, 407)]",174.90570342568245,"[3, 8, 7, 5, 6, 9, 1, 2, 4]","(0, 0.25)",DOT006D,DOT,D,Chinese,Mon Oct 15 13:15:22 2018,Mouse
