NativeLangNumber,LanuageNumber,SessionNumber,Block,TrialNum,ConditionNumber,Response,Accuracy,RT,MovementOnsetTime,TimeInMotion,SignalContrast,SignalContrastNumber,StimDisplayTime,MaskTime,MaxResponseTime,MousePositionXY,MouseAngle,WheelOrder,NoiseMuSigma,ParticipantID,LanuageTested,SessionTested,NativeLanuage,Date,ResponseDevice
2,3,2,0,1,2,2,1,527,427,100,153,0,500,200,8000,"[(512, 384), (512, 384), (512, 384), (512, 384), (512, 384), (512, 384), (512, 384), (512, 384), (512, 384), (512, 384), (512, 384), (512, 384), (512, 384), (512, 384), (512, 384), (512, 384), (512, 384), (512, 384), (512, 384), (512, 384), (512, 384), (512, 384), (512, 384), (512, 384), (512, 384), (512, 384), (512, 384), (512, 384), (512, 384), (512, 384), (512, 384), (512, 384), (512, 384), (512, 384), (512, 384), (512, 384), (512, 384), (512, 384), (512, 384), (512, 384), (512, 384), (512, 384), (510, 382), (502, 373), (475, 350), (458, 339), (440, 322), (416, 302), (371, 260), (349, 244), (334, 234), (322, 224), (296, 206)]",219.49105030178396,"[4, 3, 6, 7, 1, 2, 5, 9, 8]","(0, 0.25)",DOT008B,DOT,B,Chinese,Mon Oct 15 17:17:30 2018,Mouse
2,3,2,0,2,1,1,1,398,278,120,153,0,500,200,8000,"[(512, 384), (512, 384), (512, 384), (512, 384), (512, 384), (512, 384), (512, 384), (512, 384), (512, 384), (512, 384), (512, 384), (512, 384), (512, 384), (512, 384), (512, 384), (512, 384), (512, 384), (512, 384), (512, 384), (512, 384), (512, 384), (512, 384), (512, 384), (512, 384), (512, 384), (512, 384), (512, 384), (496, 385), (482, 385), (463, 385), (449, 385), (410, 380), (395, 380), (377, 380), (360, 380), (319, 377), (302, 377), (285, 377), (268, 376), (242, 374)]",182.12109639666144,"[4, 3, 6, 7, 1, 2, 5, 9, 8]","(0, 0.25)",DOT008B,DOT,B,Chinese,Mon Oct 15 17:17:30 2018,Mouse
2,3,2,0,3,9,9,1,1228,508,720,152,0,500,200,8000,"[(512, 384), (512, 384), (512, 384), (512, 384), (512, 384), (512, 384), (512, 384), (512, 384), (512, 384), (512, 384), (512, 384), (512, 384), (512, 384), (512, 384), (512, 384), (512, 384), (512, 384), (512, 384), (512, 384), (512, 384), (512, 384), (512, 384), (512, 384), (512, 384), (512, 384), (512, 384), (512, 384), (512, 384), (512, 384), (512, 384), (512, 384), (512, 384), (512, 384), (512, 384), (512, 384), (512, 384), (512, 384), (512, 384), (512, 384), (512, 384), (512, 384), (512, 384), (512, 384), (512, 384), (512, 384), (512, 384), (512, 384), (512, 384), (512, 384), (512, 384), (512, 386), (497, 407), (488, 423), (475, 438), (464, 451), (443, 474), (434, 481), (428, 487), (425, 489), (424, 491), (424, 491), (424, 491), (424, 491), (424, 491), (424, 491), (424, 491), (424, 491), (424, 491), (424, 491), (424, 491), (424, 491), (424, 491), (424, 491), (424, 489), (424, 489), (425, 489), (425, 488), (425, 488), (425, 488), (425, 487), (425, 487), (425, 486), (425, 486), (426, 486), (426, 486), (426, 486), (426, 486), (426, 486), (426, 486), (426, 486), (426, 485), (428, 484), (429, 481), (431, 479), (433, 477), (435, 473), (437, 473), (437, 472), (438, 471), (438, 471), (438, 471), (438, 471), (438, 471), (438, 471), (438, 471), (438, 471), (438, 471), (438, 471), (438, 471), (438, 471), (438, 471), (439, 470), (440, 469), (443, 466), (448, 458), (478, 423), (498, 397), (525, 370), (558, 335), (628, 267), (658, 235), (685, 208), (711, 179)]",314.1491351352697,"[4, 3, 6, 7, 1, 2, 5, 9, 8]","(0, 0.25)",DOT008B,DOT,B,Chinese,Mon Oct 15 17:17:30 2018,Mouse
2,3,2,0,4,1,1,1,340,270,70,151,0,500,200,8000,"[(512, 384), (512, 384), (512, 384), (512, 384), (512, 384), (512, 384), (512, 384), (512, 384), (512, 384), (512, 384), (512, 384), (512, 384), (512, 384), (512, 384), (512, 384), (512, 384), (512, 384), (512, 384), (512, 384), (512, 384), (512, 384), (512, 384), (512, 384), (512, 384), (512, 384), (512, 384), (507, 384), (496, 384), (452, 384), (424, 385), (393, 387), (359, 387), (287, 387), (259, 389)]",178.86781972486872,"[4, 3, 6, 7, 1, 2, 5, 9, 8]","(0, 0.25)",DOT008B,DOT,B,Chinese,Mon Oct 15 17:17:30 2018,Mouse
2,3,2,0,5,9,9,1,390,310,80,150,0,500,200,8000,"[(512, 384), (512, 384), (512, 384), (512, 384), (512, 384), (512, 384), (512, 384), (512, 384), (512, 384), (512, 384), (512, 384), (512, 384), (512, 384), (512, 384), (512, 384), (512, 384), (512, 384), (512, 384), (512, 384), (512, 384), (512, 384), (512, 384), (512, 384), (512, 384), (512, 384), (512, 384), (512, 384), (512, 384), (512, 384), (512, 384), (513, 383), (515, 374), (521, 353), (531, 330), (556, 277), (569, 250), (582, 226), (597, 199), (618, 149)]",294.27841366299947,"[4, 3, 6, 7, 1, 2, 5, 9, 8]","(0, 0.25)",DOT008B,DOT,B,Chinese,Mon Oct 15 17:17:30 2018,Mouse
2,3,2,0,6,2,2,1,540,440,100,149,0,500,200,8000,"[(512, 384), (512, 384), (512, 384), (512, 384), (512, 384), (512, 384), (512, 384), (512, 384), (512, 384), (512, 384), (512, 384), (512, 384), (512, 384), (512, 384), (512, 384), (512, 384), (512, 384), (512, 384), (512, 384), (512, 384), (512, 384), (512, 384), (512, 384), (512, 384), (512, 384), (512, 384), (512, 384), (512, 384), (512, 384), (512, 384), (512, 384), (512, 384), (512, 384), (512, 384), (512, 384), (512, 384), (512, 384), (512, 384), (512, 384), (512, 384), (512, 384), (512, 384), (512, 384), (502, 370), (480, 346), (459, 321), (438, 299), (417, 275), (409, 266), (401, 257), (393, 249), (366, 222), (351, 210), (339, 200)]",226.76485779851208,"[4, 3, 6, 7, 1, 2, 5, 9, 8]","(0, 0.25)",DOT008B,DOT,B,Chinese,Mon Oct 15 17:17:30 2018,Mouse
2,3,2,0,7,4,4,1,2119,2059,60,148,0,500,200,8000,"[(512, 384), (512, 384), (512, 384), (512, 384), (512, 384), (512, 384), (512, 384), (512, 384), (512, 384), (512, 384), (512, 384), (512, 384), (512, 384), (512, 384), (512, 384), (512, 384), (512, 384), (512, 384), (512, 384), (512, 384), (512, 384), (512, 384), (512, 384), (512, 384), (512, 384), (512, 384), (512, 384), (512, 384), (512, 384), (512, 384), (512, 384), (512, 384), (512, 384), (512, 384), (512, 384), (512, 384), (512, 384), (512, 384), (512, 384), (512, 384), (512, 384), (512, 384), (512, 384), (512, 384), (512, 384), (512, 384), (512, 384), (512, 384), (512, 384), (512, 384), (512, 384), (512, 384), (512, 384), (512, 384), (512, 384), (512, 384), (512, 384), (512, 384), (512, 384), (512, 384), (512, 384), (512, 384), (512, 384), (512, 384), (512, 384), (512, 384), (512, 384), (512, 384), (512, 384), (512, 384), (512, 384), (512, 384), (512, 384), (512, 384), (512, 384), (512, 384), (512, 384), (512, 384), (512, 384), (512, 384), (512, 384), (512, 384), (512, 384), (512, 384), (512, 384), (512, 384), (512, 384), (512, 384), (512, 384), (512, 384), (512, 384), (512, 384), (512, 384), (512, 384), (512, 384), (512, 384), (512, 384), (512, 384), (512, 384), (512, 384), (512, 384), (512, 384), (512, 384), (512, 384), (512, 384), (512, 384), (512, 384), (512, 384), (512, 384), (512, 384), (512, 384), (512, 384), (512, 384), (512, 384), (512, 384), (512, 384), (512, 384), (512, 384), (512, 384), (512, 384), (512, 384), (512, 384), (512, 384), (512, 384), (512, 384), (512, 384), (512, 384), (512, 384), (512, 384), (512, 384), (512, 384), (512, 384), (512, 384), (512, 384), (512, 384), (512, 384), (512, 384), (512, 384), (512, 384), (512, 384), (512, 384), (512, 384), (512, 384), (512, 384), (512, 384), (512, 384), (512, 384), (512, 384), (512, 384), (512, 384), (512, 384), (512, 384), (512, 384), (512, 384), (512, 384), (512, 384), (512, 384), (512, 384), (512, 384), (512, 384), (512, 384), (512, 384), (512, 384), (512, 384), (512, 384), (512, 384), (512, 384), (512, 384), (512, 384), (512, 384), (512, 384), (512, 384), (512, 384), (512, 384), (512, 384), (512, 384), (512, 384), (512, 384), (512, 384), (512, 384), (512, 384), (512, 384), (512, 384), (512, 384), (512, 384), (512, 384), (512, 384), (512, 384), (512, 384), (512, 384), (512, 384), (512, 384), (512, 384), (512, 384), (512, 384), (512, 384), (512, 384), (512, 384), (512, 384), (512, 384), (512, 384), (512, 384), (512, 384), (512, 384), (512, 384), (515, 384), (531, 391), (563, 403), (599, 414), (689, 450), (734, 467), (780, 489)]",21.39480110298164,"[4, 3, 6, 7, 1, 2, 5, 9, 8]","(0, 0.25)",DOT008B,DOT,B,Chinese,Mon Oct 15 17:17:30 2018,Mouse
2,3,2,0,8,9,9,1,388,308,80,147,0,500,200,8000,"[(512, 384), (512, 384), (512, 384), (512, 384), (512, 384), (512, 384), (512, 384), (512, 384), (512, 384), (512, 384), (512, 384), (512, 384), (512, 384), (512, 384), (512, 384), (512, 384), (512, 384), (512, 384), (512, 384), (512, 384), (512, 384), (512, 384), (512, 384), (512, 384), (512, 384), (512, 384), (512, 384), (512, 384), (512, 384), (512, 384), (515, 378), (522, 363), (532, 347), (555, 308), (571, 286), (586, 264), (601, 246), (628, 197), (642, 170)]",301.27770286686643,"[4, 3, 6, 7, 1, 2, 5, 9, 8]","(0, 0.25)",DOT008B,DOT,B,Chinese,Mon Oct 15 17:17:30 2018,Mouse
2,3,2,0,9,6,6,1,618,528,90,146,0,500,200,8000,"[(512, 384), (512, 384), (512, 384), (512, 384), (512, 384), (512, 384), (512, 384), (512, 384), (512, 384), (512, 384), (512, 384), (512, 384), (512, 384), (512, 384), (512, 384), (512, 384), (512, 384), (512, 384), (512, 384), (512, 384), (512, 384), (512, 384), (512, 384), (512, 384), (512, 384), (512, 384), (512, 384), (512, 384), (512, 384), (512, 384), (512, 384), (512, 384), (512, 384), (512, 384), (512, 384), (512, 384), (512, 384), (512, 384), (512, 384), (512, 384), (512, 384), (512, 384), (512, 384), (512, 384), (512, 384), (512, 384), (512, 384), (512, 384), (512, 384), (512, 384), (512, 384), (512, 384), (511, 392), (506, 410), (491, 458), (483, 483), (477, 505), (469, 525), (460, 567), (457, 590), (450, 615), (445, 645)]",104.39723820194489,"[4, 3, 6, 7, 1, 2, 5, 9, 8]","(0, 0.25)",DOT008B,DOT,B,Chinese,Mon Oct 15 17:17:30 2018,Mouse
2,3,2,0,10,1,1,1,489,319,170,145,0,500,200,8000,"[(512, 384), (512, 384), (512, 384), (512, 384), (512, 384), (512, 384), (512, 384), (512, 384), (512, 384), (512, 384), (512, 384), (512, 384), (512, 384), (512, 384), (512, 384), (512, 384), (512, 384), (512, 384), (512, 384), (512, 384), (512, 384), (512, 384), (512, 384), (512, 384), (512, 384), (512, 384), (512, 384), (512, 384), (512, 384), (512, 384), (512, 384), (511, 385), (509, 386), (507, 385), (498, 385), (491, 387), (486, 387), (485, 387), (483, 386), (476, 385), (456, 382), (443, 381), (433, 379), (422, 376), (395, 373), (372, 373), (342, 373), (305, 371), (221, 369)]",182.95077910900633,"[4, 3, 6, 7, 1, 2, 5, 9, 8]","(0, 0.25)",DOT008B,DOT,B,Chinese,Mon Oct 15 17:17:30 2018,Mouse
2,3,2,0,11,9,9,1,919,839,80,144,0,500,200,8000,"[(512, 384), (512, 384), (512, 384), (512, 384), (512, 384), (512, 384), (512, 384), (512, 384), (512, 384), (512, 384), (512, 384), (512, 384), (512, 384), (512, 384), (512, 384), (512, 384), (512, 384), (512, 384), (512, 384), (512, 384), (512, 384), (512, 384), (512, 384), (512, 384), (512, 384), (512, 384), (512, 384), (512, 384), (512, 384), (512, 384), (512, 384), (512, 384), (512, 384), (512, 384), (512, 384), (512, 384), (512, 384), (512, 384), (512, 384), (512, 384), (512, 384), (512, 384), (512, 384), (512, 384), (512, 384), (512, 384), (512, 384), (512, 384), (512, 384), (512, 384), (512, 384), (512, 384), (512, 384), (512, 384), (512, 384), (512, 384), (512, 384), (512, 384), (512, 384), (512, 384), (512, 384), (512, 384), (512, 384), (512, 384), (512, 384), (512, 384), (512, 384), (512, 384), (512, 384), (512, 384), (512, 384), (512, 384), (512, 384), (512, 384), (512, 384), (512, 384), (512, 384), (512, 384), (512, 384), (512, 384), (512, 384), (512, 384), (512, 384), (514, 381), (522, 369), (529, 352), (542, 328), (566, 273), (583, 246), (596, 221), (612, 199), (647, 129)]",297.89727103094765,"[4, 3, 6, 7, 1, 2, 5, 9, 8]","(0, 0.25)",DOT008B,DOT,B,Chinese,Mon Oct 15 17:17:30 2018,Mouse
2,3,2,0,12,2,2,1,320,250,70,143,0,500,200,8000,"[(512, 384), (512, 384), (512, 384), (512, 384), (512, 384), (512, 384), (512, 384), (512, 384), (512, 384), (512, 384), (512, 384), (512, 384), (512, 384), (512, 384), (512, 384), (512, 384), (512, 384), (512, 384), (512, 384), (512, 384), (512, 384), (512, 384), (512, 384), (512, 384), (507, 381), (490, 360), (471, 335), (423, 280), (403, 254), (381, 226), (363, 203), (335, 165)]",231.0541918941148,"[4, 3, 6, 7, 1, 2, 5, 9, 8]","(0, 0.25)",DOT008B,DOT,B,Chinese,Mon Oct 15 17:17:30 2018,Mouse
2,3,2,0,13,8,8,1,1201,1121,80,142,0,500,200,8000,"[(512, 384), (512, 384), (512, 384), (512, 384), (512, 384), (512, 384), (512, 384), (512, 384), (512, 384), (512, 384), (512, 384), (512, 384), (512, 384), (512, 384), (512, 384), (512, 384), (512, 384), (512, 384), (512, 384), (512, 384), (512, 384), (512, 384), (512, 384), (512, 384), (512, 384), (512, 384), (512, 384), (512, 384), (512, 384), (512, 384), (512, 384), (512, 384), (512, 384), (512, 384), (512, 384), (512, 384), (512, 384), (512, 384), (512, 384), (512, 384), (512, 384), (512, 384), (512, 384), (512, 384), (512, 384), (512, 384), (512, 384), (512, 384), (512, 384), (512, 384), (512, 384), (512, 384), (512, 384), (512, 384), (512, 384), (512, 384), (512, 384), (512, 384), (512, 384), (512, 384), (512, 384), (512, 384), (512, 384), (512, 384), (512, 384), (512, 384), (512, 384), (512, 384), (512, 384), (512, 384), (512, 384), (512, 384), (512, 384), (512, 384), (512, 384), (512, 384), (512, 384), (512, 384), (512, 384), (512, 384), (512, 384), (512, 384), (512, 384), (512, 384), (512, 384), (512, 384), (512, 384), (512, 384), (512, 384), (512, 384), (512, 384), (512, 384), (512, 384), (512, 384), (512, 384), (512, 384), (512, 384), (512, 384), (512, 384), (512, 384), (512, 384), (512, 384), (512, 384), (512, 384), (512, 384), (512, 384), (512, 384), (512, 384), (512, 384), (512, 384), (512, 384), (512, 384), (522, 385), (537, 385), (555, 384), (574, 384), (629, 373), (661, 368), (696, 361), (729, 352), (802, 339)]",351.17962044797895,"[4, 3, 6, 7, 1, 2, 5, 9, 8]","(0, 0.25)",DOT008B,DOT,B,Chinese,Mon Oct 15 17:17:30 2018,Mouse
2,3,2,0,14,7,7,1,337,257,80,141,0,500,200,8000,"[(512, 384), (512, 384), (512, 384), (512, 384), (512, 384), (512, 384), (512, 384), (512, 384), (512, 384), (512, 384), (512, 384), (512, 384), (512, 384), (512, 384), (512, 384), (512, 384), (512, 384), (512, 384), (512, 384), (512, 384), (512, 384), (512, 384), (512, 384), (512, 384), (512, 384), (510, 388), (505, 398), (483, 431), (469, 450), (454, 470), (431, 497), (383, 549), (356, 579), (326, 608)]",129.70478706338287,"[4, 3, 6, 7, 1, 2, 5, 9, 8]","(0, 0.25)",DOT008B,DOT,B,Chinese,Mon Oct 15 17:17:30 2018,Mouse
2,3,2,0,15,3,2,0,-331,271,60,140,0,500,200,8000,"[(512, 384), (512, 384), (512, 384), (512, 384), (512, 384), (512, 384), (512, 384), (512, 384), (512, 384), (512, 384), (512, 384), (512, 384), (512, 384), (512, 384), (512, 384), (512, 384), (512, 384), (512, 384), (512, 384), (512, 384), (512, 384), (512, 384), (512, 384), (512, 384), (512, 384), (512, 384), (512, 384), (511, 384), (500, 378), (473, 362), (394, 318), (356, 299), (318, 280), (289, 265)]",208.08582083822174,"[4, 3, 6, 7, 1, 2, 5, 9, 8]","(0, 0.25)",DOT008B,DOT,B,Chinese,Mon Oct 15 17:17:30 2018,Mouse
2,3,2,0,16,2,2,1,360,290,70,141,0,500,200,8000,"[(512, 384), (512, 384), (512, 384), (512, 384), (512, 384), (512, 384), (512, 384), (512, 384), (512, 384), (512, 384), (512, 384), (512, 384), (512, 384), (512, 384), (512, 384), (512, 384), (512, 384), (512, 384), (512, 384), (512, 384), (512, 384), (512, 384), (512, 384), (512, 384), (512, 384), (512, 384), (512, 384), (512, 384), (509, 379), (500, 370), (479, 348), (454, 321), (382, 257), (359, 237), (336, 221), (317, 209)]",221.9059419410829,"[4, 3, 6, 7, 1, 2, 5, 9, 8]","(0, 0.25)",DOT008B,DOT,B,Chinese,Mon Oct 15 17:17:30 2018,Mouse
2,3,2,0,17,3,3,1,701,571,130,141,0,500,200,8000,"[(512, 384), (512, 384), (512, 384), (512, 384), (512, 384), (512, 384), (512, 384), (512, 384), (512, 384), (512, 384), (512, 384), (512, 384), (512, 384), (512, 384), (512, 384), (512, 384), (512, 384), (512, 384), (512, 384), (512, 384), (512, 384), (512, 384), (512, 384), (512, 384), (512, 384), (512, 384), (512, 384), (512, 384), (512, 384), (512, 384), (512, 384), (512, 384), (512, 384), (512, 384), (512, 384), (512, 384), (512, 384), (512, 384), (512, 384), (512, 384), (512, 384), (512, 384), (512, 384), (512, 384), (512, 384), (512, 384), (512, 384), (512, 384), (512, 384), (512, 384), (512, 384), (512, 384), (512, 384), (512, 384), (512, 384), (512, 384), (512, 384), (515, 386), (522, 392), (531, 399), (540, 407), (554, 423), (561, 431), (569, 440), (577, 450), (602, 480), (620, 495), (639, 514), (657, 530), (686, 559), (696, 574)]",45.91910478371424,"[4, 3, 6, 7, 1, 2, 5, 9, 8]","(0, 0.25)",DOT008B,DOT,B,Chinese,Mon Oct 15 17:17:30 2018,Mouse
2,3,2,0,18,6,6,1,611,511,100,140,0,500,200,8000,"[(512, 384), (512, 384), (512, 384), (512, 384), (512, 384), (512, 384), (512, 384), (512, 384), (512, 384), (512, 384), (512, 384), (512, 384), (512, 384), (512, 384), (512, 384), (512, 384), (512, 384), (512, 384), (512, 384), (512, 384), (512, 384), (512, 384), (512, 384), (512, 384), (512, 384), (512, 384), (512, 384), (512, 384), (512, 384), (512, 384), (512, 384), (512, 384), (512, 384), (512, 384), (512, 384), (512, 384), (512, 384), (512, 384), (512, 384), (512, 384), (512, 384), (512, 384), (512, 384), (512, 384), (512, 384), (512, 384), (512, 384), (512, 384), (512, 384), (512, 384), (512, 384), (512, 403), (512, 416), (512, 427), (512, 436), (510, 453), (505, 465), (497, 488), (485, 514), (461, 577), (450, 608), (445, 640)]",104.66641911378663,"[4, 3, 6, 7, 1, 2, 5, 9, 8]","(0, 0.25)",DOT008B,DOT,B,Chinese,Mon Oct 15 17:17:30 2018,Mouse
2,3,2,0,19,9,9,1,377,297,80,139,0,500,200,8000,"[(512, 384), (512, 384), (512, 384), (512, 384), (512, 384), (512, 384), (512, 384), (512, 384), (512, 384), (512, 384), (512, 384), (512, 384), (512, 384), (512, 384), (512, 384), (512, 384), (512, 384), (512, 384), (512, 384), (512, 384), (512, 384), (512, 384), (512, 384), (512, 384), (512, 384), (512, 384), (512, 384), (512, 384), (512, 384), (517, 377), (523, 367), (532, 354), (541, 337), (571, 285), (591, 258), (610, 230), (629, 204), (661, 159)]",303.5134110060776,"[4, 3, 6, 7, 1, 2, 5, 9, 8]","(0, 0.25)",DOT008B,DOT,B,Chinese,Mon Oct 15 17:17:30 2018,Mouse
2,3,2,0,20,9,9,1,349,269,80,138,0,500,200,8000,"[(512, 384), (512, 384), (512, 384), (512, 384), (512, 384), (512, 384), (512, 384), (512, 384), (512, 384), (512, 384), (512, 384), (512, 384), (512, 384), (512, 384), (512, 384), (512, 384), (512, 384), (512, 384), (512, 384), (512, 384), (512, 384), (512, 384), (512, 384), (512, 384), (512, 384), (512, 384), (515, 370), (525, 349), (534, 326), (545, 305), (557, 285), (579, 247), (594, 227), (613, 202), (644, 162)]",300.7354877019201,"[4, 3, 6, 7, 1, 2, 5, 9, 8]","(0, 0.25)",DOT008B,DOT,B,Chinese,Mon Oct 15 17:17:30 2018,Mouse
2,3,2,0,21,9,9,1,288,218,70,137,0,500,200,8000,"[(512, 384), (512, 384), (512, 384), (512, 384), (512, 384), (512, 384), (512, 384), (512, 384), (512, 384), (512, 384), (512, 384), (512, 384), (512, 384), (512, 384), (512, 384), (512, 384), (512, 384), (512, 384), (512, 384), (512, 384), (512, 384), (512, 382), (516, 370), (521, 351), (541, 300), (553, 271), (573, 238), (593, 205), (627, 152)]",296.3671390816177,"[4, 3, 6, 7, 1, 2, 5, 9, 8]","(0, 0.25)",DOT008B,DOT,B,Chinese,Mon Oct 15 17:17:30 2018,Mouse
2,3,2,0,22,2,2,1,459,339,120,136,0,500,200,8000,"[(512, 384), (512, 384), (512, 384), (512, 384), (512, 384), (512, 384), (512, 384), (512, 384), (512, 384), (512, 384), (512, 384), (512, 384), (512, 384), (512, 384), (512, 384), (512, 384), (512, 384), (512, 384), (512, 384), (512, 384), (512, 384), (512, 384), (512, 384), (512, 384), (512, 384), (512, 384), (512, 384), (512, 384), (512, 384), (512, 384), (512, 384), (512, 384), (512, 384), (511, 384), (505, 380), (481, 357), (463, 340), (447, 326), (437, 317), (411, 296), (398, 286), (386, 277), (368, 262), (338, 239), (321, 224), (305, 209)]",220.2115334496864,"[4, 3, 6, 7, 1, 2, 5, 9, 8]","(0, 0.25)",DOT008B,DOT,B,Chinese,Mon Oct 15 17:17:30 2018,Mouse
2,3,2,0,23,8,8,1,849,179,670,135,0,500,200,8000,"[(512, 384), (512, 384), (512, 384), (512, 384), (512, 384), (512, 384), (512, 384), (512, 384), (512, 384), (512, 384), (512, 384), (512, 384), (512, 384), (512, 384), (512, 384), (512, 384), (512, 384), (513, 384), (513, 384), (513, 384), (513, 384), (513, 384), (513, 384), (513, 384), (513, 384), (513, 384), (513, 384), (513, 384), (513, 384), (513, 384), (513, 384), (513, 384), (513, 384), (513, 384), (513, 384), (513, 384), (513, 384), (513, 384), (513, 384), (513, 384), (513, 384), (513, 384), (513, 384), (513, 384), (513, 384), (513, 384), (513, 384), (513, 384), (513, 384), (513, 384), (513, 384), (513, 384), (513, 384), (513, 384), (513, 384), (513, 384), (513, 384), (513, 384), (513, 384), (513, 384), (513, 384), (513, 384), (513, 384), (513, 384), (513, 384), (513, 384), (513, 384), (513, 384), (513, 384), (513, 384), (513, 384), (513, 384), (513, 384), (513, 384), (513, 384), (513, 384), (515, 384), (537, 375), (552, 369), (571, 365), (596, 357), (661, 336), (695, 323), (734, 310), (774, 291)]",340.45707980443206,"[4, 3, 6, 7, 1, 2, 5, 9, 8]","(0, 0.25)",DOT008B,DOT,B,Chinese,Mon Oct 15 17:17:30 2018,Mouse
2,3,2,0,24,3,2,0,-889,829,60,134,0,500,200,8000,"[(512, 384), (512, 384), (512, 384), (512, 384), (512, 384), (512, 384), (512, 384), (512, 384), (512, 384), (512, 384), (512, 384), (512, 384), (512, 384), (512, 384), (512, 384), (512, 384), (512, 384), (512, 384), (512, 384), (512, 384), (512, 384), (512, 384), (512, 384), (512, 384), (512, 384), (512, 384), (512, 384), (512, 384), (512, 384), (512, 384), (512, 384), (512, 384), (512, 384), (512, 384), (512, 384), (512, 384), (512, 384), (512, 384), (512, 384), (512, 384), (512, 384), (512, 384), (512, 384), (512, 384), (512, 384), (512, 384), (512, 384), (512, 384), (512, 384), (512, 384), (512, 384), (512, 384), (512, 384), (512, 384), (512, 384), (512, 384), (512, 384), (512, 384), (512, 384), (512, 384), (512, 384), (512, 384), (512, 384), (512, 384), (512, 384), (512, 384), (512, 384), (512, 384), (512, 384), (512, 384), (512, 384), (512, 384), (512, 384), (512, 384), (512, 384), (512, 384), (512, 384), (512, 384), (512, 384), (512, 384), (512, 384), (512, 384), (510, 382), (501, 369), (464, 318), (439, 282), (413, 251), (385, 216), (315, 155)]",229.2958405112715,"[4, 3, 6, 7, 1, 2, 5, 9, 8]","(0, 0.25)",DOT008B,DOT,B,Chinese,Mon Oct 15 17:17:30 2018,Mouse
2,3,2,0,25,5,5,1,468,428,40,135,0,500,200,8000,"[(512, 384), (512, 384), (512, 384), (512, 384), (512, 384), (512, 384), (512, 384), (512, 384), (512, 384), (512, 384), (512, 384), (512, 384), (512, 384), (512, 384), (512, 384), (512, 384), (512, 384), (512, 384), (512, 384), (512, 384), (512, 384), (512, 384), (512, 384), (512, 384), (512, 384), (512, 384), (512, 384), (512, 384), (512, 384), (512, 384), (512, 384), (512, 384), (512, 384), (512, 384), (512, 384), (512, 384), (512, 384), (512, 384), (512, 384), (512, 384), (512, 384), (512, 384), (512, 373), (500, 298), (488, 248), (476, 201), (449, 107)]",257.1867940409626,"[4, 3, 6, 7, 1, 2, 5, 9, 8]","(0, 0.25)",DOT008B,DOT,B,Chinese,Mon Oct 15 17:17:30 2018,Mouse
2,3,2,0,26,3,2,0,-429,369,60,135,0,500,200,8000,"[(512, 384), (512, 384), (512, 384), (512, 384), (512, 384), (512, 384), (512, 384), (512, 384), (512, 384), (512, 384), (512, 384), (512, 384), (512, 384), (512, 384), (512, 384), (512, 384), (512, 384), (512, 384), (512, 384), (512, 384), (512, 384), (512, 384), (512, 384), (512, 384), (512, 384), (512, 384), (512, 384), (512, 384), (512, 384), (512, 384), (512, 384), (512, 384), (512, 384), (512, 384), (512, 384), (512, 384), (510, 382), (495, 368), (467, 346), (397, 295), (358, 268), (326, 242), (293, 218)]",217.16179501608062,"[4, 3, 6, 7, 1, 2, 5, 9, 8]","(0, 0.25)",DOT008B,DOT,B,Chinese,Mon Oct 15 17:17:30 2018,Mouse
2,3,2,0,27,3,3,1,379,69,310,136,0,500,200,8000,"[(512, 384), (512, 384), (512, 384), (512, 384), (512, 384), (512, 384), (513, 385), (513, 385), (514, 385), (515, 387), (516, 387), (516, 387), (516, 387), (516, 387), (516, 387), (516, 387), (516, 387), (516, 387), (516, 387), (516, 387), (516, 387), (516, 387), (516, 387), (516, 387), (516, 387), (516, 387), (516, 387), (516, 387), (516, 387), (516, 392), (520, 399), (524, 412), (529, 424), (552, 461), (571, 489), (596, 518), (625, 544), (689, 604)]",51.18174143216738,"[4, 3, 6, 7, 1, 2, 5, 9, 8]","(0, 0.25)",DOT008B,DOT,B,Chinese,Mon Oct 15 17:17:30 2018,Mouse
2,3,2,0,28,8,2,0,-499,419,80,136,0,500,200,8000,"[(512, 384), (512, 384), (512, 384), (512, 384), (512, 384), (512, 384), (512, 384), (512, 384), (512, 384), (512, 384), (512, 384), (512, 384), (512, 384), (512, 384), (512, 384), (512, 384), (512, 384), (512, 384), (512, 384), (512, 384), (512, 384), (512, 384), (512, 384), (512, 384), (512, 384), (512, 384), (512, 384), (512, 384), (512, 384), (512, 384), (512, 384), (512, 384), (512, 384), (512, 384), (512, 384), (512, 384), (512, 384), (512, 384), (512, 384), (512, 384), (512, 384), (511, 382), (502, 375), (471, 353), (448, 333), (425, 313), (403, 292), (357, 244), (335, 220), (310, 193)]",223.39671993531948,"[4, 3, 6, 7, 1, 2, 5, 9, 8]","(0, 0.25)",DOT008B,DOT,B,Chinese,Mon Oct 15 17:17:30 2018,Mouse
2,3,2,0,29,2,2,1,1081,981,100,137,0,500,200,8000,"[(512, 384), (512, 384), (512, 384), (512, 384), (512, 384), (512, 384), (512, 384), (512, 384), (512, 384), (512, 384), (512, 384), (512, 384), (512, 384), (512, 384), (512, 384), (512, 384), (512, 384), (512, 384), (512, 384), (512, 384), (512, 384), (512, 384), (512, 384), (512, 384), (512, 384), (512, 384), (512, 384), (512, 384), (512, 384), (512, 384), (512, 384), (512, 384), (512, 384), (512, 384), (512, 384), (512, 384), (512, 384), (512, 384), (512, 384), (512, 384), (512, 384), (512, 384), (512, 384), (512, 384), (512, 384), (512, 384), (512, 384), (512, 384), (512, 384), (512, 384), (512, 384), (512, 384), (512, 384), (512, 384), (512, 384), (512, 384), (512, 384), (512, 384), (512, 384), (512, 384), (512, 384), (512, 384), (512, 384), (512, 384), (512, 384), (512, 384), (512, 384), (512, 384), (512, 384), (512, 384), (512, 384), (512, 384), (512, 384), (512, 384), (512, 384), (512, 384), (512, 384), (512, 384), (512, 384), (512, 384), (512, 384), (512, 384), (512, 384), (512, 384), (512, 384), (512, 384), (512, 384), (512, 384), (512, 384), (512, 384), (512, 384), (512, 384), (512, 384), (512, 384), (512, 384), (512, 384), (512, 384), (512, 384), (507, 381), (493, 374), (478, 363), (461, 352), (431, 326), (418, 313), (400, 296), (385, 284), (355, 253), (340, 239), (316, 219)]",220.09190443825474,"[4, 3, 6, 7, 1, 2, 5, 9, 8]","(0, 0.25)",DOT008B,DOT,B,Chinese,Mon Oct 15 17:17:30 2018,Mouse
2,3,2,0,30,4,4,1,939,849,90,137,0,500,200,8000,"[(512, 384), (512, 384), (512, 384), (512, 384), (512, 384), (512, 384), (512, 384), (512, 384), (512, 384), (512, 384), (512, 384), (512, 384), (512, 384), (512, 384), (512, 384), (512, 384), (512, 384), (512, 384), (512, 384), (512, 384), (512, 384), (512, 384), (512, 384), (512, 384), (512, 384), (512, 384), (512, 384), (512, 384), (512, 384), (512, 384), (512, 384), (512, 384), (512, 384), (512, 384), (512, 384), (512, 384), (512, 384), (512, 384), (512, 384), (512, 384), (512, 384), (512, 384), (512, 384), (512, 384), (512, 384), (512, 384), (512, 384), (512, 384), (512, 384), (512, 384), (512, 384), (512, 384), (512, 384), (512, 384), (512, 384), (512, 384), (512, 384), (512, 384), (512, 384), (512, 384), (512, 384), (512, 384), (512, 384), (512, 384), (512, 384), (512, 384), (512, 384), (512, 384), (512, 384), (512, 384), (512, 384), (512, 384), (512, 384), (512, 384), (512, 384), (512, 384), (512, 384), (512, 384), (512, 384), (512, 384), (512, 384), (512, 384), (512, 384), (512, 384), (513, 385), (520, 388), (533, 395), (554, 406), (586, 422), (649, 447), (677, 453), (702, 461), (719, 468), (760, 484)]",21.96056402009647,"[4, 3, 6, 7, 1, 2, 5, 9, 8]","(0, 0.25)",DOT008B,DOT,B,Chinese,Mon Oct 15 17:17:30 2018,Mouse
2,3,2,0,31,1,2,0,-697,467,230,136,0,500,200,8000,"[(512, 384), (512, 384), (512, 384), (512, 384), (512, 384), (512, 384), (512, 384), (512, 384), (512, 384), (512, 384), (512, 384), (512, 384), (512, 384), (512, 384), (512, 384), (512, 384), (512, 384), (512, 384), (512, 384), (512, 384), (512, 384), (512, 384), (512, 384), (512, 384), (512, 384), (512, 384), (512, 384), (512, 384), (512, 384), (512, 384), (512, 384), (512, 384), (512, 384), (512, 384), (512, 384), (512, 384), (512, 384), (512, 384), (512, 384), (512, 384), (512, 384), (512, 384), (512, 384), (512, 384), (512, 384), (512, 384), (511, 384), (511, 384), (511, 384), (511, 384), (510, 384), (509, 384), (508, 383), (507, 382), (504, 382), (500, 379), (498, 378), (496, 376), (490, 374), (485, 372), (482, 370), (475, 366), (459, 359), (448, 352), (433, 342), (411, 329), (365, 295), (339, 274), (310, 249), (284, 224)]",215.05942696688697,"[4, 3, 6, 7, 1, 2, 5, 9, 8]","(0, 0.25)",DOT008B,DOT,B,Chinese,Mon Oct 15 17:17:30 2018,Mouse
2,3,2,0,32,7,5,0,-449,359,90,137,0,500,200,8000,"[(512, 384), (512, 384), (512, 384), (512, 384), (512, 384), (512, 384), (512, 384), (512, 384), (512, 384), (512, 384), (512, 384), (512, 384), (512, 384), (512, 384), (512, 384), (512, 384), (512, 384), (512, 384), (512, 384), (512, 384), (512, 384), (512, 384), (512, 384), (512, 384), (512, 384), (512, 384), (512, 384), (512, 384), (512, 384), (512, 384), (512, 384), (512, 384), (512, 384), (512, 384), (512, 384), (512, 383), (514, 357), (515, 338), (515, 316), (514, 282), (513, 228), (513, 200), (513, 170), (513, 142), (508, 84)]",269.23610153907,"[4, 3, 6, 7, 1, 2, 5, 9, 8]","(0, 0.25)",DOT008B,DOT,B,Chinese,Mon Oct 15 17:17:30 2018,Mouse
2,3,2,0,33,7,7,1,729,679,50,138,0,500,200,8000,"[(512, 384), (512, 384), (512, 384), (512, 384), (512, 384), (512, 384), (512, 384), (512, 384), (512, 384), (512, 384), (512, 384), (512, 384), (512, 384), (512, 384), (512, 384), (512, 384), (512, 384), (512, 384), (512, 384), (512, 384), (512, 384), (512, 384), (512, 384), (512, 384), (512, 384), (512, 384), (512, 384), (512, 384), (512, 384), (512, 384), (512, 384), (512, 384), (512, 384), (512, 384), (512, 384), (512, 384), (512, 384), (512, 384), (512, 384), (512, 384), (512, 384), (512, 384), (512, 384), (512, 384), (512, 384), (512, 384), (512, 384), (512, 384), (512, 384), (512, 384), (512, 384), (512, 384), (512, 384), (512, 384), (512, 384), (512, 384), (512, 384), (512, 384), (512, 384), (512, 384), (512, 384), (512, 384), (512, 384), (512, 384), (512, 384), (512, 384), (512, 384), (512, 386), (497, 403), (478, 424), (448, 452), (408, 488), (316, 558)]",138.40276977106177,"[4, 3, 6, 7, 1, 2, 5, 9, 8]","(0, 0.25)",DOT008B,DOT,B,Chinese,Mon Oct 15 17:17:30 2018,Mouse
2,3,2,0,34,6,6,1,589,469,120,138,0,500,200,8000,"[(512, 384), (512, 384), (512, 384), (512, 384), (512, 384), (512, 384), (512, 384), (512, 384), (512, 384), (512, 384), (512, 384), (512, 384), (512, 384), (512, 384), (512, 384), (512, 384), (512, 384), (512, 384), (512, 384), (512, 384), (512, 384), (512, 384), (512, 384), (512, 384), (512, 384), (512, 384), (512, 384), (512, 384), (512, 384), (512, 384), (512, 384), (512, 384), (512, 384), (512, 384), (512, 384), (512, 384), (512, 384), (512, 384), (512, 384), (512, 384), (512, 384), (512, 384), (512, 384), (512, 384), (512, 384), (512, 384), (513, 384), (513, 384), (513, 384), (514, 384), (514, 386), (511, 400), (506, 418), (496, 446), (486, 480), (462, 555), (449, 587), (439, 615), (434, 632)]",107.45920263562721,"[4, 3, 6, 7, 1, 2, 5, 9, 8]","(0, 0.25)",DOT008B,DOT,B,Chinese,Mon Oct 15 17:17:30 2018,Mouse
2,3,2,0,35,6,7,0,-658,588,70,137,0,500,200,8000,"[(512, 384), (512, 384), (512, 384), (512, 384), (512, 384), (512, 384), (512, 384), (512, 384), (512, 384), (512, 384), (512, 384), (512, 384), (512, 384), (512, 384), (512, 384), (512, 384), (512, 384), (512, 384), (512, 384), (512, 384), (512, 384), (512, 384), (512, 384), (512, 384), (512, 384), (512, 384), (512, 384), (512, 384), (512, 384), (512, 384), (512, 384), (512, 384), (512, 384), (512, 384), (512, 384), (512, 384), (512, 384), (512, 384), (512, 384), (512, 384), (512, 384), (512, 384), (512, 384), (512, 384), (512, 384), (512, 384), (512, 384), (512, 384), (512, 384), (512, 384), (512, 384), (512, 384), (512, 384), (512, 384), (512, 384), (512, 384), (512, 384), (512, 384), (510, 391), (503, 401), (489, 416), (478, 427), (456, 446), (425, 472), (333, 537), (288, 570)]",140.29521293661713,"[4, 3, 6, 7, 1, 2, 5, 9, 8]","(0, 0.25)",DOT008B,DOT,B,Chinese,Mon Oct 15 17:17:30 2018,Mouse
2,3,2,0,36,1,5,0,-519,229,290,138,0,500,200,8000,"[(512, 384), (512, 384), (512, 384), (512, 384), (512, 384), (512, 384), (512, 384), (512, 384), (512, 384), (512, 384), (512, 384), (512, 384), (512, 384), (512, 384), (512, 384), (512, 384), (512, 384), (512, 384), (512, 384), (512, 384), (512, 384), (512, 384), (513, 384), (513, 384), (513, 384), (513, 384), (513, 384), (513, 384), (513, 384), (513, 384), (513, 384), (513, 384), (513, 384), (513, 384), (513, 384), (513, 384), (513, 384), (513, 384), (514, 382), (514, 379), (514, 377), (517, 373), (518, 367), (520, 358), (521, 345), (521, 332), (521, 294), (518, 265), (514, 241), (502, 181), (497, 151), (493, 127)]",265.77181729483834,"[4, 3, 6, 7, 1, 2, 5, 9, 8]","(0, 0.25)",DOT008B,DOT,B,Chinese,Mon Oct 15 17:17:30 2018,Mouse
2,3,2,0,37,5,5,1,309,259,50,139,0,500,200,8000,"[(512, 384), (512, 384), (512, 384), (512, 384), (512, 384), (512, 384), (512, 384), (512, 384), (512, 384), (512, 384), (512, 384), (512, 384), (512, 384), (512, 384), (512, 384), (512, 384), (512, 384), (512, 384), (512, 384), (512, 384), (512, 384), (512, 384), (512, 384), (512, 384), (512, 384), (513, 379), (514, 352), (516, 310), (516, 260), (513, 159), (513, 112)]",270.2106452991554,"[4, 3, 6, 7, 1, 2, 5, 9, 8]","(0, 0.25)",DOT008B,DOT,B,Chinese,Mon Oct 15 17:17:30 2018,Mouse
2,3,2,0,38,2,2,1,470,410,60,139,0,500,200,8000,"[(512, 384), (512, 384), (512, 384), (512, 384), (512, 384), (512, 384), (512, 384), (512, 384), (512, 384), (512, 384), (512, 384), (512, 384), (512, 384), (512, 384), (512, 384), (512, 384), (512, 384), (512, 384), (512, 384), (512, 384), (512, 384), (512, 384), (512, 384), (512, 384), (512, 384), (512, 384), (512, 384), (512, 384), (512, 384), (512, 384), (512, 384), (512, 384), (512, 384), (512, 384), (512, 384), (512, 384), (512, 384), (512, 384), (512, 384), (512, 384), (511, 384), (499, 377), (442, 344), (408, 318), (376, 290), (348, 269), (299, 228)]",216.21883726561452,"[4, 3, 6, 7, 1, 2, 5, 9, 8]","(0, 0.25)",DOT008B,DOT,B,Chinese,Mon Oct 15 17:17:30 2018,Mouse
2,3,2,0,39,2,2,1,2029,1929,100,138,0,500,200,8000,"[(512, 384), (512, 384), (512, 384), (512, 384), (512, 384), (512, 384), (512, 384), (512, 384), (512, 384), (512, 384), (512, 384), (512, 384), (512, 384), (512, 384), (512, 384), (512, 384), (512, 384), (512, 384), (512, 384), (512, 384), (512, 384), (512, 384), (512, 384), (512, 384), (512, 384), (512, 384), (512, 384), (512, 384), (512, 384), (512, 384), (512, 384), (512, 384), (512, 384), (512, 384), (512, 384), (512, 384), (512, 384), (512, 384), (512, 384), (512, 384), (512, 384), (512, 384), (512, 384), (512, 384), (512, 384), (512, 384), (512, 384), (512, 384), (512, 384), (512, 384), (512, 384), (512, 384), (512, 384), (512, 384), (512, 384), (512, 384), (512, 384), (512, 384), (512, 384), (512, 384), (512, 384), (512, 384), (512, 384), (512, 384), (512, 384), (512, 384), (512, 384), (512, 384), (512, 384), (512, 384), (512, 384), (512, 384), (512, 384), (512, 384), (512, 384), (512, 384), (512, 384), (512, 384), (512, 384), (512, 384), (512, 384), (512, 384), (512, 384), (512, 384), (512, 384), (512, 384), (512, 384), (512, 384), (512, 384), (512, 384), (512, 384), (512, 384), (512, 384), (512, 384), (512, 384), (512, 384), (512, 384), (512, 384), (512, 384), (512, 384), (512, 384), (512, 384), (512, 384), (512, 384), (512, 384), (512, 384), (512, 384), (512, 384), (512, 384), (512, 384), (512, 384), (512, 384), (512, 384), (512, 384), (512, 384), (512, 384), (512, 384), (512, 384), (512, 384), (512, 384), (512, 384), (512, 384), (512, 384), (512, 384), (512, 384), (512, 384), (512, 384), (512, 384), (512, 384), (512, 384), (512, 384), (512, 384), (512, 384), (512, 384), (512, 384), (512, 384), (512, 384), (512, 384), (512, 384), (512, 384), (512, 384), (512, 384), (512, 384), (512, 384), (512, 384), (512, 384), (512, 384), (512, 384), (512, 384), (512, 384), (512, 384), (512, 384), (512, 384), (512, 384), (512, 384), (512, 384), (512, 384), (512, 384), (512, 384), (512, 384), (512, 384), (512, 384), (512, 384), (512, 384), (512, 384), (512, 384), (512, 384), (512, 384), (512, 384), (512, 384), (512, 384), (512, 384), (512, 384), (512, 384), (512, 384), (512, 384), (512, 384), (512, 384), (512, 384), (512, 384), (512, 384), (512, 384), (512, 384), (512, 384), (512, 384), (512, 384), (512, 384), (512, 384), (512, 384), (512, 384), (512, 384), (512, 384), (503, 372), (494, 360), (478, 346), (463, 334), (433, 308), (418, 296), (398, 278), (377, 261), (342, 233), (327, 219), (311, 205)]",221.68657460020725,"[4, 3, 6, 7, 1, 2, 5, 9, 8]","(0, 0.25)",DOT008B,DOT,B,Chinese,Mon Oct 15 17:17:30 2018,Mouse
2,3,2,0,40,2,6,0,-1379,1329,50,137,0,500,200,8000,"[(512, 384), (512, 384), (512, 384), (512, 384), (512, 384), (512, 384), (512, 384), (512, 384), (512, 384), (512, 384), (512, 384), (512, 384), (512, 384), (512, 384), (512, 384), (512, 384), (512, 384), (512, 384), (512, 384), (512, 384), (512, 384), (512, 384), (512, 384), (512, 384), (512, 384), (512, 384), (512, 384), (512, 384), (512, 384), (512, 384), (512, 384), (512, 384), (512, 384), (512, 384), (512, 384), (512, 384), (512, 384), (512, 384), (512, 384), (512, 384), (512, 384), (512, 384), (512, 384), (512, 384), (512, 384), (512, 384), (512, 384), (512, 384), (512, 384), (512, 384), (512, 384), (512, 384), (512, 384), (512, 384), (512, 384), (512, 384), (512, 384), (512, 384), (512, 384), (512, 384), (512, 384), (512, 384), (512, 384), (512, 384), (512, 384), (512, 384), (512, 384), (512, 384), (512, 384), (512, 384), (512, 384), (512, 384), (512, 384), (512, 384), (512, 384), (512, 384), (512, 384), (512, 384), (512, 384), (512, 384), (512, 384), (512, 384), (512, 384), (512, 384), (512, 384), (512, 384), (512, 384), (512, 384), (512, 384), (512, 384), (512, 384), (512, 384), (512, 384), (512, 384), (512, 384), (512, 384), (512, 384), (512, 384), (512, 384), (512, 384), (512, 384), (512, 384), (512, 384), (512, 384), (512, 384), (512, 384), (512, 384), (512, 384), (512, 384), (512, 384), (512, 384), (512, 384), (512, 384), (512, 384), (512, 384), (512, 384), (512, 384), (512, 384), (512, 384), (512, 384), (512, 384), (512, 384), (512, 384), (512, 384), (512, 384), (512, 384), (512, 384), (512, 384), (512, 384), (512, 384), (512, 384), (512, 384), (512, 387), (497, 436), (480, 481), (456, 527), (431, 576), (386, 660)]",114.5377284765778,"[4, 3, 6, 7, 1, 2, 5, 9, 8]","(0, 0.25)",DOT008B,DOT,B,Chinese,Mon Oct 15 17:17:30 2018,Mouse
2,3,2,0,41,5,5,1,329,219,110,138,0,500,200,8000,"[(512, 384), (512, 384), (512, 384), (512, 384), (512, 384), (512, 384), (512, 384), (512, 384), (512, 384), (512, 384), (512, 384), (512, 384), (512, 384), (512, 384), (512, 384), (512, 384), (512, 384), (512, 384), (512, 384), (512, 384), (512, 384), (512, 381), (512, 374), (512, 356), (512, 344), (512, 327), (512, 288), (512, 262), (510, 239), (509, 216), (503, 166), (500, 140), (498, 109)]",267.08563996448567,"[4, 3, 6, 7, 1, 2, 5, 9, 8]","(0, 0.25)",DOT008B,DOT,B,Chinese,Mon Oct 15 17:17:30 2018,Mouse
2,3,2,0,42,2,2,1,308,198,110,138,0,500,200,8000,"[(512, 384), (512, 384), (512, 384), (512, 384), (512, 384), (512, 384), (512, 384), (512, 384), (512, 384), (512, 384), (512, 384), (512, 384), (512, 384), (512, 384), (512, 384), (512, 384), (512, 384), (512, 384), (512, 384), (512, 382), (504, 377), (481, 360), (469, 352), (460, 344), (450, 335), (423, 316), (406, 303), (389, 292), (366, 276), (325, 241), (301, 219)]",218.02507048400386,"[4, 3, 6, 7, 1, 2, 5, 9, 8]","(0, 0.25)",DOT008B,DOT,B,Chinese,Mon Oct 15 17:17:30 2018,Mouse
2,3,2,0,43,5,5,1,410,270,140,137,0,500,200,8000,"[(512, 384), (512, 384), (512, 384), (512, 384), (512, 384), (512, 384), (512, 384), (512, 384), (512, 384), (512, 384), (512, 384), (512, 384), (512, 384), (512, 384), (512, 384), (512, 384), (512, 384), (512, 384), (512, 384), (512, 384), (512, 384), (512, 384), (512, 384), (512, 384), (512, 384), (512, 384), (512, 382), (512, 372), (512, 364), (512, 360), (512, 353), (511, 346), (509, 335), (505, 318), (500, 273), (497, 249), (494, 228), (493, 208), (490, 165), (490, 145), (488, 131)]",264.5810430023297,"[4, 3, 6, 7, 1, 2, 5, 9, 8]","(0, 0.25)",DOT008B,DOT,B,Chinese,Mon Oct 15 17:17:30 2018,Mouse
2,3,2,0,44,1,7,0,-1289,1210,79,136,0,500,200,8000,"[(512, 384), (512, 384), (512, 384), (512, 384), (512, 384), (512, 384), (512, 384), (512, 384), (512, 384), (512, 384), (512, 384), (512, 384), (512, 384), (512, 384), (512, 384), (512, 384), (512, 384), (512, 384), (512, 384), (512, 384), (512, 384), (512, 384), (512, 384), (512, 384), (512, 384), (512, 384), (512, 384), (512, 384), (512, 384), (512, 384), (512, 384), (512, 384), (512, 384), (512, 384), (512, 384), (512, 384), (512, 384), (512, 384), (512, 384), (512, 384), (512, 384), (512, 384), (512, 384), (512, 384), (512, 384), (512, 384), (512, 384), (512, 384), (512, 384), (512, 384), (512, 384), (512, 384), (512, 384), (512, 384), (512, 384), (512, 384), (512, 384), (512, 384), (512, 384), (512, 384), (512, 384), (512, 384), (512, 384), (512, 384), (512, 384), (512, 384), (512, 384), (512, 384), (512, 384), (512, 384), (512, 384), (512, 384), (512, 384), (512, 384), (512, 384), (512, 384), (512, 384), (512, 384), (512, 384), (512, 384), (512, 384), (512, 384), (512, 384), (512, 384), (512, 384), (512, 384), (512, 384), (512, 384), (512, 384), (512, 384), (512, 384), (512, 384), (512, 384), (512, 384), (512, 384), (512, 384), (512, 384), (512, 384), (512, 384), (512, 384), (512, 384), (512, 384), (512, 384), (512, 384), (512, 384), (512, 384), (512, 384), (512, 384), (512, 384), (512, 384), (512, 384), (512, 384), (512, 384), (512, 384), (512, 384), (512, 384), (512, 384), (512, 384), (512, 384), (512, 384), (511, 385), (508, 391), (490, 404), (476, 414), (459, 427), (431, 448), (370, 497), (337, 524), (302, 552)]",141.34019174590992,"[4, 3, 6, 7, 1, 2, 5, 9, 8]","(0, 0.25)",DOT008B,DOT,B,Chinese,Mon Oct 15 17:17:30 2018,Mouse
2,3,2,0,45,1,5,0,-378,278,100,137,0,500,200,8000,"[(512, 384), (512, 384), (512, 384), (512, 384), (512, 384), (512, 384), (512, 384), (512, 384), (512, 384), (512, 384), (512, 384), (512, 384), (512, 384), (512, 384), (512, 384), (512, 384), (512, 384), (512, 384), (512, 384), (512, 384), (512, 384), (512, 384), (512, 384), (512, 384), (512, 384), (512, 384), (512, 384), (512, 383), (513, 377), (513, 362), (514, 351), (514, 332), (514, 307), (510, 244), (505, 209), (500, 174), (493, 147), (484, 101)]",264.34954936614224,"[4, 3, 6, 7, 1, 2, 5, 9, 8]","(0, 0.25)",DOT008B,DOT,B,Chinese,Mon Oct 15 17:17:30 2018,Mouse
2,3,2,0,46,6,6,1,871,760,111,138,0,500,200,8000,"[(512, 384), (512, 384), (512, 384), (512, 384), (512, 384), (512, 384), (512, 384), (512, 384), (512, 384), (512, 384), (512, 384), (512, 384), (512, 384), (512, 384), (512, 384), (512, 384), (512, 384), (512, 384), (512, 384), (512, 384), (512, 384), (512, 384), (512, 384), (512, 384), (512, 384), (512, 384), (512, 384), (512, 384), (512, 384), (512, 384), (512, 384), (512, 384), (512, 384), (512, 384), (512, 384), (512, 384), (512, 384), (512, 384), (512, 384), (512, 384), (512, 384), (512, 384), (512, 384), (512, 384), (512, 384), (512, 384), (512, 384), (512, 384), (512, 384), (512, 384), (512, 384), (512, 384), (512, 384), (512, 384), (512, 384), (512, 384), (512, 384), (512, 384), (512, 384), (512, 384), (512, 384), (512, 384), (512, 384), (512, 384), (512, 384), (512, 384), (512, 384), (512, 384), (512, 384), (512, 384), (512, 384), (512, 384), (512, 384), (512, 384), (512, 384), (512, 390), (512, 399), (512, 414), (509, 456), (506, 477), (505, 492), (505, 513), (504, 536), (504, 581), (504, 606), (504, 631), (504, 651)]",91.71621401948639,"[4, 3, 6, 7, 1, 2, 5, 9, 8]","(0, 0.25)",DOT008B,DOT,B,Chinese,Mon Oct 15 17:17:30 2018,Mouse
2,3,2,0,47,5,5,1,442,282,160,138,0,500,200,8000,"[(512, 384), (512, 384), (512, 384), (512, 384), (512, 384), (512, 384), (512, 384), (512, 384), (512, 384), (512, 384), (512, 384), (512, 384), (512, 384), (512, 384), (512, 384), (512, 384), (512, 384), (512, 384), (512, 384), (512, 384), (512, 384), (512, 384), (512, 384), (512, 384), (512, 384), (512, 384), (512, 384), (512, 384), (512, 383), (512, 379), (512, 375), (509, 369), (507, 364), (507, 362), (506, 361), (505, 358), (503, 353), (502, 348), (500, 340), (497, 326), (487, 297), (483, 273), (476, 243), (469, 210), (451, 139)]",256.01879568854736,"[4, 3, 6, 7, 1, 2, 5, 9, 8]","(0, 0.25)",DOT008B,DOT,B,Chinese,Mon Oct 15 17:17:30 2018,Mouse
2,3,2,0,48,4,5,0,-359,269,90,137,0,500,200,8000,"[(512, 384), (512, 384), (512, 384), (512, 384), (512, 384), (512, 384), (512, 384), (512, 384), (512, 384), (512, 384), (512, 384), (512, 384), (512, 384), (512, 384), (512, 384), (512, 384), (512, 384), (512, 384), (512, 384), (512, 384), (512, 384), (512, 384), (512, 384), (512, 384), (512, 384), (512, 384), (512, 374), (512, 328), (512, 303), (512, 280), (512, 257), (512, 223), (512, 201), (512, 176), (510, 147), (507, 101)]",268.98781238601754,"[4, 3, 6, 7, 1, 2, 5, 9, 8]","(0, 0.25)",DOT008B,DOT,B,Chinese,Mon Oct 15 17:17:30 2018,Mouse
2,3,2,0,49,7,5,0,-549,479,70,138,0,500,200,8000,"[(512, 384), (512, 384), (512, 384), (512, 384), (512, 384), (512, 384), (512, 384), (512, 384), (512, 384), (512, 384), (512, 384), (512, 384), (512, 384), (512, 384), (512, 384), (512, 384), (512, 384), (512, 384), (512, 384), (512, 384), (512, 384), (512, 384), (512, 384), (512, 384), (512, 384), (512, 384), (512, 384), (512, 384), (512, 384), (512, 384), (512, 384), (512, 384), (512, 384), (512, 384), (512, 384), (512, 384), (512, 384), (512, 384), (512, 384), (512, 384), (512, 384), (512, 384), (512, 384), (512, 384), (512, 384), (512, 384), (512, 384), (512, 381), (509, 371), (505, 357), (494, 333), (470, 266), (457, 221), (445, 177), (438, 131)]",253.69632354015638,"[4, 3, 6, 7, 1, 2, 5, 9, 8]","(0, 0.25)",DOT008B,DOT,B,Chinese,Mon Oct 15 17:17:30 2018,Mouse
2,3,2,0,50,2,2,1,298,208,90,139,0,500,200,8000,"[(512, 384), (512, 384), (512, 384), (512, 384), (512, 384), (512, 384), (512, 384), (512, 384), (512, 384), (512, 384), (512, 384), (512, 384), (512, 384), (512, 384), (512, 384), (512, 384), (512, 384), (512, 384), (512, 384), (512, 384), (499, 376), (487, 368), (473, 355), (457, 337), (419, 300), (401, 279), (386, 263), (367, 244), (337, 215), (322, 201)]",223.92487028940297,"[4, 3, 6, 7, 1, 2, 5, 9, 8]","(0, 0.25)",DOT008B,DOT,B,Chinese,Mon Oct 15 17:17:30 2018,Mouse
2,3,2,0,51,5,5,1,329,69,260,139,0,500,200,8000,"[(512, 384), (512, 384), (512, 384), (512, 384), (512, 384), (512, 384), (512, 385), (517, 397), (520, 402), (523, 406), (523, 408), (523, 408), (523, 409), (523, 409), (523, 410), (523, 410), (523, 410), (523, 410), (523, 410), (523, 410), (523, 410), (523, 410), (523, 410), (522, 404), (519, 394), (508, 379), (499, 355), (476, 290), (466, 262), (458, 232), (450, 206), (442, 153), (437, 123)]",253.96766064606402,"[4, 3, 6, 7, 1, 2, 5, 9, 8]","(0, 0.25)",DOT008B,DOT,B,Chinese,Mon Oct 15 17:17:30 2018,Mouse
2,3,2,0,52,3,3,1,438,58,380,138,0,500,200,8000,"[(512, 384), (512, 384), (512, 384), (512, 384), (512, 384), (514, 382), (515, 381), (515, 381), (515, 381), (515, 380), (515, 380), (515, 380), (515, 380), (515, 380), (515, 380), (515, 380), (515, 380), (515, 380), (515, 380), (515, 380), (515, 380), (515, 380), (515, 380), (515, 380), (515, 380), (515, 380), (515, 380), (515, 380), (515, 380), (517, 380), (520, 384), (527, 391), (532, 400), (538, 410), (554, 437), (560, 455), (570, 471), (576, 483), (586, 507), (593, 520), (600, 534), (614, 553), (639, 592), (649, 609)]",58.66322934012852,"[4, 3, 6, 7, 1, 2, 5, 9, 8]","(0, 0.25)",DOT008B,DOT,B,Chinese,Mon Oct 15 17:17:30 2018,Mouse
2,3,2,0,53,9,9,1,909,709,200,137,0,500,200,8000,"[(512, 384), (512, 384), (512, 384), (512, 384), (512, 384), (512, 384), (512, 384), (512, 384), (512, 384), (512, 384), (512, 384), (512, 384), (512, 384), (512, 384), (512, 384), (512, 384), (512, 384), (512, 384), (512, 384), (512, 384), (512, 384), (512, 384), (512, 384), (512, 384), (512, 384), (512, 384), (512, 384), (512, 384), (512, 384), (512, 384), (512, 384), (512, 384), (512, 384), (512, 384), (512, 384), (512, 384), (512, 384), (512, 384), (512, 384), (512, 384), (512, 384), (512, 384), (512, 384), (512, 384), (512, 384), (512, 384), (512, 384), (512, 384), (512, 384), (512, 384), (512, 384), (512, 384), (512, 384), (512, 384), (512, 384), (512, 384), (512, 384), (512, 384), (512, 384), (512, 384), (512, 384), (512, 384), (512, 384), (512, 384), (512, 384), (512, 384), (512, 384), (512, 384), (512, 384), (512, 384), (512, 383), (512, 382), (513, 381), (514, 380), (514, 378), (515, 376), (517, 375), (518, 371), (519, 370), (520, 367), (522, 363), (527, 351), (533, 342), (537, 333), (543, 323), (558, 295), (568, 276), (586, 243), (598, 212), (623, 163), (631, 148)]",296.7589447838314,"[4, 3, 6, 7, 1, 2, 5, 9, 8]","(0, 0.25)",DOT008B,DOT,B,Chinese,Mon Oct 15 17:17:30 2018,Mouse
2,3,2,0,54,8,6,0,-789,669,120,136,0,500,200,8000,"[(512, 384), (512, 384), (512, 384), (512, 384), (512, 384), (512, 384), (512, 384), (512, 384), (512, 384), (512, 384), (512, 384), (512, 384), (512, 384), (512, 384), (512, 384), (512, 384), (512, 384), (512, 384), (512, 384), (512, 384), (512, 384), (512, 384), (512, 384), (512, 384), (512, 384), (512, 384), (512, 384), (512, 384), (512, 384), (512, 384), (512, 384), (512, 384), (512, 384), (512, 384), (512, 384), (512, 384), (512, 384), (512, 384), (512, 384), (512, 384), (512, 384), (512, 384), (512, 384), (512, 384), (512, 384), (512, 384), (512, 384), (512, 384), (512, 384), (512, 384), (512, 384), (512, 384), (512, 384), (512, 384), (512, 384), (512, 384), (512, 384), (512, 384), (512, 384), (512, 384), (512, 384), (512, 384), (512, 384), (512, 384), (512, 384), (512, 384), (510, 392), (508, 402), (505, 412), (501, 422), (488, 448), (481, 466), (478, 489), (476, 518), (476, 565), (476, 588), (477, 605), (477, 620), (477, 643)]",97.69605172201658,"[4, 3, 6, 7, 1, 2, 5, 9, 8]","(0, 0.25)",DOT008B,DOT,B,Chinese,Mon Oct 15 17:17:30 2018,Mouse
2,3,2,0,55,4,4,1,788,698,90,137,0,500,200,8000,"[(512, 384), (512, 384), (512, 384), (512, 384), (512, 384), (512, 384), (512, 384), (512, 384), (512, 384), (512, 384), (512, 384), (512, 384), (512, 384), (512, 384), (512, 384), (512, 384), (512, 384), (512, 384), (512, 384), (512, 384), (512, 384), (512, 384), (512, 384), (512, 384), (512, 384), (512, 384), (512, 384), (512, 384), (512, 384), (512, 384), (512, 384), (512, 384), (512, 384), (512, 384), (512, 384), (512, 384), (512, 384), (512, 384), (512, 384), (512, 384), (512, 384), (512, 384), (512, 384), (512, 384), (512, 384), (512, 384), (512, 384), (512, 384), (512, 384), (512, 384), (512, 384), (512, 384), (512, 384), (512, 384), (512, 384), (512, 384), (512, 384), (512, 384), (512, 384), (512, 384), (512, 384), (512, 384), (512, 384), (512, 384), (512, 384), (512, 384), (512, 384), (512, 384), (512, 384), (514, 384), (525, 387), (559, 401), (576, 407), (589, 411), (608, 419), (667, 442), (699, 456), (736, 470), (770, 483)]",20.992853373114194,"[4, 3, 6, 7, 1, 2, 5, 9, 8]","(0, 0.25)",DOT008B,DOT,B,Chinese,Mon Oct 15 17:17:30 2018,Mouse
2,3,2,0,56,1,5,0,-388,298,90,137,0,500,200,8000,"[(512, 384), (512, 384), (512, 384), (512, 384), (512, 384), (512, 384), (512, 384), (512, 384), (512, 384), (512, 384), (512, 384), (512, 384), (512, 384), (512, 384), (512, 384), (512, 384), (512, 384), (512, 384), (512, 384), (512, 384), (512, 384), (512, 384), (512, 384), (512, 384), (512, 384), (512, 384), (512, 384), (512, 384), (512, 384), (510, 377), (506, 361), (500, 344), (490, 310), (488, 296), (481, 276), (473, 250), (461, 193), (456, 158), (449, 126)]",256.27770286686643,"[4, 3, 6, 7, 1, 2, 5, 9, 8]","(0, 0.25)",DOT008B,DOT,B,Chinese,Mon Oct 15 17:17:30 2018,Mouse
2,3,2,0,57,3,3,1,377,267,110,138,0,500,200,8000,"[(512, 384), (512, 384), (512, 384), (512, 384), (512, 384), (512, 384), (512, 384), (512, 384), (512, 384), (512, 384), (512, 384), (512, 384), (512, 384), (512, 384), (512, 384), (512, 384), (512, 384), (512, 384), (512, 384), (512, 384), (512, 384), (512, 384), (512, 384), (512, 384), (512, 384), (512, 384), (514, 390), (521, 395), (525, 401), (530, 409), (541, 425), (549, 437), (557, 448), (569, 466), (607, 512), (633, 544), (661, 575), (690, 612)]",52.020779145201196,"[4, 3, 6, 7, 1, 2, 5, 9, 8]","(0, 0.25)",DOT008B,DOT,B,Chinese,Mon Oct 15 17:17:30 2018,Mouse
2,3,2,0,58,3,3,1,380,270,110,138,0,500,200,8000,"[(512, 384), (512, 384), (512, 384), (512, 384), (512, 384), (512, 384), (512, 384), (512, 384), (512, 384), (512, 384), (512, 384), (512, 384), (512, 384), (512, 384), (512, 384), (512, 384), (512, 384), (512, 384), (512, 384), (512, 384), (512, 384), (512, 384), (512, 384), (512, 384), (512, 384), (512, 384), (512, 385), (514, 392), (516, 398), (518, 406), (523, 417), (545, 456), (561, 479), (576, 504), (592, 526), (625, 567), (647, 588), (661, 606)]",56.13162668185514,"[4, 3, 6, 7, 1, 2, 5, 9, 8]","(0, 0.25)",DOT008B,DOT,B,Chinese,Mon Oct 15 17:17:30 2018,Mouse
2,3,2,0,59,2,2,1,330,190,140,137,0,500,200,8000,"[(512, 384), (512, 384), (512, 384), (512, 384), (512, 384), (512, 384), (512, 384), (512, 384), (512, 384), (512, 384), (512, 384), (512, 384), (512, 384), (512, 384), (512, 384), (512, 384), (512, 384), (512, 384), (512, 383), (512, 383), (512, 383), (511, 381), (510, 380), (509, 380), (509, 378), (499, 371), (490, 364), (478, 353), (461, 340), (398, 291), (364, 264), (328, 237), (294, 209)]",218.75583461029194,"[4, 3, 6, 7, 1, 2, 5, 9, 8]","(0, 0.25)",DOT008B,DOT,B,Chinese,Mon Oct 15 17:17:30 2018,Mouse
2,3,2,0,60,8,8,1,889,819,70,136,0,500,200,8000,"[(512, 384), (512, 384), (512, 384), (512, 384), (512, 384), (512, 384), (512, 384), (512, 384), (512, 384), (512, 384), (512, 384), (512, 384), (512, 384), (512, 384), (512, 384), (512, 384), (512, 384), (512, 384), (512, 384), (512, 384), (512, 384), (512, 384), (512, 384), (512, 384), (512, 384), (512, 384), (512, 384), (512, 384), (512, 384), (512, 384), (512, 384), (512, 384), (512, 384), (512, 384), (512, 384), (512, 384), (512, 384), (512, 384), (512, 384), (512, 384), (512, 384), (512, 384), (512, 384), (512, 384), (512, 384), (512, 384), (512, 384), (512, 384), (512, 384), (512, 384), (512, 384), (512, 384), (512, 384), (512, 384), (512, 384), (512, 384), (512, 384), (512, 384), (512, 384), (512, 384), (512, 384), (512, 384), (512, 384), (512, 384), (512, 384), (512, 384), (512, 384), (512, 384), (512, 384), (512, 384), (512, 384), (512, 384), (512, 384), (512, 384), (512, 384), (512, 384), (512, 384), (512, 384), (512, 384), (512, 384), (512, 384), (515, 383), (525, 375), (538, 367), (575, 350), (605, 343), (642, 340), (677, 335), (757, 325)]",346.460050198029,"[4, 3, 6, 7, 1, 2, 5, 9, 8]","(0, 0.25)",DOT008B,DOT,B,Chinese,Mon Oct 15 17:17:30 2018,Mouse
2,3,2,0,61,3,3,1,601,481,120,135,0,500,200,8000,"[(512, 384), (512, 384), (512, 384), (512, 384), (512, 384), (512, 384), (512, 384), (512, 384), (512, 384), (512, 384), (512, 384), (512, 384), (512, 384), (512, 384), (512, 384), (512, 384), (512, 384), (512, 384), (512, 384), (512, 384), (512, 384), (512, 384), (512, 384), (512, 384), (512, 384), (512, 384), (512, 384), (512, 384), (512, 384), (512, 384), (512, 384), (512, 384), (512, 384), (512, 384), (512, 384), (512, 384), (512, 384), (512, 384), (512, 384), (512, 384), (512, 384), (512, 384), (512, 384), (512, 384), (512, 384), (512, 384), (512, 384), (512, 384), (512, 390), (512, 405), (512, 422), (512, 438), (517, 463), (521, 478), (525, 491), (530, 506), (545, 554), (552, 584), (556, 605), (559, 619), (562, 635)]",78.73397232927371,"[4, 3, 6, 7, 1, 2, 5, 9, 8]","(0, 0.25)",DOT008B,DOT,B,Chinese,Mon Oct 15 17:17:30 2018,Mouse
2,3,2,0,62,7,5,0,-849,749,100,134,0,500,200,8000,"[(512, 384), (512, 384), (512, 384), (512, 384), (512, 384), (512, 384), (512, 384), (512, 384), (512, 384), (512, 384), (512, 384), (512, 384), (512, 384), (512, 384), (512, 384), (512, 384), (512, 384), (512, 384), (512, 384), (512, 384), (512, 384), (512, 384), (512, 384), (512, 384), (512, 384), (512, 384), (512, 384), (512, 384), (512, 384), (512, 384), (512, 384), (512, 384), (512, 384), (512, 384), (512, 384), (512, 384), (512, 384), (512, 384), (512, 384), (512, 384), (512, 384), (512, 384), (512, 384), (512, 384), (512, 384), (512, 384), (512, 384), (512, 384), (512, 384), (512, 384), (512, 384), (512, 384), (512, 384), (512, 384), (512, 384), (512, 384), (512, 384), (512, 384), (512, 384), (512, 384), (512, 384), (512, 384), (512, 384), (512, 384), (512, 384), (512, 384), (512, 384), (512, 384), (512, 384), (512, 384), (512, 384), (512, 384), (512, 384), (512, 384), (512, 381), (505, 361), (502, 350), (498, 337), (494, 325), (479, 294), (468, 273), (459, 250), (450, 229), (436, 179), (430, 144)]",251.13641244437588,"[4, 3, 6, 7, 1, 2, 5, 9, 8]","(0, 0.25)",DOT008B,DOT,B,Chinese,Mon Oct 15 17:17:30 2018,Mouse
2,3,2,0,63,7,7,1,977,847,130,135,0,500,200,8000,"[(512, 384), (512, 384), (512, 384), (512, 384), (512, 384), (512, 384), (512, 384), (512, 384), (512, 384), (512, 384), (512, 384), (512, 384), (512, 384), (512, 384), (512, 384), (512, 384), (512, 384), (512, 384), (512, 384), (512, 384), (512, 384), (512, 384), (512, 384), (512, 384), (512, 384), (512, 384), (512, 384), (512, 384), (512, 384), (512, 384), (512, 384), (512, 384), (512, 384), (512, 384), (512, 384), (512, 384), (512, 384), (512, 384), (512, 384), (512, 384), (512, 384), (512, 384), (512, 384), (512, 384), (512, 384), (512, 384), (512, 384), (512, 384), (512, 384), (512, 384), (512, 384), (512, 384), (512, 384), (512, 384), (512, 384), (512, 384), (512, 384), (512, 384), (512, 384), (512, 384), (512, 384), (512, 384), (512, 384), (512, 384), (512, 384), (512, 384), (512, 384), (512, 384), (512, 384), (512, 384), (512, 384), (512, 384), (512, 384), (512, 384), (512, 384), (512, 384), (512, 384), (512, 384), (512, 384), (512, 384), (512, 384), (512, 384), (512, 384), (512, 384), (510, 391), (503, 402), (491, 418), (467, 440), (455, 448), (443, 459), (416, 483), (402, 498), (391, 509), (380, 521), (369, 533), (350, 554), (338, 562), (325, 571)]",135.0,"[4, 3, 6, 7, 1, 2, 5, 9, 8]","(0, 0.25)",DOT008B,DOT,B,Chinese,Mon Oct 15 17:17:30 2018,Mouse
2,3,2,0,64,4,4,1,968,888,80,135,0,500,200,8000,"[(512, 384), (512, 384), (512, 384), (512, 384), (512, 384), (512, 384), (512, 384), (512, 384), (512, 384), (512, 384), (512, 384), (512, 384), (512, 384), (512, 384), (512, 384), (512, 384), (512, 384), (512, 384), (512, 384), (512, 384), (512, 384), (512, 384), (512, 384), (512, 384), (512, 384), (512, 384), (512, 384), (512, 384), (512, 384), (512, 384), (512, 384), (512, 384), (512, 384), (512, 384), (512, 384), (512, 384), (512, 384), (512, 384), (512, 384), (512, 384), (512, 384), (512, 384), (512, 384), (512, 384), (512, 384), (512, 384), (512, 384), (512, 384), (512, 384), (512, 384), (512, 384), (512, 384), (512, 384), (512, 384), (512, 384), (512, 384), (512, 384), (512, 384), (512, 384), (512, 384), (512, 384), (512, 384), (512, 384), (512, 384), (512, 384), (512, 384), (512, 384), (512, 384), (512, 384), (512, 384), (512, 384), (512, 384), (512, 384), (512, 384), (512, 384), (512, 384), (512, 384), (512, 384), (512, 384), (512, 384), (512, 384), (512, 384), (512, 384), (512, 384), (512, 384), (512, 384), (512, 384), (512, 384), (513, 384), (521, 388), (536, 397), (555, 407), (612, 431), (644, 443), (681, 458), (721, 475), (795, 505)]",23.149703341626957,"[4, 3, 6, 7, 1, 2, 5, 9, 8]","(0, 0.25)",DOT008B,DOT,B,Chinese,Mon Oct 15 17:17:30 2018,Mouse
2,3,2,0,65,9,7,0,-1051,951,100,134,0,500,200,8000,"[(512, 384), (512, 384), (512, 384), (512, 384), (512, 384), (512, 384), (512, 384), (512, 384), (512, 384), (512, 384), (512, 384), (512, 384), (512, 384), (512, 384), (512, 384), (512, 384), (512, 384), (512, 384), (512, 384), (512, 384), (512, 384), (512, 384), (512, 384), (512, 384), (512, 384), (512, 384), (512, 384), (512, 384), (512, 384), (512, 384), (512, 384), (512, 384), (512, 384), (512, 384), (512, 384), (512, 384), (512, 384), (512, 384), (512, 384), (512, 384), (512, 384), (512, 384), (512, 384), (512, 384), (512, 384), (512, 384), (512, 384), (512, 384), (512, 384), (512, 384), (512, 384), (512, 384), (512, 384), (512, 384), (512, 384), (512, 384), (512, 384), (512, 384), (512, 384), (512, 384), (512, 384), (512, 384), (512, 384), (512, 384), (512, 384), (512, 384), (512, 384), (512, 384), (512, 384), (512, 384), (512, 384), (512, 384), (512, 384), (512, 384), (512, 384), (512, 384), (512, 384), (512, 384), (512, 384), (512, 384), (512, 384), (512, 384), (512, 384), (512, 384), (512, 384), (512, 384), (512, 384), (512, 384), (512, 384), (512, 384), (512, 384), (512, 384), (512, 384), (512, 384), (512, 384), (511, 386), (501, 402), (493, 412), (483, 424), (468, 438), (429, 472), (410, 490), (388, 506), (364, 526), (341, 554), (328, 567)]",135.1561189038583,"[4, 3, 6, 7, 1, 2, 5, 9, 8]","(0, 0.25)",DOT008B,DOT,B,Chinese,Mon Oct 15 17:17:30 2018,Mouse
2,3,2,0,66,4,4,1,559,469,90,135,0,500,200,8000,"[(512, 384), (512, 384), (512, 384), (512, 384), (512, 384), (512, 384), (512, 384), (512, 384), (512, 384), (512, 384), (512, 384), (512, 384), (512, 384), (512, 384), (512, 384), (512, 384), (512, 384), (512, 384), (512, 384), (512, 384), (512, 384), (512, 384), (512, 384), (512, 384), (512, 384), (512, 384), (512, 384), (512, 384), (512, 384), (512, 384), (512, 384), (512, 384), (512, 384), (512, 384), (512, 384), (512, 384), (512, 384), (512, 384), (512, 384), (512, 384), (512, 384), (512, 384), (512, 384), (512, 384), (512, 384), (512, 384), (514, 384), (525, 392), (544, 406), (566, 418), (608, 446), (627, 456), (644, 467), (668, 482), (717, 510), (747, 525)]",30.96375653207352,"[4, 3, 6, 7, 1, 2, 5, 9, 8]","(0, 0.25)",DOT008B,DOT,B,Chinese,Mon Oct 15 17:17:30 2018,Mouse
2,3,2,0,67,4,5,0,-1308,348,960,135,0,500,200,8000,"[(512, 384), (512, 384), (512, 384), (512, 384), (512, 384), (512, 384), (512, 384), (512, 384), (512, 384), (512, 384), (512, 384), (512, 384), (512, 384), (512, 384), (512, 384), (512, 384), (512, 384), (512, 384), (512, 384), (512, 384), (512, 384), (512, 384), (512, 384), (512, 384), (512, 384), (512, 384), (512, 384), (512, 384), (512, 384), (512, 384), (512, 384), (512, 384), (512, 384), (512, 384), (512, 382), (512, 382), (512, 382), (512, 381), (512, 381), (512, 381), (512, 381), (512, 381), (512, 381), (512, 381), (512, 381), (512, 381), (512, 381), (512, 381), (512, 381), (512, 381), (512, 381), (512, 381), (512, 381), (512, 381), (512, 381), (512, 381), (512, 381), (512, 381), (512, 381), (512, 381), (512, 381), (512, 381), (512, 381), (512, 381), (512, 381), (512, 381), (512, 381), (512, 381), (512, 381), (512, 381), (512, 381), (512, 381), (512, 381), (512, 381), (512, 381), (512, 381), (512, 381), (512, 381), (512, 381), (512, 381), (512, 381), (512, 381), (512, 381), (512, 381), (512, 381), (512, 381), (512, 381), (512, 381), (512, 381), (512, 381), (512, 381), (512, 381), (512, 381), (512, 381), (512, 381), (512, 381), (512, 381), (512, 381), (512, 381), (512, 381), (512, 381), (512, 381), (512, 381), (512, 381), (512, 381), (512, 381), (512, 381), (512, 381), (512, 381), (512, 381), (512, 381), (512, 381), (512, 381), (512, 381), (512, 381), (512, 381), (512, 381), (512, 381), (512, 381), (512, 381), (512, 378), (512, 370), (512, 353), (512, 340), (510, 324), (510, 301), (504, 243), (499, 211), (494, 187), (486, 161), (471, 116)]",261.30203944748075,"[4, 3, 6, 7, 1, 2, 5, 9, 8]","(0, 0.25)",DOT008B,DOT,B,Chinese,Mon Oct 15 17:17:30 2018,Mouse
2,3,2,0,68,4,4,1,520,400,120,136,0,500,200,8000,"[(512, 384), (512, 384), (512, 384), (512, 384), (512, 384), (512, 384), (512, 384), (512, 384), (512, 384), (512, 384), (512, 384), (512, 384), (512, 384), (512, 384), (512, 384), (512, 384), (512, 384), (512, 384), (512, 384), (512, 384), (512, 384), (512, 384), (512, 384), (512, 384), (512, 384), (512, 384), (512, 384), (512, 384), (512, 384), (512, 384), (512, 384), (512, 384), (512, 384), (512, 384), (512, 384), (512, 384), (512, 384), (512, 384), (512, 384), (521, 387), (533, 395), (552, 405), (563, 411), (586, 420), (598, 423), (611, 426), (625, 431), (662, 444), (688, 453), (713, 461), (734, 470), (773, 487)]",21.535977595292543,"[4, 3, 6, 7, 1, 2, 5, 9, 8]","(0, 0.25)",DOT008B,DOT,B,Chinese,Mon Oct 15 17:17:30 2018,Mouse
2,3,2,0,69,9,8,0,-1037,887,150,136,0,500,200,8000,"[(512, 384), (512, 384), (512, 384), (512, 384), (512, 384), (512, 384), (512, 384), (512, 384), (512, 384), (512, 384), (512, 384), (512, 384), (512, 384), (512, 384), (512, 384), (512, 384), (512, 384), (512, 384), (512, 384), (512, 384), (512, 384), (512, 384), (512, 384), (512, 384), (512, 384), (512, 384), (512, 384), (512, 384), (512, 384), (512, 384), (512, 384), (512, 384), (512, 384), (512, 384), (512, 384), (512, 384), (512, 384), (512, 384), (512, 384), (512, 384), (512, 384), (512, 384), (512, 384), (512, 384), (512, 384), (512, 384), (512, 384), (512, 384), (512, 384), (512, 384), (512, 384), (512, 384), (512, 384), (512, 384), (512, 384), (512, 384), (512, 384), (512, 384), (512, 384), (512, 384), (512, 384), (512, 384), (512, 384), (512, 384), (512, 384), (512, 384), (512, 384), (512, 384), (512, 384), (512, 384), (512, 384), (512, 384), (512, 384), (512, 384), (512, 384), (512, 384), (512, 384), (512, 384), (512, 384), (512, 384), (512, 384), (512, 384), (512, 384), (512, 384), (512, 384), (512, 384), (512, 384), (512, 384), (512, 383), (513, 382), (514, 380), (519, 376), (524, 374), (531, 370), (540, 366), (561, 359), (575, 354), (590, 348), (608, 340), (653, 320), (674, 309), (695, 300), (718, 291), (758, 270)]",335.13630342824814,"[4, 3, 6, 7, 1, 2, 5, 9, 8]","(0, 0.25)",DOT008B,DOT,B,Chinese,Mon Oct 15 17:17:30 2018,Mouse
2,3,2,0,70,3,3,1,519,359,160,137,0,500,200,8000,"[(512, 384), (512, 384), (512, 384), (512, 384), (512, 384), (512, 384), (512, 384), (512, 384), (512, 384), (512, 384), (512, 384), (512, 384), (512, 384), (512, 384), (512, 384), (512, 384), (512, 384), (512, 384), (512, 384), (512, 384), (512, 384), (512, 384), (512, 384), (512, 384), (512, 384), (512, 384), (512, 384), (512, 384), (512, 384), (512, 384), (512, 384), (512, 384), (512, 384), (512, 384), (512, 384), (516, 388), (525, 395), (538, 403), (547, 410), (559, 423), (563, 429), (567, 435), (575, 445), (589, 467), (598, 480), (606, 494), (614, 505), (638, 535), (648, 547), (655, 560), (662, 570), (673, 587)]",51.58194465517801,"[4, 3, 6, 7, 1, 2, 5, 9, 8]","(0, 0.25)",DOT008B,DOT,B,Chinese,Mon Oct 15 17:17:30 2018,Mouse
2,3,2,0,71,6,5,0,-2170,2070,100,137,0,500,200,8000,"[(512, 384), (512, 384), (512, 384), (512, 384), (512, 384), (512, 384), (512, 384), (512, 384), (512, 384), (512, 384), (512, 384), (512, 384), (512, 384), (512, 384), (512, 384), (512, 384), (512, 384), (512, 384), (512, 384), (512, 384), (512, 384), (512, 384), (512, 384), (512, 384), (512, 384), (512, 384), (512, 384), (512, 384), (512, 384), (512, 384), (512, 384), (512, 384), (512, 384), (512, 384), (512, 384), (512, 384), (512, 384), (512, 384), (512, 384), (512, 384), (512, 384), (512, 384), (512, 384), (512, 384), (512, 384), (512, 384), (512, 384), (512, 384), (512, 384), (512, 384), (512, 384), (512, 384), (512, 384), (512, 384), (512, 384), (512, 384), (512, 384), (512, 384), (512, 384), (512, 384), (512, 384), (512, 384), (512, 384), (512, 384), (512, 384), (512, 384), (512, 384), (512, 384), (512, 384), (512, 384), (512, 384), (512, 384), (512, 384), (512, 384), (512, 384), (512, 384), (512, 384), (512, 384), (512, 384), (512, 384), (512, 384), (512, 384), (512, 384), (512, 384), (512, 384), (512, 384), (512, 384), (512, 384), (512, 384), (512, 384), (512, 384), (512, 384), (512, 384), (512, 384), (512, 384), (512, 384), (512, 384), (512, 384), (512, 384), (512, 384), (512, 384), (512, 384), (512, 384), (512, 384), (512, 384), (512, 384), (512, 384), (512, 384), (512, 384), (512, 384), (512, 384), (512, 384), (512, 384), (512, 384), (512, 384), (512, 384), (512, 384), (512, 384), (512, 384), (512, 384), (512, 384), (512, 384), (512, 384), (512, 384), (512, 384), (512, 384), (512, 384), (512, 384), (512, 384), (512, 384), (512, 384), (512, 384), (512, 384), (512, 384), (512, 384), (512, 384), (512, 384), (512, 384), (512, 384), (512, 384), (512, 384), (512, 384), (512, 384), (512, 384), (512, 384), (512, 384), (512, 384), (512, 384), (512, 384), (512, 384), (512, 384), (512, 384), (512, 384), (512, 384), (512, 384), (512, 384), (512, 384), (512, 384), (512, 384), (512, 384), (512, 384), (512, 384), (512, 384), (512, 384), (512, 384), (512, 384), (512, 384), (512, 384), (512, 384), (512, 384), (512, 384), (512, 384), (512, 384), (512, 384), (512, 384), (512, 384), (512, 384), (512, 384), (512, 384), (512, 384), (512, 384), (512, 384), (512, 384), (512, 384), (512, 384), (512, 384), (512, 384), (512, 384), (512, 384), (512, 384), (512, 384), (512, 384), (512, 384), (512, 384), (512, 384), (512, 384), (512, 384), (512, 384), (512, 384), (512, 384), (512, 384), (512, 384), (512, 384), (512, 384), (512, 384), (512, 384), (512, 379), (510, 358), (510, 344), (510, 328), (510, 300), (510, 241), (509, 216), (509, 190), (507, 165), (506, 136), (505, 121)]",268.47537722658814,"[4, 3, 6, 7, 1, 2, 5, 9, 8]","(0, 0.25)",DOT008B,DOT,B,Chinese,Mon Oct 15 17:17:30 2018,Mouse
2,3,2,0,72,6,6,1,628,278,350,138,0,500,200,8000,"[(512, 384), (512, 384), (512, 384), (512, 384), (512, 384), (512, 384), (512, 384), (512, 384), (512, 384), (512, 384), (512, 384), (512, 384), (512, 384), (512, 384), (512, 384), (512, 384), (512, 384), (512, 384), (512, 384), (512, 384), (512, 384), (512, 384), (512, 384), (512, 384), (512, 384), (512, 384), (512, 384), (512, 386), (508, 393), (505, 401), (498, 416), (494, 422), (493, 425), (492, 425), (492, 426), (492, 427), (491, 427), (491, 428), (491, 429), (491, 429), (491, 429), (491, 431), (491, 438), (490, 446), (490, 454), (490, 463), (490, 478), (490, 485), (489, 490), (489, 496), (487, 507), (487, 512), (485, 519), (483, 526), (478, 539), (476, 550), (473, 564), (471, 578), (465, 604), (462, 614), (460, 620), (458, 627), (455, 635)]",102.7943993907652,"[4, 3, 6, 7, 1, 2, 5, 9, 8]","(0, 0.25)",DOT008B,DOT,B,Chinese,Mon Oct 15 17:17:30 2018,Mouse
2,3,2,0,73,9,9,1,679,549,130,138,0,500,200,8000,"[(512, 384), (512, 384), (512, 384), (512, 384), (512, 384), (512, 384), (512, 384), (512, 384), (512, 384), (512, 384), (512, 384), (512, 384), (512, 384), (512, 384), (512, 384), (512, 384), (512, 384), (512, 384), (512, 384), (512, 384), (512, 384), (512, 384), (512, 384), (512, 384), (512, 384), (512, 384), (512, 384), (512, 384), (512, 384), (512, 384), (512, 384), (512, 384), (512, 384), (512, 384), (512, 384), (512, 384), (512, 384), (512, 384), (512, 384), (512, 384), (512, 384), (512, 384), (512, 384), (512, 384), (512, 384), (512, 384), (512, 384), (512, 384), (512, 384), (512, 384), (512, 384), (512, 384), (512, 384), (512, 384), (513, 381), (520, 370), (523, 366), (525, 363), (527, 358), (538, 342), (547, 328), (558, 312), (571, 294), (597, 257), (609, 238), (623, 216), (636, 194), (656, 163)]",303.0876104501263,"[4, 3, 6, 7, 1, 2, 5, 9, 8]","(0, 0.25)",DOT008B,DOT,B,Chinese,Mon Oct 15 17:17:30 2018,Mouse
2,3,2,0,74,2,2,1,416,276,140,137,0,500,200,8000,"[(512, 384), (512, 384), (512, 384), (512, 384), (512, 384), (512, 384), (512, 384), (512, 384), (512, 384), (512, 384), (512, 384), (512, 384), (512, 384), (512, 384), (512, 384), (512, 384), (512, 384), (512, 384), (512, 384), (512, 384), (512, 384), (512, 384), (512, 384), (512, 384), (512, 384), (512, 384), (512, 384), (509, 381), (501, 371), (495, 362), (487, 354), (467, 339), (455, 328), (439, 320), (427, 314), (406, 300), (394, 291), (384, 281), (370, 270), (348, 250), (335, 239), (317, 224)]",219.36931724236476,"[4, 3, 6, 7, 1, 2, 5, 9, 8]","(0, 0.25)",DOT008B,DOT,B,Chinese,Mon Oct 15 17:17:30 2018,Mouse
2,3,2,0,75,2,2,1,309,219,90,136,0,500,200,8000,"[(512, 384), (512, 384), (512, 384), (512, 384), (512, 384), (512, 384), (512, 384), (512, 384), (512, 384), (512, 384), (512, 384), (512, 384), (512, 384), (512, 384), (512, 384), (512, 384), (512, 384), (512, 384), (512, 384), (512, 384), (512, 384), (509, 382), (501, 377), (486, 367), (466, 351), (425, 316), (404, 297), (383, 279), (363, 264), (318, 234), (301, 221)]",217.68651137196832,"[4, 3, 6, 7, 1, 2, 5, 9, 8]","(0, 0.25)",DOT008B,DOT,B,Chinese,Mon Oct 15 17:17:30 2018,Mouse
2,3,2,0,76,1,1,1,512,412,100,135,0,500,200,8000,"[(512, 384), (512, 384), (512, 384), (512, 384), (512, 384), (512, 384), (512, 384), (512, 384), (512, 384), (512, 384), (512, 384), (512, 384), (512, 384), (512, 384), (512, 384), (512, 384), (512, 384), (512, 384), (512, 384), (512, 384), (512, 384), (512, 384), (512, 384), (512, 384), (512, 384), (512, 384), (512, 384), (512, 384), (512, 384), (512, 384), (512, 384), (512, 384), (512, 384), (512, 384), (512, 384), (512, 384), (512, 384), (512, 384), (512, 384), (512, 384), (512, 384), (508, 384), (500, 381), (478, 373), (463, 369), (440, 363), (416, 357), (351, 336), (326, 330), (299, 325), (279, 324), (253, 322)]",193.46226123581553,"[4, 3, 6, 7, 1, 2, 5, 9, 8]","(0, 0.25)",DOT008B,DOT,B,Chinese,Mon Oct 15 17:17:30 2018,Mouse
2,3,2,0,77,1,1,1,699,609,90,134,0,500,200,8000,"[(512, 384), (512, 384), (512, 384), (512, 384), (512, 384), (512, 384), (512, 384), (512, 384), (512, 384), (512, 384), (512, 384), (512, 384), (512, 384), (512, 384), (512, 384), (512, 384), (512, 384), (512, 384), (512, 384), (512, 384), (512, 384), (512, 384), (512, 384), (512, 384), (512, 384), (512, 384), (512, 384), (512, 384), (512, 384), (512, 384), (512, 384), (512, 384), (512, 384), (512, 384), (512, 384), (512, 384), (512, 384), (512, 384), (512, 384), (512, 384), (512, 384), (512, 384), (512, 384), (512, 384), (512, 384), (512, 384), (512, 384), (512, 384), (512, 384), (512, 384), (512, 384), (512, 384), (512, 384), (512, 384), (512, 384), (512, 384), (512, 384), (512, 384), (512, 384), (512, 384), (508, 384), (496, 384), (484, 384), (454, 384), (437, 384), (412, 386), (384, 386), (315, 391), (281, 393), (248, 393)]",178.0474909506004,"[4, 3, 6, 7, 1, 2, 5, 9, 8]","(0, 0.25)",DOT008B,DOT,B,Chinese,Mon Oct 15 17:17:30 2018,Mouse
2,3,2,0,78,7,5,0,-348,218,130,133,0,500,200,8000,"[(512, 384), (512, 384), (512, 384), (512, 384), (512, 384), (512, 384), (512, 384), (512, 384), (512, 384), (512, 384), (512, 384), (512, 384), (512, 384), (512, 384), (512, 384), (512, 384), (512, 384), (512, 384), (512, 384), (512, 384), (512, 384), (512, 372), (512, 362), (512, 353), (512, 343), (511, 319), (508, 307), (506, 296), (502, 284), (497, 260), (495, 248), (491, 226), (484, 199), (473, 142), (467, 120)]",260.32664456759653,"[4, 3, 6, 7, 1, 2, 5, 9, 8]","(0, 0.25)",DOT008B,DOT,B,Chinese,Mon Oct 15 17:17:30 2018,Mouse
2,3,2,0,79,6,7,0,-449,349,100,134,0,500,200,8000,"[(512, 384), (512, 384), (512, 384), (512, 384), (512, 384), (512, 384), (512, 384), (512, 384), (512, 384), (512, 384), (512, 384), (512, 384), (512, 384), (512, 384), (512, 384), (512, 384), (512, 384), (512, 384), (512, 384), (512, 384), (512, 384), (512, 384), (512, 384), (512, 384), (512, 384), (512, 384), (512, 384), (512, 384), (512, 384), (512, 384), (512, 384), (512, 384), (512, 384), (512, 384), (508, 390), (498, 398), (487, 406), (475, 414), (448, 434), (427, 456), (404, 474), (381, 492), (345, 531), (329, 547), (316, 560)]",138.0774553994244,"[4, 3, 6, 7, 1, 2, 5, 9, 8]","(0, 0.25)",DOT008B,DOT,B,Chinese,Mon Oct 15 17:17:30 2018,Mouse
2,3,2,0,80,7,7,1,400,310,90,135,0,500,200,8000,"[(512, 384), (512, 384), (512, 384), (512, 384), (512, 384), (512, 384), (512, 384), (512, 384), (512, 384), (512, 384), (512, 384), (512, 384), (512, 384), (512, 384), (512, 384), (512, 384), (512, 384), (512, 384), (512, 384), (512, 384), (512, 384), (512, 384), (512, 384), (512, 384), (512, 384), (512, 384), (512, 384), (512, 384), (512, 384), (512, 384), (511, 388), (506, 396), (500, 404), (482, 424), (470, 437), (450, 454), (427, 472), (373, 514), (342, 532), (312, 550)]",140.3073268493312,"[4, 3, 6, 7, 1, 2, 5, 9, 8]","(0, 0.25)",DOT008B,DOT,B,Chinese,Mon Oct 15 17:17:30 2018,Mouse
2,3,2,0,81,9,9,1,797,677,120,135,0,500,200,8000,"[(512, 384), (512, 384), (512, 384), (512, 384), (512, 384), (512, 384), (512, 384), (512, 384), (512, 384), (512, 384), (512, 384), (512, 384), (512, 384), (512, 384), (512, 384), (512, 384), (512, 384), (512, 384), (512, 384), (512, 384), (512, 384), (512, 384), (512, 384), (512, 384), (512, 384), (512, 384), (512, 384), (512, 384), (512, 384), (512, 384), (512, 384), (512, 384), (512, 384), (512, 384), (512, 384), (512, 384), (512, 384), (512, 384), (512, 384), (512, 384), (512, 384), (512, 384), (512, 384), (512, 384), (512, 384), (512, 384), (512, 384), (512, 384), (512, 384), (512, 384), (512, 384), (512, 384), (512, 384), (512, 384), (512, 384), (512, 384), (512, 384), (512, 384), (512, 384), (512, 384), (512, 384), (512, 384), (512, 384), (512, 384), (512, 384), (512, 384), (512, 384), (515, 381), (523, 371), (544, 351), (552, 340), (564, 326), (574, 311), (597, 286), (613, 270), (625, 255), (636, 238), (664, 203), (672, 192), (680, 178)]",309.198413112353,"[4, 3, 6, 7, 1, 2, 5, 9, 8]","(0, 0.25)",DOT008B,DOT,B,Chinese,Mon Oct 15 17:17:30 2018,Mouse
2,3,2,0,82,8,6,0,-1182,271,911,134,0,500,200,8000,"[(512, 384), (512, 384), (512, 384), (512, 384), (512, 384), (512, 384), (512, 384), (512, 384), (512, 384), (512, 384), (512, 384), (512, 384), (512, 384), (512, 384), (512, 384), (512, 384), (512, 384), (512, 384), (512, 384), (512, 384), (512, 384), (512, 384), (512, 384), (512, 384), (512, 384), (512, 384), (512, 384), (513, 384), (514, 383), (515, 382), (515, 382), (515, 382), (515, 382), (515, 382), (515, 382), (515, 382), (515, 382), (515, 382), (515, 383), (514, 384), (514, 385), (514, 385), (514, 386), (514, 386), (514, 386), (514, 386), (514, 386), (514, 386), (514, 386), (514, 386), (514, 386), (514, 386), (514, 386), (514, 386), (514, 386), (514, 386), (514, 386), (514, 386), (514, 386), (514, 386), (514, 386), (514, 386), (514, 386), (514, 386), (514, 386), (514, 386), (514, 386), (514, 386), (514, 386), (514, 386), (514, 386), (514, 386), (514, 386), (514, 386), (514, 386), (514, 386), (514, 386), (514, 386), (514, 386), (514, 386), (514, 386), (514, 386), (514, 386), (514, 386), (514, 386), (514, 386), (514, 386), (514, 386), (514, 386), (514, 386), (514, 386), (514, 386), (513, 388), (512, 393), (509, 411), (507, 421), (506, 429), (505, 439), (501, 460), (498, 471), (496, 479), (494, 488), (486, 508), (480, 519), (477, 529), (474, 543), (462, 566), (459, 574), (455, 582), (454, 585), (452, 588), (452, 590), (451, 591), (450, 593), (449, 598), (448, 603), (448, 608), (448, 615), (453, 630)]",103.48692396667195,"[4, 3, 6, 7, 1, 2, 5, 9, 8]","(0, 0.25)",DOT008B,DOT,B,Chinese,Mon Oct 15 17:17:30 2018,Mouse
2,3,2,0,83,7,5,0,-937,767,170,135,0,500,200,8000,"[(512, 384), (512, 384), (512, 384), (512, 384), (512, 384), (512, 384), (512, 384), (512, 384), (512, 384), (512, 384), (512, 384), (512, 384), (512, 384), (512, 384), (512, 384), (512, 384), (512, 384), (512, 384), (512, 384), (512, 384), (512, 384), (512, 384), (512, 384), (512, 384), (512, 384), (512, 384), (512, 384), (512, 384), (512, 384), (512, 384), (512, 384), (512, 384), (512, 384), (512, 384), (512, 384), (512, 384), (512, 384), (512, 384), (512, 384), (512, 384), (512, 384), (512, 384), (512, 384), (512, 384), (512, 384), (512, 384), (512, 384), (512, 384), (512, 384), (512, 384), (512, 384), (512, 384), (512, 384), (512, 384), (512, 384), (512, 384), (512, 384), (512, 384), (512, 384), (512, 384), (512, 384), (512, 384), (512, 384), (512, 384), (512, 384), (512, 384), (512, 384), (512, 384), (512, 384), (512, 384), (512, 384), (512, 384), (512, 384), (512, 384), (512, 384), (512, 384), (512, 383), (511, 379), (511, 372), (511, 359), (511, 352), (511, 344), (510, 335), (510, 309), (508, 291), (503, 270), (497, 245), (479, 199), (473, 181), (469, 169), (466, 159), (463, 145), (462, 140), (461, 138)]",258.2875276889125,"[4, 3, 6, 7, 1, 2, 5, 9, 8]","(0, 0.25)",DOT008B,DOT,B,Chinese,Mon Oct 15 17:17:30 2018,Mouse
2,3,2,0,84,8,9,0,-1417,617,800,136,0,500,200,8000,"[(512, 384), (512, 384), (512, 384), (512, 384), (512, 384), (512, 384), (512, 384), (512, 384), (512, 384), (512, 384), (512, 384), (512, 384), (512, 384), (512, 384), (512, 384), (512, 384), (512, 384), (512, 384), (512, 384), (512, 384), (512, 384), (512, 384), (512, 384), (512, 384), (512, 384), (512, 384), (512, 384), (512, 384), (512, 384), (512, 384), (512, 384), (512, 384), (512, 384), (512, 384), (512, 384), (512, 384), (512, 384), (512, 384), (512, 384), (512, 384), (512, 384), (512, 384), (512, 384), (512, 384), (512, 384), (512, 384), (512, 384), (512, 384), (512, 384), (512, 384), (512, 384), (512, 384), (512, 384), (512, 384), (512, 384), (512, 384), (512, 384), (512, 384), (512, 384), (512, 384), (512, 384), (513, 383), (515, 380), (517, 377), (518, 376), (520, 373), (521, 373), (521, 371), (521, 371), (522, 371), (522, 370), (522, 370), (522, 370), (522, 370), (522, 370), (522, 370), (522, 370), (522, 370), (522, 370), (522, 370), (522, 370), (522, 370), (522, 370), (522, 370), (522, 370), (522, 370), (522, 370), (522, 370), (522, 370), (522, 370), (522, 370), (522, 370), (522, 370), (522, 370), (522, 370), (523, 370), (523, 370), (523, 370), (523, 370), (524, 368), (526, 367), (533, 361), (538, 358), (541, 354), (543, 352), (544, 351), (544, 351), (544, 351), (544, 351), (544, 351), (544, 351), (544, 351), (544, 351), (544, 351), (544, 351), (544, 351), (544, 351), (544, 351), (544, 351), (544, 351), (544, 351), (544, 351), (544, 351), (544, 351), (544, 351), (544, 351), (544, 351), (544, 351), (544, 351), (544, 351), (544, 351), (544, 349), (548, 344), (556, 329), (562, 320), (567, 314), (575, 304), (594, 280), (609, 262), (629, 239), (646, 221), (666, 187)]",308.0156604840191,"[4, 3, 6, 7, 1, 2, 5, 9, 8]","(0, 0.25)",DOT008B,DOT,B,Chinese,Mon Oct 15 17:17:30 2018,Mouse
2,3,2,0,85,8,8,1,360,280,80,137,0,500,200,8000,"[(512, 384), (512, 384), (512, 384), (512, 384), (512, 384), (512, 384), (512, 384), (512, 384), (512, 384), (512, 384), (512, 384), (512, 384), (512, 384), (512, 384), (512, 384), (512, 384), (512, 384), (512, 384), (512, 384), (512, 384), (512, 384), (512, 384), (512, 384), (512, 384), (512, 384), (512, 384), (512, 384), (526, 384), (539, 383), (559, 383), (584, 383), (645, 378), (682, 373), (710, 366), (740, 360), (776, 354)]",353.5169263071028,"[4, 3, 6, 7, 1, 2, 5, 9, 8]","(0, 0.25)",DOT008B,DOT,B,Chinese,Mon Oct 15 17:17:30 2018,Mouse
2,3,2,0,86,8,8,1,348,198,150,137,0,500,200,8000,"[(512, 384), (512, 384), (512, 384), (512, 384), (512, 384), (512, 384), (512, 384), (512, 384), (512, 384), (512, 384), (512, 384), (512, 384), (512, 384), (512, 384), (512, 384), (512, 384), (512, 384), (512, 384), (512, 384), (520, 381), (526, 378), (535, 374), (545, 372), (564, 366), (577, 363), (589, 359), (604, 358), (634, 357), (645, 355), (661, 350), (679, 349), (718, 345), (739, 340), (753, 337), (764, 332)]",348.340707346477,"[4, 3, 6, 7, 1, 2, 5, 9, 8]","(0, 0.25)",DOT008B,DOT,B,Chinese,Mon Oct 15 17:17:30 2018,Mouse
2,3,2,0,87,8,8,1,320,220,100,136,0,500,200,8000,"[(512, 384), (512, 384), (512, 384), (512, 384), (512, 384), (512, 384), (512, 384), (512, 384), (512, 384), (512, 384), (512, 384), (512, 384), (512, 384), (512, 384), (512, 384), (512, 384), (512, 384), (512, 384), (512, 384), (512, 384), (512, 384), (516, 383), (526, 379), (536, 373), (571, 351), (589, 342), (608, 332), (628, 323), (663, 304), (682, 295), (708, 284), (737, 272)]",333.5368985009376,"[4, 3, 6, 7, 1, 2, 5, 9, 8]","(0, 0.25)",DOT008B,DOT,B,Chinese,Mon Oct 15 17:17:30 2018,Mouse
2,3,2,0,88,3,8,0,-549,369,180,135,0,500,200,8000,"[(512, 384), (512, 384), (512, 384), (512, 384), (512, 384), (512, 384), (512, 384), (512, 384), (512, 384), (512, 384), (512, 384), (512, 384), (512, 384), (512, 384), (512, 384), (512, 384), (512, 384), (512, 384), (512, 384), (512, 384), (512, 384), (512, 384), (512, 384), (512, 384), (512, 384), (512, 384), (512, 384), (512, 384), (512, 384), (512, 384), (512, 384), (512, 384), (512, 384), (512, 384), (512, 384), (512, 384), (513, 384), (518, 383), (524, 381), (533, 378), (554, 373), (565, 371), (574, 367), (583, 363), (604, 358), (617, 354), (636, 352), (655, 348), (685, 344), (696, 343), (707, 343), (719, 343), (742, 343), (751, 343), (761, 343)]",350.6496563715762,"[4, 3, 6, 7, 1, 2, 5, 9, 8]","(0, 0.25)",DOT008B,DOT,B,Chinese,Mon Oct 15 17:17:30 2018,Mouse
2,3,2,0,89,6,8,0,-460,300,160,136,0,500,200,8000,"[(512, 384), (512, 384), (512, 384), (512, 384), (512, 384), (512, 384), (512, 384), (512, 384), (512, 384), (512, 384), (512, 384), (512, 384), (512, 384), (512, 384), (512, 384), (512, 384), (512, 384), (512, 384), (512, 384), (512, 384), (512, 384), (512, 384), (512, 384), (512, 384), (512, 384), (512, 384), (512, 384), (512, 384), (512, 384), (514, 382), (516, 380), (520, 378), (523, 373), (536, 364), (542, 362), (550, 361), (560, 361), (585, 361), (600, 359), (614, 357), (630, 354), (674, 343), (699, 335), (727, 327), (751, 323), (796, 317)]",346.7257502342079,"[4, 3, 6, 7, 1, 2, 5, 9, 8]","(0, 0.25)",DOT008B,DOT,B,Chinese,Mon Oct 15 17:17:30 2018,Mouse
2,3,2,0,90,8,8,1,438,318,120,137,0,500,200,8000,"[(512, 384), (512, 384), (512, 384), (512, 384), (512, 384), (512, 384), (512, 384), (512, 384), (512, 384), (512, 384), (512, 384), (512, 384), (512, 384), (512, 384), (512, 384), (512, 384), (512, 384), (512, 384), (512, 384), (512, 384), (512, 384), (512, 384), (512, 384), (512, 384), (512, 384), (512, 384), (512, 384), (512, 384), (512, 384), (512, 384), (512, 384), (513, 384), (520, 383), (531, 380), (543, 376), (577, 370), (601, 366), (628, 362), (661, 354), (712, 338), (729, 333), (742, 329), (752, 326), (772, 319)]",345.96375653207355,"[4, 3, 6, 7, 1, 2, 5, 9, 8]","(0, 0.25)",DOT008B,DOT,B,Chinese,Mon Oct 15 17:17:30 2018,Mouse
2,3,2,0,91,6,7,0,-568,18,550,137,0,500,200,8000,"[(513, 384), (513, 385), (513, 385), (513, 385), (513, 386), (513, 386), (514, 386), (514, 386), (514, 386), (514, 386), (514, 386), (514, 386), (514, 386), (514, 386), (515, 386), (516, 387), (517, 388), (517, 388), (517, 388), (518, 388), (518, 388), (519, 389), (521, 390), (524, 391), (525, 392), (525, 392), (525, 392), (526, 393), (526, 393), (526, 393), (526, 393), (526, 393), (526, 393), (526, 393), (526, 393), (526, 393), (526, 393), (526, 393), (526, 393), (526, 393), (526, 393), (526, 393), (526, 393), (526, 393), (526, 394), (526, 395), (526, 395), (520, 399), (517, 402), (511, 406), (502, 412), (473, 435), (452, 452), (424, 473), (391, 492), (324, 538), (295, 554)]",141.92449105416387,"[4, 3, 6, 7, 1, 2, 5, 9, 8]","(0, 0.25)",DOT008B,DOT,B,Chinese,Mon Oct 15 17:17:30 2018,Mouse
2,3,2,0,92,7,6,0,-498,398,100,138,0,500,200,8000,"[(512, 384), (512, 384), (512, 384), (512, 384), (512, 384), (512, 384), (512, 384), (512, 384), (512, 384), (512, 384), (512, 384), (512, 384), (512, 384), (512, 384), (512, 384), (512, 384), (512, 384), (512, 384), (512, 384), (512, 384), (512, 384), (512, 384), (512, 384), (512, 384), (512, 384), (512, 384), (512, 384), (512, 384), (512, 384), (512, 384), (512, 384), (512, 384), (512, 384), (512, 384), (512, 384), (512, 384), (512, 384), (512, 384), (512, 384), (512, 385), (512, 387), (512, 391), (513, 412), (513, 427), (513, 449), (515, 478), (515, 545), (515, 578), (515, 609), (515, 634)]",89.3124836453609,"[4, 3, 6, 7, 1, 2, 5, 9, 8]","(0, 0.25)",DOT008B,DOT,B,Chinese,Mon Oct 15 17:17:30 2018,Mouse
2,3,2,0,93,5,5,1,486,386,100,139,0,500,200,8000,"[(512, 384), (512, 384), (512, 384), (512, 384), (512, 384), (512, 384), (512, 384), (512, 384), (512, 384), (512, 384), (512, 384), (512, 384), (512, 384), (512, 384), (512, 384), (512, 384), (512, 384), (512, 384), (512, 384), (512, 384), (512, 384), (512, 384), (512, 384), (512, 384), (512, 384), (512, 384), (512, 384), (512, 384), (512, 384), (512, 384), (512, 384), (512, 384), (512, 384), (512, 384), (512, 384), (512, 384), (512, 384), (512, 384), (512, 380), (510, 366), (505, 337), (501, 321), (498, 294), (496, 274), (495, 218), (495, 193), (495, 167), (495, 145), (495, 114)]",266.3972437778956,"[4, 3, 6, 7, 1, 2, 5, 9, 8]","(0, 0.25)",DOT008B,DOT,B,Chinese,Mon Oct 15 17:17:30 2018,Mouse
2,3,2,0,94,5,5,1,500,420,80,139,0,500,200,8000,"[(512, 384), (512, 384), (512, 384), (512, 384), (512, 384), (512, 384), (512, 384), (512, 384), (512, 384), (512, 384), (512, 384), (512, 384), (512, 384), (512, 384), (512, 384), (512, 384), (512, 384), (512, 384), (512, 384), (512, 384), (512, 384), (512, 384), (512, 384), (512, 384), (512, 384), (512, 384), (512, 384), (512, 384), (512, 384), (512, 384), (512, 384), (512, 384), (512, 384), (512, 384), (512, 384), (512, 384), (512, 384), (512, 384), (512, 384), (512, 384), (512, 384), (515, 374), (516, 351), (522, 295), (524, 272), (525, 247), (525, 222), (527, 162), (526, 137), (524, 116)]",272.563770211465,"[4, 3, 6, 7, 1, 2, 5, 9, 8]","(0, 0.25)",DOT008B,DOT,B,Chinese,Mon Oct 15 17:17:30 2018,Mouse
2,3,2,0,95,4,4,1,679,549,130,138,0,500,200,8000,"[(512, 384), (512, 384), (512, 384), (512, 384), (512, 384), (512, 384), (512, 384), (512, 384), (512, 384), (512, 384), (512, 384), (512, 384), (512, 384), (512, 384), (512, 384), (512, 384), (512, 384), (512, 384), (512, 384), (512, 384), (512, 384), (512, 384), (512, 384), (512, 384), (512, 384), (512, 384), (512, 384), (512, 384), (512, 384), (512, 384), (512, 384), (512, 384), (512, 384), (512, 384), (512, 384), (512, 384), (512, 384), (512, 384), (512, 384), (512, 384), (512, 384), (512, 384), (512, 384), (512, 384), (512, 384), (512, 384), (512, 384), (512, 384), (512, 384), (512, 384), (512, 384), (512, 384), (512, 384), (512, 384), (514, 385), (521, 387), (531, 391), (554, 399), (565, 403), (576, 405), (587, 408), (607, 416), (618, 422), (628, 426), (643, 432), (693, 457), (722, 468), (754, 483)]",22.249023657212366,"[4, 3, 6, 7, 1, 2, 5, 9, 8]","(0, 0.25)",DOT008B,DOT,B,Chinese,Mon Oct 15 17:17:30 2018,Mouse
2,3,2,0,96,6,6,1,1749,1659,90,137,0,500,200,8000,"[(512, 384), (512, 384), (512, 384), (512, 384), (512, 384), (512, 384), (512, 384), (512, 384), (512, 384), (512, 384), (512, 384), (512, 384), (512, 384), (512, 384), (512, 384), (512, 384), (512, 384), (512, 384), (512, 384), (512, 384), (512, 384), (512, 384), (512, 384), (512, 384), (512, 384), (512, 384), (512, 384), (512, 384), (512, 384), (512, 384), (512, 384), (512, 384), (512, 384), (512, 384), (512, 384), (512, 384), (512, 384), (512, 384), (512, 384), (512, 384), (512, 384), (512, 384), (512, 384), (512, 384), (512, 384), (512, 384), (512, 384), (512, 384), (512, 384), (512, 384), (512, 384), (512, 384), (512, 384), (512, 384), (512, 384), (512, 384), (512, 384), (512, 384), (512, 384), (512, 384), (512, 384), (512, 384), (512, 384), (512, 384), (512, 384), (512, 384), (512, 384), (512, 384), (512, 384), (512, 384), (512, 384), (512, 384), (512, 384), (512, 384), (512, 384), (512, 384), (512, 384), (512, 384), (512, 384), (512, 384), (512, 384), (512, 384), (512, 384), (512, 384), (512, 384), (512, 384), (512, 384), (512, 384), (512, 384), (512, 384), (512, 384), (512, 384), (512, 384), (512, 384), (512, 384), (512, 384), (512, 384), (512, 384), (512, 384), (512, 384), (512, 384), (512, 384), (512, 384), (512, 384), (512, 384), (512, 384), (512, 384), (512, 384), (512, 384), (512, 384), (512, 384), (512, 384), (512, 384), (512, 384), (512, 384), (512, 384), (512, 384), (512, 384), (512, 384), (512, 384), (512, 384), (512, 384), (512, 384), (512, 384), (512, 384), (512, 384), (512, 384), (512, 384), (512, 384), (512, 384), (512, 384), (512, 384), (512, 384), (512, 384), (512, 384), (512, 384), (512, 384), (512, 384), (512, 384), (512, 384), (512, 384), (512, 384), (512, 384), (512, 384), (512, 384), (512, 384), (512, 384), (512, 384), (512, 384), (512, 384), (512, 384), (512, 384), (512, 384), (512, 384), (512, 384), (512, 384), (512, 384), (512, 384), (512, 384), (512, 384), (512, 384), (512, 384), (512, 384), (512, 384), (512, 384), (509, 392), (504, 406), (495, 427), (484, 450), (461, 505), (447, 532), (439, 550), (430, 569), (416, 606), (411, 623)]",112.90863459063706,"[4, 3, 6, 7, 1, 2, 5, 9, 8]","(0, 0.25)",DOT008B,DOT,B,Chinese,Mon Oct 15 17:17:30 2018,Mouse
2,3,2,0,97,1,5,0,-460,350,110,136,0,500,200,8000,"[(512, 384), (512, 384), (512, 384), (512, 384), (512, 384), (512, 384), (512, 384), (512, 384), (512, 384), (512, 384), (512, 384), (512, 384), (512, 384), (512, 384), (512, 384), (512, 384), (512, 384), (512, 384), (512, 384), (512, 384), (512, 384), (512, 384), (512, 384), (512, 384), (512, 384), (512, 384), (512, 384), (512, 384), (512, 384), (512, 384), (512, 384), (512, 384), (512, 384), (512, 384), (512, 379), (514, 369), (514, 359), (514, 348), (510, 320), (506, 298), (501, 271), (497, 242), (493, 190), (493, 162), (493, 140), (493, 117)]",265.92963362677517,"[4, 3, 6, 7, 1, 2, 5, 9, 8]","(0, 0.25)",DOT008B,DOT,B,Chinese,Mon Oct 15 17:17:30 2018,Mouse
2,3,2,0,98,6,6,1,439,289,150,137,0,500,200,8000,"[(512, 384), (512, 384), (512, 384), (512, 384), (512, 384), (512, 384), (512, 384), (512, 384), (512, 384), (512, 384), (512, 384), (512, 384), (512, 384), (512, 384), (512, 384), (512, 384), (512, 384), (512, 384), (512, 384), (512, 384), (512, 384), (512, 384), (512, 384), (512, 384), (512, 384), (512, 384), (512, 384), (512, 384), (511, 389), (508, 399), (504, 412), (496, 426), (486, 461), (480, 480), (478, 493), (477, 502), (476, 527), (476, 535), (476, 546), (476, 558), (474, 588), (470, 608), (467, 621), (465, 635)]",100.60587231286242,"[4, 3, 6, 7, 1, 2, 5, 9, 8]","(0, 0.25)",DOT008B,DOT,B,Chinese,Mon Oct 15 17:17:30 2018,Mouse
2,3,2,0,99,6,6,1,457,357,100,137,0,500,200,8000,"[(512, 384), (512, 384), (512, 384), (512, 384), (512, 384), (512, 384), (512, 384), (512, 384), (512, 384), (512, 384), (512, 384), (512, 384), (512, 384), (512, 384), (512, 384), (512, 384), (512, 384), (512, 384), (512, 384), (512, 384), (512, 384), (512, 384), (512, 384), (512, 384), (512, 384), (512, 384), (512, 384), (512, 384), (512, 384), (512, 384), (512, 384), (512, 384), (512, 384), (512, 384), (512, 384), (512, 390), (506, 423), (503, 437), (499, 449), (496, 463), (488, 487), (484, 503), (480, 522), (479, 545), (474, 602), (471, 631)]",99.42470187232026,"[4, 3, 6, 7, 1, 2, 5, 9, 8]","(0, 0.25)",DOT008B,DOT,B,Chinese,Mon Oct 15 17:17:30 2018,Mouse
2,3,2,0,100,5,5,1,519,379,140,136,0,500,200,8000,"[(512, 384), (512, 384), (512, 384), (512, 384), (512, 384), (512, 384), (512, 384), (512, 384), (512, 384), (512, 384), (512, 384), (512, 384), (512, 384), (512, 384), (512, 384), (512, 384), (512, 384), (512, 384), (512, 384), (512, 384), (512, 384), (512, 384), (512, 384), (512, 384), (512, 384), (512, 384), (512, 384), (512, 384), (512, 384), (512, 384), (512, 384), (512, 384), (512, 384), (512, 384), (512, 384), (512, 384), (512, 384), (512, 383), (511, 371), (511, 365), (511, 361), (510, 358), (509, 351), (509, 342), (508, 333), (503, 317), (491, 270), (483, 242), (473, 213), (466, 193), (447, 156), (439, 141)]",253.2791265561946,"[4, 3, 6, 7, 1, 2, 5, 9, 8]","(0, 0.25)",DOT008B,DOT,B,Chinese,Mon Oct 15 17:17:30 2018,Mouse
2,3,2,0,101,4,4,1,630,530,100,135,0,500,200,8000,"[(512, 384), (512, 384), (512, 384), (512, 384), (512, 384), (512, 384), (512, 384), (512, 384), (512, 384), (512, 384), (512, 384), (512, 384), (512, 384), (512, 384), (512, 384), (512, 384), (512, 384), (512, 384), (512, 384), (512, 384), (512, 384), (512, 384), (512, 384), (512, 384), (512, 384), (512, 384), (512, 384), (512, 384), (512, 384), (512, 384), (512, 384), (512, 384), (512, 384), (512, 384), (512, 384), (512, 384), (512, 384), (512, 384), (512, 384), (512, 384), (512, 384), (512, 384), (512, 384), (512, 384), (512, 384), (512, 384), (512, 384), (512, 384), (512, 384), (512, 384), (512, 384), (512, 384), (513, 386), (518, 391), (538, 401), (555, 408), (571, 412), (592, 415), (627, 429), (653, 436), (676, 446), (705, 458), (778, 485)]",20.7917320001102,"[4, 3, 6, 7, 1, 2, 5, 9, 8]","(0, 0.25)",DOT008B,DOT,B,Chinese,Mon Oct 15 17:17:30 2018,Mouse
2,3,2,0,102,3,1,0,-879,789,90,134,0,500,200,8000,"[(512, 384), (512, 384), (512, 384), (512, 384), (512, 384), (512, 384), (512, 384), (512, 384), (512, 384), (512, 384), (512, 384), (512, 384), (512, 384), (512, 384), (512, 384), (512, 384), (512, 384), (512, 384), (512, 384), (512, 384), (512, 384), (512, 384), (512, 384), (512, 384), (512, 384), (512, 384), (512, 384), (512, 384), (512, 384), (512, 384), (512, 384), (512, 384), (512, 384), (512, 384), (512, 384), (512, 384), (512, 384), (512, 384), (512, 384), (512, 384), (512, 384), (512, 384), (512, 384), (512, 384), (512, 384), (512, 384), (512, 384), (512, 384), (512, 384), (512, 384), (512, 384), (512, 384), (512, 384), (512, 384), (512, 384), (512, 384), (512, 384), (512, 384), (512, 384), (512, 384), (512, 384), (512, 384), (512, 384), (512, 384), (512, 384), (512, 384), (512, 384), (512, 384), (512, 384), (512, 384), (512, 384), (512, 384), (512, 384), (512, 384), (512, 384), (512, 384), (512, 384), (512, 384), (506, 383), (480, 383), (464, 383), (438, 384), (416, 384), (378, 385), (350, 387), (324, 388), (296, 390), (250, 393)]",178.0325979700807,"[4, 3, 6, 7, 1, 2, 5, 9, 8]","(0, 0.25)",DOT008B,DOT,B,Chinese,Mon Oct 15 17:17:30 2018,Mouse
2,3,2,0,103,7,7,1,467,387,80,135,0,500,200,8000,"[(512, 384), (512, 384), (512, 384), (512, 384), (512, 384), (512, 384), (512, 384), (512, 384), (512, 384), (512, 384), (512, 384), (512, 384), (512, 384), (512, 384), (512, 384), (512, 384), (512, 384), (512, 384), (512, 384), (512, 384), (512, 384), (512, 384), (512, 384), (512, 384), (512, 384), (512, 384), (512, 384), (512, 384), (512, 384), (512, 384), (512, 384), (512, 384), (512, 384), (512, 384), (512, 384), (512, 384), (512, 384), (512, 384), (511, 384), (491, 398), (467, 413), (439, 430), (406, 453), (350, 491), (330, 505), (319, 513), (303, 523)]",146.37324270185934,"[4, 3, 6, 7, 1, 2, 5, 9, 8]","(0, 0.25)",DOT008B,DOT,B,Chinese,Mon Oct 15 17:17:30 2018,Mouse
2,3,2,0,104,6,6,1,400,260,140,135,0,500,200,8000,"[(512, 384), (512, 384), (512, 384), (512, 384), (512, 384), (512, 384), (512, 384), (512, 384), (512, 384), (512, 384), (512, 384), (512, 384), (512, 384), (512, 384), (512, 384), (512, 384), (512, 384), (512, 384), (512, 384), (512, 384), (512, 384), (512, 384), (512, 384), (512, 384), (512, 384), (512, 386), (511, 392), (506, 402), (499, 427), (496, 440), (492, 449), (488, 461), (485, 489), (485, 503), (485, 526), (485, 552), (492, 604), (493, 619), (494, 631), (495, 642)]",93.76985376292187,"[4, 3, 6, 7, 1, 2, 5, 9, 8]","(0, 0.25)",DOT008B,DOT,B,Chinese,Mon Oct 15 17:17:30 2018,Mouse
