NativeLangNumber,LanuageNumber,SessionNumber,Block,TrialNum,ConditionNumber,Response,Accuracy,RT,MovementOnsetTime,TimeInMotion,SignalContrast,SignalContrastNumber,StimDisplayTime,MaskTime,MaxResponseTime,MousePositionXY,MouseAngle,WheelOrder,NoiseMuSigma,ParticipantID,LanuageTested,SessionTested,NativeLanuage,Date,ResponseDevice
1,3,2,0,1,7,7,1,1380,1010,370,153,0,500,200,8000,"[(960, 540), (960, 540), (960, 540), (960, 540), (960, 540), (960, 540), (960, 540), (960, 540), (960, 540), (960, 540), (960, 540), (960, 540), (960, 540), (960, 540), (960, 540), (960, 540), (960, 540), (960, 540), (960, 540), (960, 540), (960, 540), (960, 540), (960, 540), (960, 540), (960, 540), (960, 540), (960, 540), (960, 540), (960, 540), (960, 540), (960, 540), (960, 540), (960, 540), (960, 540), (960, 540), (960, 540), (960, 540), (960, 540), (960, 540), (960, 540), (960, 540), (960, 540), (960, 540), (960, 540), (960, 540), (960, 540), (960, 540), (960, 540), (960, 540), (960, 540), (960, 540), (960, 540), (960, 540), (960, 540), (960, 540), (960, 540), (960, 540), (960, 540), (960, 540), (960, 540), (960, 540), (960, 540), (960, 540), (960, 540), (960, 540), (960, 540), (960, 540), (960, 540), (960, 540), (960, 540), (960, 540), (960, 540), (960, 540), (960, 540), (960, 540), (960, 540), (960, 540), (960, 540), (960, 540), (960, 540), (960, 540), (960, 540), (960, 540), (960, 540), (960, 540), (960, 540), (960, 540), (960, 540), (960, 540), (960, 540), (960, 540), (960, 540), (960, 540), (960, 540), (960, 540), (960, 540), (960, 540), (960, 540), (960, 540), (960, 540), (964, 535), (992, 511), (1005, 500), (1015, 490), (1029, 480), (1053, 460), (1065, 451), (1075, 444), (1085, 435), (1096, 423), (1100, 419), (1103, 414), (1104, 411), (1108, 401), (1110, 395), (1113, 386), (1116, 364), (1124, 336), (1125, 330), (1127, 324), (1132, 316), (1136, 299), (1138, 290), (1140, 284), (1141, 279), (1142, 266), (1143, 259), (1145, 250), (1146, 243), (1147, 232), (1148, 229), (1151, 223), (1152, 220), (1156, 209), (1157, 206), (1160, 201), (1162, 199), (1166, 191)]",300.5515637906712,"[2, 1, 6, 8, 9, 5, 4, 7, 3]","(0, 0.25)",DOT008B,DOT,B,English,Wed Aug 29 15:09:17 2018,Mouse
1,3,2,0,2,8,8,1,470,230,240,153,0,500,200,8000,"[(960, 540), (960, 540), (960, 540), (960, 540), (960, 540), (960, 540), (960, 540), (960, 540), (960, 540), (960, 540), (960, 540), (960, 540), (960, 540), (960, 540), (960, 540), (960, 540), (960, 540), (960, 540), (960, 540), (960, 540), (960, 540), (960, 540), (951, 548), (946, 551), (940, 555), (935, 558), (923, 564), (914, 569), (908, 571), (897, 576), (871, 586), (861, 590), (852, 594), (843, 599), (819, 613), (811, 619), (800, 627), (790, 635), (764, 656), (749, 668), (734, 680), (721, 691), (696, 714), (680, 729), (668, 744), (655, 759), (632, 786)]",143.13010235415598,"[2, 1, 6, 8, 9, 5, 4, 7, 3]","(0, 0.25)",DOT008B,DOT,B,English,Wed Aug 29 15:09:17 2018,Mouse
1,3,2,0,3,2,2,1,532,22,510,152,0,500,200,8000,"[(960, 540), (960, 540), (961, 541), (969, 551), (973, 556), (975, 559), (978, 561), (980, 563), (980, 564), (980, 564), (980, 564), (981, 564), (981, 564), (981, 564), (981, 564), (981, 564), (981, 564), (981, 564), (981, 564), (981, 564), (981, 564), (981, 565), (981, 567), (983, 571), (986, 574), (987, 577), (991, 581), (1002, 590), (1006, 593), (1008, 596), (1013, 601), (1023, 611), (1025, 613), (1027, 616), (1029, 617), (1032, 620), (1035, 623), (1037, 623), (1040, 625), (1051, 631), (1059, 635), (1063, 638), (1072, 642), (1093, 651), (1106, 655), (1118, 658), (1136, 661), (1169, 665), (1190, 670), (1211, 673), (1234, 674), (1292, 679), (1320, 679), (1342, 679)]",19.995148509850683,"[2, 1, 6, 8, 9, 5, 4, 7, 3]","(0, 0.25)",DOT008B,DOT,B,English,Wed Aug 29 15:09:17 2018,Mouse
1,3,2,0,4,5,5,1,1199,609,590,151,0,500,200,8000,"[(960, 540), (960, 540), (960, 540), (960, 540), (960, 540), (960, 540), (960, 540), (960, 540), (960, 540), (960, 540), (960, 540), (960, 540), (960, 540), (960, 540), (960, 540), (960, 540), (960, 540), (960, 540), (960, 540), (960, 540), (960, 540), (960, 540), (960, 540), (960, 540), (960, 540), (960, 540), (960, 540), (960, 540), (960, 540), (960, 540), (960, 540), (960, 540), (960, 540), (960, 540), (960, 540), (960, 540), (960, 540), (960, 540), (960, 540), (960, 540), (960, 540), (960, 540), (960, 540), (960, 540), (960, 540), (960, 540), (960, 540), (960, 540), (960, 540), (960, 540), (960, 540), (960, 540), (960, 540), (960, 540), (960, 540), (960, 540), (960, 540), (960, 540), (960, 540), (960, 540), (964, 529), (968, 525), (971, 522), (976, 517), (985, 510), (986, 509), (988, 507), (988, 507), (988, 507), (988, 507), (988, 507), (988, 507), (988, 507), (988, 507), (988, 507), (988, 507), (988, 507), (988, 507), (988, 507), (988, 507), (988, 507), (988, 507), (988, 507), (988, 507), (988, 507), (988, 507), (988, 508), (988, 508), (988, 508), (988, 508), (988, 508), (988, 508), (988, 508), (988, 508), (988, 508), (987, 509), (984, 510), (981, 511), (978, 511), (975, 511), (966, 511), (959, 511), (949, 511), (939, 508), (919, 498), (908, 493), (895, 487), (882, 480), (862, 466), (850, 458), (839, 450), (825, 440), (791, 394), (773, 371), (756, 353), (735, 331), (695, 301), (680, 288), (660, 276), (647, 269)]",220.88649527892588,"[2, 1, 6, 8, 9, 5, 4, 7, 3]","(0, 0.25)",DOT008B,DOT,B,English,Wed Aug 29 15:09:17 2018,Mouse
1,3,2,0,5,4,4,1,2240,1260,980,150,0,500,200,8000,"[(960, 540), (960, 540), (960, 540), (960, 540), (960, 540), (960, 540), (960, 540), (960, 540), (960, 540), (960, 540), (960, 540), (960, 540), (960, 540), (960, 540), (960, 540), (960, 540), (960, 540), (960, 540), (960, 540), (960, 540), (960, 540), (960, 540), (960, 540), (960, 540), (960, 540), (960, 540), (960, 540), (960, 540), (960, 540), (960, 540), (960, 540), (960, 540), (960, 540), (960, 540), (960, 540), (960, 540), (960, 540), (960, 540), (960, 540), (960, 540), (960, 540), (960, 540), (960, 540), (960, 540), (960, 540), (960, 540), (960, 540), (960, 540), (960, 540), (960, 540), (960, 540), (960, 540), (960, 540), (960, 540), (960, 540), (960, 540), (960, 540), (960, 540), (960, 540), (960, 540), (960, 540), (960, 540), (960, 540), (960, 540), (960, 540), (960, 540), (960, 540), (960, 540), (960, 540), (960, 540), (960, 540), (960, 540), (960, 540), (960, 540), (960, 540), (960, 540), (960, 540), (960, 540), (960, 540), (960, 540), (960, 540), (960, 540), (960, 540), (960, 540), (960, 540), (960, 540), (960, 540), (960, 540), (960, 540), (960, 540), (960, 540), (960, 540), (960, 540), (960, 540), (960, 540), (960, 540), (960, 540), (960, 540), (960, 540), (960, 540), (960, 540), (960, 540), (960, 540), (960, 540), (960, 540), (960, 540), (960, 540), (960, 540), (960, 540), (960, 540), (960, 540), (960, 540), (960, 540), (960, 540), (960, 540), (960, 540), (960, 540), (960, 540), (960, 540), (960, 540), (960, 540), (960, 540), (960, 540), (960, 540), (960, 540), (961, 540), (966, 536), (972, 527), (972, 525), (972, 525), (972, 525), (972, 525), (972, 525), (972, 525), (972, 525), (972, 525), (972, 525), (972, 525), (972, 525), (972, 525), (972, 525), (972, 525), (972, 525), (972, 525), (972, 525), (972, 525), (972, 525), (972, 525), (972, 525), (972, 525), (972, 525), (972, 525), (972, 525), (972, 525), (972, 525), (972, 524), (972, 522), (971, 519), (967, 515), (962, 511), (958, 510), (957, 508), (956, 508), (955, 508), (955, 508), (955, 508), (955, 508), (955, 508), (955, 508), (955, 508), (955, 508), (955, 508), (955, 508), (955, 508), (955, 508), (955, 508), (955, 508), (955, 508), (955, 508), (955, 508), (955, 508), (955, 508), (955, 508), (955, 508), (955, 508), (955, 508), (955, 508), (955, 508), (955, 508), (955, 508), (955, 508), (955, 508), (955, 508), (955, 508), (955, 508), (955, 508), (955, 508), (955, 508), (955, 508), (955, 508), (955, 508), (955, 508), (955, 508), (955, 508), (955, 508), (955, 508), (955, 508), (955, 508), (955, 508), (955, 508), (953, 504), (948, 484), (944, 473), (942, 461), (937, 446), (923, 416), (911, 384), (903, 341), (892, 297), (879, 247), (871, 219), (864, 196), (858, 177), (848, 143)]",254.24539853041807,"[2, 1, 6, 8, 9, 5, 4, 7, 3]","(0, 0.25)",DOT008B,DOT,B,English,Wed Aug 29 15:09:17 2018,Mouse
1,3,2,0,6,3,3,1,801,61,740,149,0,500,200,8000,"[(960, 540), (960, 540), (960, 540), (960, 540), (960, 540), (960, 540), (960, 541), (964, 545), (966, 548), (968, 549), (972, 552), (973, 552), (974, 553), (974, 553), (974, 553), (974, 553), (974, 553), (974, 553), (974, 553), (974, 553), (975, 553), (975, 553), (977, 555), (980, 559), (983, 562), (986, 565), (989, 569), (995, 575), (997, 577), (1000, 578), (1000, 579), (1002, 580), (1005, 581), (1006, 581), (1008, 583), (1013, 584), (1015, 585), (1017, 586), (1021, 588), (1025, 588), (1028, 589), (1032, 591), (1034, 591), (1037, 592), (1039, 592), (1040, 592), (1040, 592), (1040, 592), (1040, 592), (1040, 592), (1040, 592), (1043, 592), (1046, 587), (1048, 582), (1050, 577), (1057, 567), (1060, 562), (1063, 556), (1068, 547), (1076, 535), (1080, 530), (1086, 522), (1091, 516), (1101, 508), (1106, 504), (1110, 502), (1114, 501), (1124, 496), (1130, 494), (1136, 491), (1144, 487), (1157, 479), (1165, 476), (1174, 473), (1184, 469), (1212, 458), (1235, 448), (1265, 435), (1290, 428), (1336, 410), (1360, 399)]",340.58244585842056,"[2, 1, 6, 8, 9, 5, 4, 7, 3]","(0, 0.25)",DOT008B,DOT,B,English,Wed Aug 29 15:09:17 2018,Mouse
1,3,2,0,7,3,3,1,561,61,500,148,0,500,200,8000,"[(960, 540), (960, 540), (960, 540), (960, 540), (960, 540), (960, 540), (966, 541), (970, 541), (973, 541), (975, 541), (976, 541), (977, 541), (977, 541), (977, 541), (977, 541), (977, 541), (977, 541), (977, 541), (977, 541), (977, 541), (977, 541), (977, 541), (977, 541), (977, 541), (980, 541), (982, 541), (988, 540), (993, 538), (1000, 536), (1007, 534), (1024, 529), (1034, 523), (1042, 520), (1050, 517), (1066, 511), (1072, 508), (1080, 507), (1085, 505), (1098, 502), (1108, 502), (1116, 498), (1126, 496), (1143, 492), (1154, 487), (1169, 483), (1176, 477), (1197, 468), (1209, 463), (1219, 458), (1229, 454), (1247, 445), (1259, 440), (1273, 434), (1287, 431), (1315, 423), (1335, 417), (1353, 409)]",341.565051177078,"[2, 1, 6, 8, 9, 5, 4, 7, 3]","(0, 0.25)",DOT008B,DOT,B,English,Wed Aug 29 15:09:17 2018,Mouse
1,3,2,0,8,1,1,1,540,120,420,147,0,500,200,8000,"[(960, 540), (960, 540), (960, 540), (960, 540), (960, 540), (960, 540), (960, 540), (960, 540), (960, 540), (960, 540), (960, 540), (959, 542), (961, 547), (962, 548), (963, 550), (964, 551), (965, 554), (966, 554), (966, 555), (967, 556), (968, 557), (969, 559), (969, 560), (971, 561), (975, 567), (980, 572), (986, 580), (993, 586), (1007, 603), (1014, 609), (1021, 617), (1028, 623), (1043, 635), (1052, 643), (1058, 649), (1066, 657), (1077, 674), (1079, 679), (1080, 682), (1082, 687), (1085, 697), (1087, 705), (1090, 716), (1092, 724), (1096, 748), (1097, 759), (1098, 770), (1099, 778), (1102, 797), (1106, 809), (1110, 821), (1116, 836), (1136, 880), (1143, 898)]",62.92509994905056,"[2, 1, 6, 8, 9, 5, 4, 7, 3]","(0, 0.25)",DOT008B,DOT,B,English,Wed Aug 29 15:09:17 2018,Mouse
1,3,2,0,9,9,9,1,940,730,210,146,0,500,200,8000,"[(960, 540), (960, 540), (960, 540), (960, 540), (960, 540), (960, 540), (960, 540), (960, 540), (960, 540), (960, 540), (960, 540), (960, 540), (960, 540), (960, 540), (960, 540), (960, 540), (960, 540), (960, 540), (960, 540), (960, 540), (960, 540), (960, 540), (960, 540), (960, 540), (960, 540), (960, 540), (960, 540), (960, 540), (960, 540), (960, 540), (960, 540), (960, 540), (960, 540), (960, 540), (960, 540), (960, 540), (960, 540), (960, 540), (960, 540), (960, 540), (960, 540), (960, 540), (960, 540), (960, 540), (960, 540), (960, 540), (960, 540), (960, 540), (960, 540), (960, 540), (960, 540), (960, 540), (960, 540), (960, 540), (960, 540), (960, 540), (960, 540), (960, 540), (960, 540), (960, 540), (960, 540), (960, 540), (960, 540), (960, 540), (960, 540), (960, 540), (960, 540), (960, 540), (960, 540), (960, 540), (960, 540), (960, 540), (958, 540), (949, 540), (943, 541), (934, 541), (925, 541), (906, 541), (896, 541), (887, 541), (876, 541), (853, 541), (839, 541), (826, 541), (812, 541), (782, 541), (767, 541), (751, 541), (731, 541), (689, 541), (667, 541), (639, 541), (611, 541), (547, 541)]",179.8612695701124,"[2, 1, 6, 8, 9, 5, 4, 7, 3]","(0, 0.25)",DOT008B,DOT,B,English,Wed Aug 29 15:09:17 2018,Mouse
1,3,2,0,10,6,6,1,1619,1119,500,145,0,500,200,8000,"[(960, 540), (960, 540), (960, 540), (960, 540), (960, 540), (960, 540), (960, 540), (960, 540), (960, 540), (960, 540), (960, 540), (960, 540), (960, 540), (960, 540), (960, 540), (960, 540), (960, 540), (960, 540), (960, 540), (960, 540), (960, 540), (960, 540), (960, 540), (960, 540), (960, 540), (960, 540), (960, 540), (960, 540), (960, 540), (960, 540), (960, 540), (960, 540), (960, 540), (960, 540), (960, 540), (960, 540), (960, 540), (960, 540), (960, 540), (960, 540), (960, 540), (960, 540), (960, 540), (960, 540), (960, 540), (960, 540), (960, 540), (960, 540), (960, 540), (960, 540), (960, 540), (960, 540), (960, 540), (960, 540), (960, 540), (960, 540), (960, 540), (960, 540), (960, 540), (960, 540), (960, 540), (960, 540), (960, 540), (960, 540), (960, 540), (960, 540), (960, 540), (960, 540), (960, 540), (960, 540), (960, 540), (960, 540), (960, 540), (960, 540), (960, 540), (960, 540), (960, 540), (960, 540), (960, 540), (960, 540), (960, 540), (960, 540), (960, 540), (960, 540), (960, 540), (960, 540), (960, 540), (960, 540), (960, 540), (960, 540), (960, 540), (960, 540), (960, 540), (960, 540), (960, 540), (960, 540), (960, 540), (960, 540), (960, 540), (960, 540), (960, 540), (960, 540), (960, 540), (960, 540), (960, 540), (960, 540), (960, 540), (960, 540), (960, 540), (960, 540), (960, 540), (961, 542), (961, 547), (961, 552), (961, 567), (962, 574), (962, 584), (963, 594), (963, 611), (963, 621), (963, 626), (963, 631), (963, 634), (963, 634), (963, 634), (963, 634), (963, 634), (963, 634), (963, 634), (963, 634), (963, 634), (963, 634), (963, 634), (963, 634), (963, 634), (963, 634), (963, 634), (963, 634), (963, 636), (963, 639), (963, 642), (963, 645), (963, 655), (963, 662), (963, 672), (963, 680), (959, 701), (958, 711), (956, 718), (955, 726), (954, 741), (952, 749), (952, 757), (950, 765), (948, 789), (947, 802), (944, 815), (941, 832), (930, 874), (923, 899), (916, 921), (908, 947)]",97.28089928218441,"[2, 1, 6, 8, 9, 5, 4, 7, 3]","(0, 0.25)",DOT008B,DOT,B,English,Wed Aug 29 15:09:17 2018,Mouse
1,3,2,0,11,4,4,1,739,199,540,144,0,500,200,8000,"[(961, 540), (961, 540), (961, 540), (961, 540), (961, 540), (961, 540), (961, 540), (961, 540), (961, 540), (961, 540), (961, 540), (961, 540), (961, 540), (961, 540), (961, 540), (961, 540), (961, 540), (961, 540), (961, 540), (962, 540), (964, 540), (966, 541), (966, 541), (966, 541), (966, 541), (966, 541), (967, 541), (972, 541), (974, 537), (977, 534), (981, 527), (990, 514), (995, 504), (998, 494), (1003, 483), (1006, 461), (1008, 451), (1010, 442), (1010, 438), (1010, 433), (1010, 433), (1010, 433), (1010, 433), (1010, 433), (1010, 433), (1010, 433), (1010, 433), (1010, 433), (1010, 433), (1010, 433), (1010, 433), (1010, 433), (1010, 433), (1010, 433), (1010, 433), (1010, 433), (1010, 433), (1010, 433), (1010, 433), (1010, 432), (1010, 429), (1005, 422), (998, 412), (983, 385), (969, 360), (951, 330), (932, 302), (891, 243), (874, 218), (859, 200), (853, 190), (840, 170), (836, 164), (832, 155)]",251.60970882938562,"[2, 1, 6, 8, 9, 5, 4, 7, 3]","(0, 0.25)",DOT008B,DOT,B,English,Wed Aug 29 15:09:17 2018,Mouse
1,3,2,0,12,6,6,1,1210,950,260,143,0,500,200,8000,"[(960, 540), (960, 540), (960, 540), (960, 540), (960, 540), (960, 540), (960, 540), (960, 540), (960, 540), (960, 540), (960, 540), (960, 540), (960, 540), (960, 540), (960, 540), (960, 540), (960, 540), (960, 540), (960, 540), (960, 540), (960, 540), (960, 540), (960, 540), (960, 540), (960, 540), (960, 540), (960, 540), (960, 540), (960, 540), (960, 540), (960, 540), (960, 540), (960, 540), (960, 540), (960, 540), (960, 540), (960, 540), (960, 540), (960, 540), (960, 540), (960, 540), (960, 540), (960, 540), (960, 540), (960, 540), (960, 540), (960, 540), (960, 540), (960, 540), (960, 540), (960, 540), (960, 540), (960, 540), (960, 540), (960, 540), (960, 540), (960, 540), (960, 540), (960, 540), (960, 540), (960, 540), (960, 540), (960, 540), (960, 540), (960, 540), (960, 540), (960, 540), (960, 540), (960, 540), (960, 540), (960, 540), (960, 540), (960, 540), (960, 540), (960, 540), (960, 540), (960, 540), (960, 540), (960, 540), (960, 540), (960, 540), (960, 540), (960, 540), (960, 540), (960, 540), (960, 540), (960, 540), (960, 540), (960, 540), (960, 540), (960, 540), (960, 540), (960, 540), (960, 540), (960, 547), (960, 555), (955, 572), (954, 579), (951, 585), (950, 592), (946, 604), (946, 606), (945, 608), (945, 613), (944, 621), (941, 631), (941, 641), (939, 653), (929, 684), (925, 698), (920, 716), (914, 738), (909, 774), (906, 793), (902, 814), (901, 835), (896, 871), (893, 892), (889, 909), (888, 926), (880, 959)]",100.80943034956209,"[2, 1, 6, 8, 9, 5, 4, 7, 3]","(0, 0.25)",DOT008B,DOT,B,English,Wed Aug 29 15:09:17 2018,Mouse
1,3,2,0,13,6,6,1,580,340,240,142,0,500,200,8000,"[(960, 540), (960, 540), (960, 540), (960, 540), (960, 540), (960, 540), (960, 540), (960, 540), (960, 540), (960, 540), (960, 540), (960, 540), (960, 540), (960, 540), (960, 540), (960, 540), (960, 540), (960, 540), (960, 540), (960, 540), (960, 540), (960, 540), (960, 540), (960, 540), (960, 540), (960, 540), (960, 540), (960, 540), (960, 540), (960, 540), (960, 540), (960, 540), (960, 540), (960, 545), (960, 554), (960, 559), (960, 564), (960, 571), (960, 587), (960, 597), (960, 609), (960, 621), (957, 662), (954, 688), (950, 725), (949, 765), (939, 821), (936, 837), (934, 849), (931, 858), (930, 873), (929, 879), (929, 884), (927, 891), (927, 908), (927, 919), (927, 930), (927, 942)]",94.69286250558984,"[2, 1, 6, 8, 9, 5, 4, 7, 3]","(0, 0.25)",DOT008B,DOT,B,English,Wed Aug 29 15:09:17 2018,Mouse
1,3,2,0,14,9,9,1,1361,222,1139,141,0,500,200,8000,"[(960, 540), (960, 540), (960, 540), (960, 540), (960, 540), (960, 540), (960, 540), (960, 540), (960, 540), (960, 540), (960, 540), (960, 540), (960, 540), (960, 540), (960, 540), (960, 540), (960, 540), (960, 540), (960, 540), (960, 540), (960, 540), (960, 540), (960, 541), (958, 544), (954, 548), (950, 551), (948, 552), (947, 553), (943, 556), (943, 556), (941, 558), (939, 560), (935, 566), (933, 568), (929, 572), (925, 575), (914, 587), (908, 591), (899, 597), (889, 604), (865, 621), (851, 631), (828, 651), (803, 669), (756, 709), (740, 723), (733, 730), (729, 734), (727, 734), (727, 734), (727, 734), (727, 734), (727, 734), (727, 734), (727, 734), (727, 734), (727, 734), (727, 734), (727, 734), (727, 734), (727, 734), (727, 734), (727, 734), (727, 734), (727, 734), (727, 734), (727, 734), (727, 734), (727, 734), (727, 734), (727, 734), (727, 734), (727, 734), (727, 734), (727, 733), (727, 733), (727, 733), (727, 733), (727, 733), (727, 733), (727, 733), (727, 733), (727, 733), (727, 733), (727, 733), (727, 733), (727, 733), (727, 733), (727, 733), (727, 733), (727, 733), (727, 733), (727, 733), (727, 733), (727, 733), (727, 733), (727, 733), (727, 733), (727, 733), (727, 733), (727, 733), (727, 733), (727, 733), (727, 733), (727, 733), (727, 733), (727, 733), (727, 733), (727, 728), (727, 725), (727, 721), (727, 714), (727, 694), (727, 677), (727, 662), (727, 649), (717, 623), (711, 613), (706, 602), (696, 590), (683, 575), (674, 568), (664, 563), (657, 558), (641, 554), (637, 553), (631, 552), (626, 552), (617, 549), (614, 548), (611, 547), (608, 546), (600, 540), (594, 536), (586, 529), (580, 524), (560, 512)]",184.0041729407094,"[2, 1, 6, 8, 9, 5, 4, 7, 3]","(0, 0.25)",DOT008B,DOT,B,English,Wed Aug 29 15:09:17 2018,Mouse
1,3,2,0,15,2,2,1,509,359,150,140,0,500,200,8000,"[(960, 540), (960, 540), (960, 540), (960, 540), (960, 540), (960, 540), (960, 540), (960, 540), (960, 540), (960, 540), (960, 540), (960, 540), (960, 540), (960, 540), (960, 540), (960, 540), (960, 540), (960, 540), (960, 540), (960, 540), (960, 540), (960, 540), (960, 540), (960, 540), (960, 540), (960, 540), (960, 540), (960, 540), (960, 540), (960, 540), (960, 540), (960, 540), (960, 540), (960, 540), (960, 540), (962, 540), (972, 545), (985, 551), (1028, 564), (1053, 572), (1081, 580), (1109, 588), (1159, 602), (1180, 605), (1204, 608), (1228, 611), (1275, 617), (1302, 622), (1325, 625), (1349, 628), (1384, 633)]",12.371323454410268,"[2, 1, 6, 8, 9, 5, 4, 7, 3]","(0, 0.25)",DOT008B,DOT,B,English,Wed Aug 29 15:09:17 2018,Mouse
1,3,2,0,16,5,5,1,1181,971,210,139,0,500,200,8000,"[(960, 540), (960, 540), (960, 540), (960, 540), (960, 540), (960, 540), (960, 540), (960, 540), (960, 540), (960, 540), (960, 540), (960, 540), (960, 540), (960, 540), (960, 540), (960, 540), (960, 540), (960, 540), (960, 540), (960, 540), (960, 540), (960, 540), (960, 540), (960, 540), (960, 540), (960, 540), (960, 540), (960, 540), (960, 540), (960, 540), (960, 540), (960, 540), (960, 540), (960, 540), (960, 540), (960, 540), (960, 540), (960, 540), (960, 540), (960, 540), (960, 540), (960, 540), (960, 540), (960, 540), (960, 540), (960, 540), (960, 540), (960, 540), (960, 540), (960, 540), (960, 540), (960, 540), (960, 540), (960, 540), (960, 540), (960, 540), (960, 540), (960, 540), (960, 540), (960, 540), (960, 540), (960, 540), (960, 540), (960, 540), (960, 540), (960, 540), (960, 540), (960, 540), (960, 540), (960, 540), (960, 540), (960, 540), (960, 540), (960, 540), (960, 540), (960, 540), (960, 540), (960, 540), (960, 540), (960, 540), (960, 540), (960, 540), (960, 540), (960, 540), (960, 540), (960, 540), (960, 540), (960, 540), (960, 540), (960, 540), (960, 540), (960, 540), (960, 540), (960, 540), (960, 540), (960, 540), (960, 540), (955, 537), (947, 532), (927, 522), (919, 518), (907, 514), (899, 509), (877, 500), (867, 494), (857, 486), (845, 475), (824, 450), (809, 432), (793, 412), (777, 390), (741, 348), (728, 333), (715, 320), (709, 311), (695, 297), (684, 288), (674, 280), (659, 270)]",221.89242177060538,"[2, 1, 6, 8, 9, 5, 4, 7, 3]","(0, 0.25)",DOT008B,DOT,B,English,Wed Aug 29 15:09:17 2018,Mouse
1,3,2,0,17,2,3,0,-1009,239,770,138,0,500,200,8000,"[(960, 540), (960, 540), (960, 540), (960, 540), (960, 540), (960, 540), (960, 540), (960, 540), (960, 540), (960, 540), (960, 540), (960, 540), (960, 540), (960, 540), (960, 540), (960, 540), (960, 540), (960, 540), (960, 540), (960, 540), (960, 540), (960, 540), (960, 540), (967, 544), (975, 548), (985, 551), (999, 557), (1030, 566), (1052, 570), (1071, 574), (1092, 577), (1123, 584), (1141, 589), (1155, 592), (1172, 595), (1213, 603), (1231, 606), (1247, 608), (1262, 609), (1287, 614), (1298, 615), (1308, 617), (1317, 618), (1327, 619), (1331, 620), (1331, 620), (1331, 620), (1331, 620), (1331, 620), (1331, 620), (1331, 620), (1331, 620), (1328, 620), (1326, 620), (1322, 618), (1317, 618), (1313, 616), (1306, 614), (1299, 612), (1280, 606), (1271, 604), (1261, 601), (1248, 598), (1229, 594), (1220, 592), (1215, 592), (1211, 591), (1210, 591), (1210, 591), (1210, 591), (1210, 591), (1210, 591), (1210, 591), (1210, 591), (1209, 591), (1209, 580), (1209, 572), (1209, 561), (1214, 549), (1221, 522), (1224, 511), (1228, 498), (1232, 485), (1243, 467), (1248, 462), (1253, 458), (1256, 455), (1272, 449), (1281, 446), (1288, 442), (1296, 438), (1303, 434), (1306, 431), (1311, 426), (1316, 422), (1326, 413), (1328, 411), (1331, 410), (1334, 408), (1337, 407), (1340, 407)]",340.70995378081125,"[2, 1, 6, 8, 9, 5, 4, 7, 3]","(0, 0.25)",DOT008B,DOT,B,English,Wed Aug 29 15:09:17 2018,Mouse
1,3,2,0,18,8,8,1,710,20,690,139,0,500,200,8000,"[(961, 540), (961, 542), (961, 543), (961, 543), (961, 543), (961, 543), (961, 543), (961, 543), (961, 543), (960, 544), (960, 544), (960, 544), (960, 544), (960, 544), (960, 544), (960, 544), (960, 545), (956, 548), (954, 550), (951, 551), (948, 552), (941, 556), (935, 559), (928, 561), (923, 564), (909, 570), (899, 574), (890, 578), (879, 586), (852, 607), (835, 622), (823, 631), (811, 639), (796, 650), (795, 651), (794, 652), (794, 652), (794, 652), (794, 652), (794, 652), (794, 652), (794, 652), (794, 652), (794, 652), (794, 652), (794, 652), (794, 652), (794, 652), (794, 652), (794, 652), (794, 652), (794, 652), (794, 652), (794, 653), (795, 653), (795, 654), (795, 655), (795, 658), (795, 659), (795, 661), (793, 665), (782, 676), (774, 683), (765, 690), (755, 700), (731, 722), (716, 734), (698, 749), (683, 761), (649, 783), (635, 794)]",141.991005626946,"[2, 1, 6, 8, 9, 5, 4, 7, 3]","(0, 0.25)",DOT008B,DOT,B,English,Wed Aug 29 15:09:17 2018,Mouse
1,3,2,0,19,5,5,1,1122,852,270,139,0,500,200,8000,"[(960, 540), (960, 540), (960, 540), (960, 540), (960, 540), (960, 540), (960, 540), (960, 540), (960, 540), (960, 540), (960, 540), (960, 540), (960, 540), (960, 540), (960, 540), (960, 540), (960, 540), (960, 540), (960, 540), (960, 540), (960, 540), (960, 540), (960, 540), (960, 540), (960, 540), (960, 540), (960, 540), (960, 540), (960, 540), (960, 540), (960, 540), (960, 540), (960, 540), (960, 540), (960, 540), (960, 540), (960, 540), (960, 540), (960, 540), (960, 540), (960, 540), (960, 540), (960, 540), (960, 540), (960, 540), (960, 540), (960, 540), (960, 540), (960, 540), (960, 540), (960, 540), (960, 540), (960, 540), (960, 540), (960, 540), (960, 540), (960, 540), (960, 540), (960, 540), (960, 540), (960, 540), (960, 540), (960, 540), (960, 540), (960, 540), (960, 540), (960, 540), (960, 540), (960, 540), (960, 540), (960, 540), (960, 540), (960, 540), (960, 540), (960, 540), (960, 540), (960, 540), (960, 540), (960, 540), (960, 540), (960, 540), (960, 540), (960, 540), (960, 540), (960, 540), (960, 539), (957, 536), (954, 534), (949, 532), (943, 530), (936, 526), (931, 524), (928, 521), (922, 516), (913, 506), (906, 497), (899, 490), (885, 468), (855, 416), (844, 399), (836, 390), (828, 382), (809, 363), (799, 357), (786, 351), (773, 342), (754, 332), (739, 325), (725, 316), (710, 310), (681, 291), (664, 282), (644, 270)]",220.51158316375577,"[2, 1, 6, 8, 9, 5, 4, 7, 3]","(0, 0.25)",DOT008B,DOT,B,English,Wed Aug 29 15:09:17 2018,Mouse
1,3,2,0,20,4,4,1,1140,450,690,138,0,500,200,8000,"[(960, 540), (960, 540), (960, 540), (960, 540), (960, 540), (960, 540), (960, 540), (960, 540), (960, 540), (960, 540), (960, 540), (960, 540), (960, 540), (960, 540), (960, 540), (960, 540), (960, 540), (960, 540), (960, 540), (960, 540), (960, 540), (960, 540), (960, 540), (960, 540), (960, 540), (960, 540), (960, 540), (960, 540), (960, 540), (960, 540), (960, 540), (960, 540), (960, 540), (960, 540), (960, 540), (960, 540), (960, 540), (960, 540), (960, 540), (960, 540), (960, 540), (960, 540), (960, 540), (960, 540), (960, 541), (960, 541), (960, 541), (961, 541), (965, 542), (969, 543), (972, 543), (976, 543), (980, 543), (981, 543), (983, 543), (983, 543), (983, 544), (983, 544), (983, 544), (983, 544), (983, 544), (983, 544), (983, 544), (983, 544), (983, 544), (983, 544), (983, 544), (983, 544), (983, 544), (983, 544), (983, 544), (983, 544), (983, 544), (983, 544), (983, 544), (983, 544), (983, 544), (983, 544), (983, 544), (983, 544), (983, 544), (983, 544), (983, 544), (983, 544), (983, 544), (983, 544), (983, 544), (983, 544), (984, 542), (984, 538), (984, 535), (984, 530), (984, 521), (984, 517), (984, 514), (984, 514), (983, 509), (983, 508), (983, 504), (982, 499), (977, 485), (976, 477), (973, 468), (971, 459), (965, 421), (962, 389), (959, 365), (956, 342), (948, 289), (944, 262), (940, 235), (936, 211), (919, 153), (911, 125)]",263.26613308900517,"[2, 1, 6, 8, 9, 5, 4, 7, 3]","(0, 0.25)",DOT008B,DOT,B,English,Wed Aug 29 15:09:17 2018,Mouse
1,3,2,0,21,7,7,1,780,640,140,137,0,500,200,8000,"[(960, 540), (960, 540), (960, 540), (960, 540), (960, 540), (960, 540), (960, 540), (960, 540), (960, 540), (960, 540), (960, 540), (960, 540), (960, 540), (960, 540), (960, 540), (960, 540), (960, 540), (960, 540), (960, 540), (960, 540), (960, 540), (960, 540), (960, 540), (960, 540), (960, 540), (960, 540), (960, 540), (960, 540), (960, 540), (960, 540), (960, 540), (960, 540), (960, 540), (960, 540), (960, 540), (960, 540), (960, 540), (960, 540), (960, 540), (960, 540), (960, 540), (960, 540), (960, 540), (960, 540), (960, 540), (960, 540), (960, 540), (960, 540), (960, 540), (960, 540), (960, 540), (960, 540), (960, 540), (960, 540), (960, 540), (960, 540), (960, 540), (960, 540), (960, 540), (960, 540), (960, 540), (960, 540), (960, 540), (964, 534), (969, 524), (994, 485), (1006, 463), (1018, 442), (1031, 420), (1050, 385), (1058, 369), (1081, 331), (1106, 295), (1135, 255), (1147, 235), (1156, 219), (1167, 198), (1185, 164)]",300.89648167510785,"[2, 1, 6, 8, 9, 5, 4, 7, 3]","(0, 0.25)",DOT008B,DOT,B,English,Wed Aug 29 15:09:17 2018,Mouse
1,3,2,0,22,1,2,0,-401,311,90,136,0,500,200,8000,"[(960, 540), (960, 540), (960, 540), (960, 540), (960, 540), (960, 540), (960, 540), (960, 540), (960, 540), (960, 540), (960, 540), (960, 540), (960, 540), (960, 540), (960, 540), (960, 540), (960, 540), (960, 540), (960, 540), (960, 540), (960, 540), (960, 540), (960, 540), (960, 540), (960, 540), (960, 540), (960, 540), (960, 540), (960, 540), (960, 540), (960, 540), (961, 547), (978, 558), (1011, 576), (1042, 590), (1116, 618), (1158, 631), (1202, 642), (1244, 654), (1313, 673), (1340, 687)]",21.148568784952307,"[2, 1, 6, 8, 9, 5, 4, 7, 3]","(0, 0.25)",DOT008B,DOT,B,English,Wed Aug 29 15:09:17 2018,Mouse
1,3,2,0,23,1,1,1,491,11,480,137,0,500,200,8000,"[(960, 540), (961, 539), (963, 542), (963, 544), (964, 547), (967, 549), (969, 551), (970, 553), (970, 553), (970, 553), (970, 553), (970, 553), (970, 553), (970, 553), (970, 553), (970, 553), (970, 553), (970, 553), (970, 553), (970, 553), (970, 553), (970, 553), (972, 559), (975, 564), (979, 571), (985, 582), (1002, 614), (1013, 640), (1020, 658), (1024, 674), (1034, 704), (1040, 718), (1044, 730), (1050, 740), (1061, 760), (1066, 769), (1072, 779), (1075, 786), (1085, 801), (1089, 807), (1093, 813), (1096, 819), (1103, 836), (1105, 840), (1108, 847), (1112, 856), (1121, 876), (1126, 887), (1132, 899), (1137, 908)]",64.31345709453585,"[2, 1, 6, 8, 9, 5, 4, 7, 3]","(0, 0.25)",DOT008B,DOT,B,English,Wed Aug 29 15:09:17 2018,Mouse
1,3,2,0,24,8,8,1,641,21,620,137,0,500,200,8000,"[(960, 540), (960, 540), (960, 539), (957, 540), (951, 545), (948, 546), (944, 548), (943, 549), (940, 550), (939, 551), (938, 551), (936, 552), (935, 552), (934, 552), (934, 552), (933, 552), (933, 552), (933, 552), (933, 552), (933, 552), (933, 552), (933, 552), (933, 552), (933, 553), (933, 553), (933, 553), (933, 553), (933, 553), (932, 554), (931, 554), (930, 554), (929, 554), (927, 555), (925, 555), (925, 555), (925, 555), (925, 555), (925, 555), (925, 555), (925, 555), (925, 555), (925, 555), (925, 555), (924, 557), (920, 559), (915, 562), (913, 562), (908, 565), (897, 571), (888, 576), (878, 582), (869, 590), (849, 607), (838, 616), (822, 631), (796, 652), (743, 690), (726, 703), (717, 709), (707, 716), (691, 730), (683, 742), (674, 759), (663, 783), (639, 840)]",136.93680038622105,"[2, 1, 6, 8, 9, 5, 4, 7, 3]","(0, 0.25)",DOT008B,DOT,B,English,Wed Aug 29 15:09:17 2018,Mouse
1,3,2,0,25,2,3,0,-1391,251,1140,136,0,500,200,8000,"[(960, 540), (960, 540), (960, 540), (960, 540), (960, 540), (960, 540), (960, 540), (960, 540), (960, 540), (960, 540), (960, 540), (960, 540), (960, 540), (960, 540), (960, 540), (960, 540), (960, 540), (960, 540), (960, 540), (960, 540), (960, 540), (960, 540), (960, 540), (960, 540), (962, 539), (968, 539), (990, 539), (1005, 538), (1017, 536), (1028, 534), (1050, 530), (1061, 529), (1072, 528), (1083, 527), (1103, 521), (1110, 518), (1116, 514), (1121, 511), (1125, 508), (1125, 508), (1126, 507), (1126, 507), (1126, 507), (1126, 507), (1126, 507), (1126, 507), (1126, 507), (1126, 507), (1126, 507), (1126, 507), (1126, 507), (1126, 507), (1126, 507), (1126, 507), (1126, 507), (1126, 506), (1129, 502), (1131, 500), (1134, 497), (1136, 496), (1136, 496), (1137, 495), (1137, 495), (1137, 495), (1137, 495), (1137, 495), (1139, 497), (1140, 501), (1140, 506), (1140, 510), (1140, 514), (1140, 515), (1140, 515), (1140, 515), (1140, 515), (1140, 515), (1140, 515), (1140, 515), (1140, 515), (1140, 515), (1140, 515), (1140, 515), (1140, 515), (1140, 515), (1140, 515), (1140, 515), (1141, 518), (1144, 524), (1145, 528), (1146, 531), (1150, 537), (1152, 540), (1154, 543), (1156, 545), (1160, 550), (1162, 552), (1166, 557), (1170, 561), (1178, 572), (1183, 577), (1188, 583), (1195, 589), (1205, 600), (1208, 603), (1211, 604), (1212, 605), (1212, 605), (1212, 605), (1212, 605), (1212, 605), (1212, 605), (1212, 605), (1212, 605), (1213, 605), (1213, 604), (1214, 599), (1214, 595), (1214, 591), (1214, 586), (1214, 585), (1214, 583), (1214, 582), (1214, 581), (1214, 580), (1215, 579), (1217, 575), (1224, 563), (1228, 557), (1232, 550), (1237, 542), (1251, 526), (1256, 519), (1264, 510), (1273, 500), (1289, 482), (1297, 472), (1308, 460), (1329, 431), (1352, 399)]",340.21665235939054,"[2, 1, 6, 8, 9, 5, 4, 7, 3]","(0, 0.25)",DOT008B,DOT,B,English,Wed Aug 29 15:09:17 2018,Mouse
1,3,2,0,26,4,4,1,510,230,280,137,0,500,200,8000,"[(960, 540), (960, 540), (960, 540), (960, 540), (960, 540), (960, 540), (960, 540), (960, 540), (960, 540), (960, 540), (960, 540), (960, 540), (960, 540), (960, 540), (960, 540), (960, 540), (960, 540), (960, 540), (960, 540), (960, 540), (960, 540), (960, 540), (959, 540), (954, 540), (949, 532), (945, 526), (934, 507), (931, 498), (925, 491), (921, 486), (918, 477), (916, 472), (914, 462), (914, 444), (914, 396), (914, 381), (911, 364), (908, 353), (904, 329), (901, 319), (899, 310), (895, 300), (891, 277), (890, 265), (890, 253), (890, 241), (889, 210), (886, 193), (884, 175), (879, 160), (873, 139)]",257.758956144229,"[2, 1, 6, 8, 9, 5, 4, 7, 3]","(0, 0.25)",DOT008B,DOT,B,English,Wed Aug 29 15:09:17 2018,Mouse
1,3,2,0,27,4,4,1,430,240,190,137,0,500,200,8000,"[(960, 540), (960, 540), (960, 540), (960, 540), (960, 540), (960, 540), (960, 540), (960, 540), (960, 540), (960, 540), (960, 540), (960, 540), (960, 540), (960, 540), (960, 540), (960, 540), (960, 540), (960, 540), (960, 540), (960, 540), (960, 540), (960, 540), (960, 540), (959, 530), (954, 513), (942, 484), (923, 445), (914, 431), (900, 409), (894, 397), (888, 360), (887, 334), (887, 314), (887, 294), (887, 261), (887, 246), (887, 233), (889, 220), (890, 197), (890, 186), (890, 175), (890, 163), (890, 139)]",260.09801767741465,"[2, 1, 6, 8, 9, 5, 4, 7, 3]","(0, 0.25)",DOT008B,DOT,B,English,Wed Aug 29 15:09:17 2018,Mouse
1,3,2,0,28,5,5,1,1061,261,800,136,0,500,200,8000,"[(960, 540), (960, 540), (960, 540), (960, 540), (960, 540), (960, 540), (960, 540), (960, 540), (960, 540), (960, 540), (960, 540), (960, 540), (960, 540), (960, 540), (960, 540), (960, 540), (960, 540), (960, 540), (960, 540), (960, 540), (960, 540), (960, 540), (960, 540), (960, 540), (960, 540), (960, 540), (960, 534), (959, 521), (955, 515), (955, 512), (953, 507), (949, 491), (945, 480), (942, 469), (937, 458), (931, 442), (927, 434), (923, 425), (921, 413), (915, 386), (913, 380), (912, 379), (912, 379), (912, 379), (912, 379), (912, 379), (912, 379), (912, 379), (912, 379), (912, 379), (912, 379), (912, 379), (912, 379), (912, 379), (912, 379), (912, 379), (912, 379), (912, 379), (912, 379), (912, 379), (912, 379), (912, 379), (912, 379), (912, 379), (912, 379), (912, 379), (912, 379), (912, 379), (912, 379), (912, 379), (912, 379), (912, 379), (912, 379), (912, 379), (912, 379), (907, 376), (904, 375), (898, 374), (890, 372), (879, 371), (870, 370), (866, 370), (863, 370), (859, 369), (859, 369), (859, 369), (859, 369), (859, 369), (859, 369), (859, 369), (859, 369), (859, 369), (859, 369), (856, 369), (854, 369), (847, 369), (841, 369), (833, 369), (821, 369), (791, 363), (769, 357), (746, 349), (732, 346), (690, 330), (670, 321), (649, 312), (624, 298)]",215.76287060016324,"[2, 1, 6, 8, 9, 5, 4, 7, 3]","(0, 0.25)",DOT008B,DOT,B,English,Wed Aug 29 15:09:17 2018,Mouse
1,3,2,0,29,4,4,1,361,231,130,135,0,500,200,8000,"[(960, 540), (960, 540), (960, 540), (960, 540), (960, 540), (960, 540), (960, 540), (960, 540), (960, 540), (960, 540), (960, 540), (960, 540), (960, 540), (960, 540), (960, 540), (960, 540), (960, 540), (960, 540), (960, 540), (960, 540), (960, 540), (960, 540), (960, 540), (960, 532), (960, 508), (958, 486), (953, 457), (945, 426), (932, 342), (924, 299), (917, 266), (910, 246), (900, 208), (894, 190), (888, 170), (883, 153), (876, 131)]",258.3940374806655,"[2, 1, 6, 8, 9, 5, 4, 7, 3]","(0, 0.25)",DOT008B,DOT,B,English,Wed Aug 29 15:09:17 2018,Mouse
1,3,2,0,30,8,8,1,481,181,300,134,0,500,200,8000,"[(960, 540), (960, 540), (960, 540), (960, 540), (960, 540), (960, 540), (960, 540), (960, 540), (960, 540), (960, 540), (960, 540), (960, 540), (960, 540), (960, 540), (960, 540), (960, 540), (960, 540), (960, 540), (960, 542), (960, 548), (960, 551), (960, 551), (959, 553), (958, 555), (957, 557), (956, 558), (955, 559), (947, 564), (943, 568), (941, 570), (936, 575), (928, 581), (922, 585), (920, 587), (914, 591), (901, 599), (893, 602), (887, 606), (878, 612), (860, 627), (851, 634), (836, 651), (814, 677), (764, 730), (745, 751), (721, 773), (703, 788), (672, 809), (656, 819)]",137.4554330632883,"[2, 1, 6, 8, 9, 5, 4, 7, 3]","(0, 0.25)",DOT008B,DOT,B,English,Wed Aug 29 15:09:17 2018,Mouse
1,3,2,0,31,9,9,1,1111,531,580,133,0,500,200,8000,"[(960, 540), (960, 540), (960, 540), (960, 540), (960, 540), (960, 540), (960, 540), (960, 540), (960, 540), (960, 540), (960, 540), (960, 540), (960, 540), (960, 540), (960, 540), (960, 540), (960, 540), (960, 540), (960, 540), (960, 540), (960, 540), (960, 540), (960, 540), (960, 540), (960, 540), (960, 540), (960, 540), (960, 540), (960, 540), (960, 540), (960, 540), (960, 540), (960, 540), (960, 540), (960, 540), (960, 540), (960, 540), (960, 540), (960, 540), (960, 540), (960, 540), (960, 540), (960, 540), (960, 540), (960, 540), (960, 540), (960, 540), (960, 540), (960, 540), (960, 540), (960, 540), (960, 540), (960, 540), (960, 539), (958, 539), (957, 539), (956, 539), (954, 540), (954, 540), (954, 540), (954, 540), (954, 540), (954, 540), (954, 540), (954, 540), (954, 540), (954, 540), (954, 540), (954, 540), (954, 540), (954, 540), (954, 540), (954, 540), (954, 540), (954, 540), (954, 540), (954, 540), (954, 540), (950, 540), (946, 540), (941, 540), (936, 540), (922, 540), (914, 540), (910, 540), (904, 540), (890, 540), (883, 540), (875, 540), (864, 540), (843, 540), (829, 540), (814, 540), (798, 540), (764, 540), (747, 540), (730, 540), (718, 540), (691, 540), (680, 540), (668, 540), (655, 540), (638, 540), (631, 540), (625, 540), (621, 540), (615, 540), (612, 540), (607, 540), (597, 540), (573, 540), (558, 540)]",180.0,"[2, 1, 6, 8, 9, 5, 4, 7, 3]","(0, 0.25)",DOT008B,DOT,B,English,Wed Aug 29 15:09:17 2018,Mouse
1,3,2,0,32,6,4,0,-499,239,260,132,0,500,200,8000,"[(960, 540), (960, 540), (960, 540), (960, 540), (960, 540), (960, 540), (960, 540), (960, 540), (960, 540), (960, 540), (960, 540), (960, 540), (960, 540), (960, 540), (960, 540), (960, 540), (960, 540), (960, 540), (960, 540), (960, 540), (960, 540), (960, 540), (960, 540), (961, 540), (963, 535), (968, 516), (968, 509), (968, 501), (968, 494), (968, 480), (968, 471), (968, 457), (968, 436), (969, 404), (969, 392), (969, 378), (969, 365), (969, 344), (969, 336), (969, 326), (969, 317), (966, 300), (964, 290), (963, 281), (960, 265), (948, 234), (942, 216), (931, 195), (922, 174), (907, 140)]",262.4522742261569,"[2, 1, 6, 8, 9, 5, 4, 7, 3]","(0, 0.25)",DOT008B,DOT,B,English,Wed Aug 29 15:09:17 2018,Mouse
1,3,2,0,33,3,7,0,-1159,699,460,133,0,500,200,8000,"[(960, 540), (960, 540), (960, 540), (960, 540), (960, 540), (960, 540), (960, 540), (960, 540), (960, 540), (960, 540), (960, 540), (960, 540), (960, 540), (960, 540), (960, 540), (960, 540), (960, 540), (960, 540), (960, 540), (960, 540), (960, 540), (960, 540), (960, 540), (960, 540), (960, 540), (960, 540), (960, 540), (960, 540), (960, 540), (960, 540), (960, 540), (960, 540), (960, 540), (960, 540), (960, 540), (960, 540), (960, 540), (960, 540), (960, 540), (960, 540), (960, 540), (960, 540), (960, 540), (960, 540), (960, 540), (960, 540), (960, 540), (960, 540), (960, 540), (960, 540), (960, 540), (960, 540), (960, 540), (960, 540), (960, 540), (960, 540), (960, 540), (960, 540), (960, 540), (960, 540), (960, 540), (960, 540), (960, 540), (960, 540), (960, 540), (960, 540), (960, 540), (960, 540), (960, 540), (960, 542), (960, 544), (960, 545), (960, 545), (960, 545), (960, 546), (960, 547), (960, 547), (960, 547), (960, 547), (959, 548), (959, 549), (959, 549), (959, 549), (959, 549), (959, 549), (959, 549), (959, 549), (959, 549), (959, 549), (959, 549), (959, 549), (959, 549), (959, 549), (959, 549), (959, 549), (959, 549), (959, 549), (959, 549), (959, 549), (959, 549), (959, 548), (960, 541), (969, 519), (973, 500), (985, 472), (993, 444), (1005, 399), (1011, 375), (1019, 354), (1028, 331), (1058, 267), (1067, 246), (1076, 226), (1085, 202), (1098, 172), (1102, 159)]",290.4405961943106,"[2, 1, 6, 8, 9, 5, 4, 7, 3]","(0, 0.25)",DOT008B,DOT,B,English,Wed Aug 29 15:09:17 2018,Mouse
1,3,2,0,34,9,9,1,540,180,360,134,0,500,200,8000,"[(960, 540), (960, 540), (960, 540), (960, 540), (960, 540), (960, 540), (960, 540), (960, 540), (960, 540), (960, 540), (960, 540), (960, 540), (960, 540), (960, 540), (960, 540), (960, 540), (960, 540), (958, 541), (956, 543), (952, 545), (949, 547), (938, 554), (932, 557), (926, 560), (915, 565), (895, 571), (884, 573), (870, 578), (851, 581), (822, 585), (806, 588), (794, 589), (782, 589), (762, 589), (752, 589), (746, 589), (742, 589), (735, 589), (730, 588), (726, 588), (725, 587), (720, 587), (717, 587), (714, 587), (711, 585), (702, 584), (694, 583), (686, 583), (675, 582), (654, 580), (639, 579), (622, 578), (600, 573), (544, 564)]",176.698134325565,"[2, 1, 6, 8, 9, 5, 4, 7, 3]","(0, 0.25)",DOT008B,DOT,B,English,Wed Aug 29 15:09:17 2018,Mouse
1,3,2,0,35,2,2,1,670,220,450,134,0,500,200,8000,"[(960, 540), (960, 540), (960, 540), (960, 540), (960, 540), (960, 540), (960, 540), (960, 540), (960, 540), (960, 540), (960, 540), (960, 540), (960, 540), (960, 540), (960, 540), (960, 540), (960, 540), (960, 540), (960, 540), (960, 540), (960, 540), (962, 540), (975, 542), (984, 543), (994, 545), (1004, 547), (1024, 551), (1033, 552), (1042, 553), (1047, 553), (1055, 555), (1056, 555), (1057, 555), (1057, 555), (1057, 555), (1057, 555), (1057, 555), (1057, 555), (1060, 555), (1062, 554), (1064, 552), (1066, 549), (1068, 546), (1070, 545), (1071, 544), (1071, 544), (1071, 544), (1072, 544), (1072, 544), (1073, 544), (1076, 544), (1080, 544), (1084, 546), (1090, 547), (1100, 552), (1109, 556), (1118, 559), (1128, 563), (1154, 572), (1171, 577), (1190, 581), (1210, 587), (1247, 599), (1272, 607), (1298, 615), (1318, 622), (1365, 636)]",13.335106341045911,"[2, 1, 6, 8, 9, 5, 4, 7, 3]","(0, 0.25)",DOT008B,DOT,B,English,Wed Aug 29 15:09:17 2018,Mouse
1,3,2,0,36,8,7,0,-890,750,140,133,0,500,200,8000,"[(960, 540), (960, 540), (960, 540), (960, 540), (960, 540), (960, 540), (960, 540), (960, 540), (960, 540), (960, 540), (960, 540), (960, 540), (960, 540), (960, 540), (960, 540), (960, 540), (960, 540), (960, 540), (960, 540), (960, 540), (960, 540), (960, 540), (960, 540), (960, 540), (960, 540), (960, 540), (960, 540), (960, 540), (960, 540), (960, 540), (960, 540), (960, 540), (960, 540), (960, 540), (960, 540), (960, 540), (960, 540), (960, 540), (960, 540), (960, 540), (960, 540), (960, 540), (960, 540), (960, 540), (960, 540), (960, 540), (960, 540), (960, 540), (960, 540), (960, 540), (960, 540), (960, 540), (960, 540), (960, 540), (960, 540), (960, 540), (960, 540), (960, 540), (960, 540), (960, 540), (960, 540), (960, 540), (960, 540), (960, 540), (960, 540), (960, 540), (960, 540), (960, 540), (960, 540), (960, 540), (960, 540), (960, 540), (960, 540), (960, 540), (961, 533), (966, 526), (973, 516), (979, 507), (1001, 475), (1010, 454), (1020, 433), (1031, 411), (1071, 318), (1094, 277), (1109, 252), (1116, 235), (1127, 205), (1131, 191), (1135, 171)]",295.372868592945,"[2, 1, 6, 8, 9, 5, 4, 7, 3]","(0, 0.25)",DOT008B,DOT,B,English,Wed Aug 29 15:09:17 2018,Mouse
1,3,2,0,37,4,4,1,451,11,440,134,0,500,200,8000,"[(960, 540), (960, 533), (960, 529), (960, 525), (960, 519), (960, 511), (960, 506), (960, 504), (960, 501), (959, 500), (959, 500), (959, 500), (959, 500), (959, 500), (959, 500), (959, 500), (959, 500), (959, 500), (959, 500), (959, 500), (959, 500), (959, 500), (959, 500), (959, 500), (959, 500), (959, 500), (959, 500), (959, 500), (959, 500), (959, 495), (959, 484), (959, 474), (958, 463), (953, 441), (949, 428), (948, 401), (945, 378), (938, 340), (933, 326), (928, 309), (923, 292), (911, 247), (903, 220), (891, 191), (881, 165), (863, 121)]",256.9654419252449,"[2, 1, 6, 8, 9, 5, 4, 7, 3]","(0, 0.25)",DOT008B,DOT,B,English,Wed Aug 29 15:09:17 2018,Mouse
1,3,2,0,38,9,9,1,640,250,390,134,0,500,200,8000,"[(960, 540), (960, 540), (960, 540), (960, 540), (960, 540), (960, 540), (960, 540), (960, 540), (960, 540), (960, 540), (960, 540), (960, 540), (960, 540), (960, 540), (960, 540), (960, 540), (960, 540), (960, 540), (960, 540), (960, 540), (960, 540), (960, 540), (960, 540), (960, 540), (960, 541), (957, 541), (954, 541), (952, 541), (950, 541), (949, 541), (947, 541), (946, 541), (945, 541), (945, 541), (942, 541), (941, 541), (940, 541), (938, 541), (934, 541), (931, 541), (927, 541), (921, 541), (907, 540), (898, 539), (888, 538), (877, 536), (851, 535), (840, 533), (825, 533), (812, 533), (783, 533), (767, 533), (752, 533), (740, 533), (712, 533), (697, 535), (682, 536), (667, 538), (639, 542), (622, 543), (610, 543), (595, 543), (567, 543), (555, 543)]",179.57559458063852,"[2, 1, 6, 8, 9, 5, 4, 7, 3]","(0, 0.25)",DOT008B,DOT,B,English,Wed Aug 29 15:09:17 2018,Mouse
1,3,2,0,39,4,4,1,430,20,410,133,0,500,200,8000,"[(962, 538), (963, 531), (963, 530), (965, 529), (965, 527), (965, 527), (965, 527), (965, 527), (965, 527), (965, 527), (965, 527), (965, 527), (965, 527), (965, 527), (965, 527), (965, 527), (965, 527), (965, 527), (965, 527), (965, 527), (965, 527), (965, 527), (965, 527), (965, 527), (965, 527), (966, 519), (966, 513), (966, 509), (966, 501), (966, 484), (966, 475), (966, 464), (966, 452), (966, 430), (966, 419), (966, 411), (964, 397), (963, 319), (963, 272), (961, 238), (958, 209), (957, 161), (955, 138)]",269.28740267100335,"[2, 1, 6, 8, 9, 5, 4, 7, 3]","(0, 0.25)",DOT008B,DOT,B,English,Wed Aug 29 15:09:17 2018,Mouse
1,3,2,0,40,7,7,1,598,448,150,132,0,500,200,8000,"[(960, 540), (960, 540), (960, 540), (960, 540), (960, 540), (960, 540), (960, 540), (960, 540), (960, 540), (960, 540), (960, 540), (960, 540), (960, 540), (960, 540), (960, 540), (960, 540), (960, 540), (960, 540), (960, 540), (960, 540), (960, 540), (960, 540), (960, 540), (960, 540), (960, 540), (960, 540), (960, 540), (960, 540), (960, 540), (960, 540), (960, 540), (960, 540), (960, 540), (960, 540), (960, 540), (960, 540), (960, 540), (960, 540), (960, 540), (960, 540), (960, 540), (960, 540), (960, 540), (960, 540), (961, 536), (967, 526), (973, 515), (977, 504), (985, 489), (1002, 443), (1010, 410), (1019, 382), (1027, 352), (1067, 261), (1087, 228), (1097, 209), (1104, 198), (1115, 179), (1118, 173), (1120, 168)]",293.272904064082,"[2, 1, 6, 8, 9, 5, 4, 7, 3]","(0, 0.25)",DOT008B,DOT,B,English,Wed Aug 29 15:09:17 2018,Mouse
1,3,2,0,41,5,5,1,1081,811,270,131,0,500,200,8000,"[(960, 540), (960, 540), (960, 540), (960, 540), (960, 540), (960, 540), (960, 540), (960, 540), (960, 540), (960, 540), (960, 540), (960, 540), (960, 540), (960, 540), (960, 540), (960, 540), (960, 540), (960, 540), (960, 540), (960, 540), (960, 540), (960, 540), (960, 540), (960, 540), (960, 540), (960, 540), (960, 540), (960, 540), (960, 540), (960, 540), (960, 540), (960, 540), (960, 540), (960, 540), (960, 540), (960, 540), (960, 540), (960, 540), (960, 540), (960, 540), (960, 540), (960, 540), (960, 540), (960, 540), (960, 540), (960, 540), (960, 540), (960, 540), (960, 540), (960, 540), (960, 540), (960, 540), (960, 540), (960, 540), (960, 540), (960, 540), (960, 540), (960, 540), (960, 540), (960, 540), (960, 540), (960, 540), (960, 540), (960, 540), (960, 540), (960, 540), (960, 540), (960, 540), (960, 540), (960, 540), (960, 540), (960, 540), (960, 540), (960, 540), (960, 540), (960, 540), (960, 540), (960, 540), (960, 540), (960, 540), (960, 540), (958, 546), (958, 547), (957, 549), (957, 549), (956, 549), (956, 549), (955, 550), (955, 551), (952, 552), (949, 552), (945, 552), (942, 552), (933, 552), (928, 552), (920, 549), (912, 543), (887, 527), (873, 518), (859, 507), (850, 501), (822, 482), (807, 469), (792, 454), (769, 427), (720, 370), (693, 341), (664, 304), (628, 249)]",221.2347602525526,"[2, 1, 6, 8, 9, 5, 4, 7, 3]","(0, 0.25)",DOT008B,DOT,B,English,Wed Aug 29 15:09:17 2018,Mouse
1,3,2,0,42,5,4,0,-480,350,130,130,0,500,200,8000,"[(960, 540), (960, 540), (960, 540), (960, 540), (960, 540), (960, 540), (960, 540), (960, 540), (960, 540), (960, 540), (960, 540), (960, 540), (960, 540), (960, 540), (960, 540), (960, 540), (960, 540), (960, 540), (960, 540), (960, 540), (960, 540), (960, 540), (960, 540), (960, 540), (960, 540), (960, 540), (960, 540), (960, 540), (960, 540), (960, 540), (960, 540), (960, 540), (960, 540), (960, 540), (960, 539), (960, 527), (960, 520), (960, 511), (960, 501), (960, 473), (960, 450), (954, 418), (947, 387), (930, 324), (926, 273), (918, 224), (911, 189), (898, 131)]",261.3802020527148,"[2, 1, 6, 8, 9, 5, 4, 7, 3]","(0, 0.25)",DOT008B,DOT,B,English,Wed Aug 29 15:09:17 2018,Mouse
1,3,2,0,43,7,4,0,-909,110,799,131,0,500,200,8000,"[(960, 540), (960, 540), (960, 540), (960, 540), (960, 540), (960, 540), (960, 540), (960, 540), (960, 540), (960, 540), (962, 540), (966, 538), (967, 538), (967, 537), (971, 534), (974, 533), (975, 531), (978, 531), (979, 529), (982, 528), (982, 528), (982, 527), (985, 525), (986, 525), (986, 525), (987, 523), (988, 521), (988, 521), (988, 521), (988, 520), (988, 517), (988, 516), (988, 515), (988, 514), (988, 511), (988, 510), (988, 508), (986, 507), (981, 503), (979, 501), (978, 500), (976, 499), (975, 498), (975, 498), (974, 497), (974, 497), (973, 496), (972, 495), (971, 494), (970, 494), (964, 490), (959, 486), (952, 482), (946, 478), (925, 461), (915, 450), (901, 439), (889, 424), (858, 398), (838, 382), (823, 368), (811, 356), (800, 333), (799, 328), (799, 328), (799, 328), (799, 328), (799, 328), (799, 328), (799, 328), (799, 328), (799, 328), (799, 328), (799, 328), (799, 328), (799, 328), (799, 329), (800, 329), (801, 330), (801, 330), (801, 330), (802, 330), (803, 330), (803, 330), (805, 330), (809, 326), (821, 303), (830, 282), (841, 258), (856, 216), (890, 136)]",260.17010766536254,"[2, 1, 6, 8, 9, 5, 4, 7, 3]","(0, 0.25)",DOT008B,DOT,B,English,Wed Aug 29 15:09:17 2018,Mouse
1,3,2,0,44,8,8,1,461,121,340,132,0,500,200,8000,"[(960, 540), (960, 540), (960, 540), (960, 540), (960, 540), (960, 540), (960, 540), (960, 540), (960, 540), (960, 540), (960, 540), (960, 540), (958, 545), (953, 548), (951, 550), (947, 553), (946, 554), (943, 555), (943, 556), (936, 559), (933, 561), (928, 564), (922, 566), (913, 571), (905, 574), (901, 577), (897, 580), (890, 584), (886, 586), (881, 589), (876, 590), (864, 597), (858, 600), (851, 604), (843, 610), (829, 621), (819, 630), (810, 638), (796, 651), (756, 682), (736, 696), (719, 707), (702, 718), (669, 741), (651, 754), (636, 766), (620, 784)]",144.33499846313825,"[2, 1, 6, 8, 9, 5, 4, 7, 3]","(0, 0.25)",DOT008B,DOT,B,English,Wed Aug 29 15:09:17 2018,Mouse
1,3,2,0,45,3,7,0,-730,520,210,132,0,500,200,8000,"[(960, 540), (960, 540), (960, 540), (960, 540), (960, 540), (960, 540), (960, 540), (960, 540), (960, 540), (960, 540), (960, 540), (960, 540), (960, 540), (960, 540), (960, 540), (960, 540), (960, 540), (960, 540), (960, 540), (960, 540), (960, 540), (960, 540), (960, 540), (960, 540), (960, 540), (960, 540), (960, 540), (960, 540), (960, 540), (960, 540), (960, 540), (960, 540), (960, 540), (960, 540), (960, 540), (960, 540), (960, 540), (960, 540), (960, 540), (960, 540), (960, 540), (960, 540), (960, 540), (960, 540), (960, 540), (960, 540), (960, 540), (960, 540), (960, 540), (960, 540), (960, 540), (964, 536), (966, 532), (970, 527), (973, 523), (977, 518), (978, 516), (981, 514), (982, 512), (988, 502), (993, 495), (999, 484), (1003, 477), (1016, 455), (1028, 434), (1051, 395), (1069, 365), (1092, 320), (1103, 298), (1114, 272), (1128, 240), (1145, 187), (1149, 165)]",296.74810416292144,"[2, 1, 6, 8, 9, 5, 4, 7, 3]","(0, 0.25)",DOT008B,DOT,B,English,Wed Aug 29 15:09:17 2018,Mouse
1,3,2,0,46,3,9,0,-501,181,320,133,0,500,200,8000,"[(960, 540), (960, 540), (960, 540), (960, 540), (960, 540), (960, 540), (960, 540), (960, 540), (960, 540), (960, 540), (960, 540), (960, 540), (960, 540), (960, 540), (960, 540), (960, 540), (960, 540), (960, 540), (957, 541), (954, 542), (951, 543), (947, 545), (942, 545), (938, 545), (934, 546), (929, 546), (916, 549), (909, 550), (898, 551), (886, 552), (864, 559), (852, 563), (841, 566), (837, 567), (824, 571), (819, 572), (817, 572), (814, 572), (802, 574), (796, 574), (788, 576), (777, 576), (752, 576), (737, 576), (727, 576), (713, 576), (667, 576), (642, 576), (609, 576), (581, 576), (525, 576)]",175.26906137622078,"[2, 1, 6, 8, 9, 5, 4, 7, 3]","(0, 0.25)",DOT008B,DOT,B,English,Wed Aug 29 15:09:17 2018,Mouse
1,3,2,0,47,2,4,0,-540,360,180,134,0,500,200,8000,"[(960, 540), (960, 540), (960, 540), (960, 540), (960, 540), (960, 540), (960, 540), (960, 540), (960, 540), (960, 540), (960, 540), (960, 540), (960, 540), (960, 540), (960, 540), (960, 540), (960, 540), (960, 540), (960, 540), (960, 540), (960, 540), (960, 540), (960, 540), (960, 540), (960, 540), (960, 540), (960, 540), (960, 540), (960, 540), (960, 540), (960, 540), (960, 540), (960, 540), (960, 540), (960, 540), (959, 539), (957, 539), (956, 538), (953, 535), (951, 531), (950, 525), (949, 518), (948, 502), (947, 488), (947, 472), (947, 452), (938, 388), (937, 357), (937, 299), (937, 241), (930, 185), (924, 163), (919, 146), (916, 133)]",263.8298249049704,"[2, 1, 6, 8, 9, 5, 4, 7, 3]","(0, 0.25)",DOT008B,DOT,B,English,Wed Aug 29 15:09:17 2018,Mouse
1,3,2,0,48,1,5,0,-1150,840,310,135,0,500,200,8000,"[(960, 540), (960, 540), (960, 540), (960, 540), (960, 540), (960, 540), (960, 540), (960, 540), (960, 540), (960, 540), (960, 540), (960, 540), (960, 540), (960, 540), (960, 540), (960, 540), (960, 540), (960, 540), (960, 540), (960, 540), (960, 540), (960, 540), (960, 540), (960, 540), (960, 540), (960, 540), (960, 540), (960, 540), (960, 540), (960, 540), (960, 540), (960, 540), (960, 540), (960, 540), (960, 540), (960, 540), (960, 540), (960, 540), (960, 540), (960, 540), (960, 540), (960, 540), (960, 540), (960, 540), (960, 540), (960, 540), (960, 540), (960, 540), (960, 540), (960, 540), (960, 540), (960, 540), (960, 540), (960, 540), (960, 540), (960, 540), (960, 540), (960, 540), (960, 540), (960, 540), (960, 540), (960, 540), (960, 540), (960, 540), (960, 540), (960, 540), (960, 540), (960, 540), (960, 540), (960, 540), (960, 540), (960, 540), (960, 540), (960, 540), (960, 540), (960, 540), (960, 540), (960, 540), (960, 540), (960, 540), (960, 540), (960, 540), (960, 540), (956, 540), (952, 538), (947, 534), (942, 530), (926, 516), (917, 508), (909, 500), (900, 493), (881, 477), (875, 472), (867, 465), (862, 460), (855, 455), (852, 453), (852, 453), (851, 452), (850, 452), (850, 452), (850, 452), (848, 451), (844, 449), (842, 448), (836, 444), (829, 440), (810, 427), (796, 418), (782, 408), (761, 390), (717, 340), (690, 313), (667, 295), (646, 278)]",219.84144821939395,"[2, 1, 6, 8, 9, 5, 4, 7, 3]","(0, 0.25)",DOT008B,DOT,B,English,Wed Aug 29 15:09:17 2018,Mouse
1,3,2,0,49,8,8,1,560,71,489,136,0,500,200,8000,"[(960, 540), (960, 540), (960, 540), (960, 540), (960, 540), (960, 540), (960, 540), (959, 541), (958, 541), (957, 541), (957, 541), (957, 541), (956, 541), (956, 541), (956, 541), (956, 541), (956, 541), (955, 542), (955, 542), (954, 542), (953, 543), (950, 543), (948, 543), (945, 544), (937, 546), (932, 547), (925, 549), (920, 549), (909, 553), (905, 554), (900, 557), (896, 560), (888, 564), (886, 566), (881, 569), (879, 569), (872, 575), (868, 577), (866, 580), (864, 582), (854, 591), (850, 596), (845, 602), (839, 608), (825, 626), (819, 638), (814, 648), (808, 658), (792, 688), (778, 708), (766, 727), (732, 761), (720, 772), (705, 785), (690, 797), (661, 818)]",137.0843683379017,"[2, 1, 6, 8, 9, 5, 4, 7, 3]","(0, 0.25)",DOT008B,DOT,B,English,Wed Aug 29 15:09:17 2018,Mouse
1,3,2,0,50,5,5,1,681,111,570,136,0,500,200,8000,"[(960, 540), (960, 540), (960, 540), (960, 540), (960, 540), (960, 540), (960, 540), (960, 540), (960, 540), (960, 540), (960, 540), (960, 535), (960, 532), (958, 528), (956, 525), (953, 521), (951, 519), (949, 518), (949, 517), (947, 516), (947, 516), (947, 515), (946, 512), (944, 505), (944, 498), (943, 493), (942, 487), (939, 466), (937, 443), (934, 414), (930, 392), (927, 369), (923, 358), (921, 351), (918, 344), (914, 338), (914, 338), (914, 336), (914, 336), (914, 336), (914, 336), (914, 336), (914, 336), (912, 336), (911, 336), (910, 338), (910, 338), (908, 342), (907, 342), (906, 343), (905, 344), (902, 347), (901, 347), (899, 349), (898, 349), (895, 351), (892, 352), (890, 352), (887, 352), (876, 352), (867, 352), (856, 352), (845, 352), (815, 345), (790, 337), (768, 331), (742, 323), (679, 306), (642, 295)]",217.61210339615636,"[2, 1, 6, 8, 9, 5, 4, 7, 3]","(0, 0.25)",DOT008B,DOT,B,English,Wed Aug 29 15:09:17 2018,Mouse
1,3,2,0,51,8,8,1,821,91,730,135,0,500,200,8000,"[(960, 540), (960, 540), (960, 540), (960, 540), (960, 540), (960, 540), (960, 540), (960, 540), (960, 540), (959, 540), (956, 540), (955, 540), (954, 540), (954, 540), (953, 540), (953, 540), (953, 540), (953, 540), (953, 540), (953, 540), (953, 540), (953, 540), (953, 540), (953, 540), (953, 540), (953, 540), (950, 540), (949, 540), (946, 540), (944, 540), (942, 540), (941, 540), (940, 540), (940, 540), (940, 540), (940, 540), (940, 540), (939, 540), (938, 540), (938, 540), (938, 540), (937, 540), (937, 540), (937, 540), (937, 540), (936, 540), (934, 540), (934, 540), (934, 540), (934, 540), (933, 540), (933, 540), (932, 540), (932, 540), (932, 540), (931, 540), (931, 540), (931, 540), (931, 540), (931, 540), (931, 540), (930, 540), (924, 540), (919, 542), (913, 544), (904, 549), (885, 561), (874, 567), (859, 575), (847, 582), (816, 602), (799, 614), (784, 624), (773, 632), (754, 648), (740, 658), (728, 666), (715, 676), (687, 698), (678, 707), (667, 721), (654, 738), (627, 771)]",145.25119875081745,"[2, 1, 6, 8, 9, 5, 4, 7, 3]","(0, 0.25)",DOT008B,DOT,B,English,Wed Aug 29 15:09:17 2018,Mouse
1,3,2,0,52,8,8,1,341,61,280,134,0,500,200,8000,"[(960, 540), (960, 540), (960, 540), (960, 540), (960, 540), (960, 540), (957, 541), (950, 547), (947, 549), (945, 551), (943, 552), (940, 554), (937, 555), (935, 557), (934, 557), (929, 561), (928, 564), (924, 567), (921, 571), (914, 582), (908, 588), (901, 596), (894, 602), (880, 615), (871, 622), (864, 629), (853, 637), (838, 655), (823, 673), (797, 702), (770, 729), (722, 775), (702, 793), (687, 805), (670, 816)]",136.4169211744957,"[2, 1, 6, 8, 9, 5, 4, 7, 3]","(0, 0.25)",DOT008B,DOT,B,English,Wed Aug 29 15:09:17 2018,Mouse
1,3,2,0,53,5,4,0,-591,241,350,133,0,500,200,8000,"[(960, 540), (960, 540), (960, 540), (960, 540), (960, 540), (960, 540), (960, 540), (960, 540), (960, 540), (960, 540), (960, 540), (960, 540), (960, 540), (960, 540), (960, 540), (960, 540), (960, 540), (960, 540), (960, 540), (960, 540), (960, 540), (960, 540), (960, 540), (960, 540), (960, 532), (960, 528), (960, 521), (960, 514), (958, 501), (957, 494), (956, 492), (955, 489), (952, 482), (952, 481), (951, 479), (951, 479), (951, 475), (950, 474), (950, 471), (950, 468), (948, 459), (948, 453), (948, 444), (946, 436), (945, 416), (945, 405), (944, 393), (944, 381), (941, 346), (938, 325), (933, 303), (931, 285), (925, 253), (919, 236), (914, 219), (907, 201), (893, 176), (887, 166), (880, 156), (873, 149)]",257.4556775932821,"[2, 1, 6, 8, 9, 5, 4, 7, 3]","(0, 0.25)",DOT008B,DOT,B,English,Wed Aug 29 15:09:17 2018,Mouse
1,3,2,0,54,2,7,0,-589,359,230,134,0,500,200,8000,"[(960, 540), (960, 540), (960, 540), (960, 540), (960, 540), (960, 540), (960, 540), (960, 540), (960, 540), (960, 540), (960, 540), (960, 540), (960, 540), (960, 540), (960, 540), (960, 540), (960, 540), (960, 540), (960, 540), (960, 540), (960, 540), (960, 540), (960, 540), (960, 540), (960, 540), (960, 540), (960, 540), (960, 540), (960, 540), (960, 540), (960, 540), (960, 540), (960, 540), (960, 540), (960, 540), (962, 541), (963, 541), (967, 539), (967, 538), (969, 534), (972, 532), (974, 528), (976, 525), (980, 518), (983, 514), (984, 511), (988, 506), (999, 486), (1005, 476), (1009, 466), (1014, 453), (1046, 395), (1078, 343), (1101, 305), (1122, 267), (1143, 224), (1150, 211), (1156, 201), (1161, 192)]",300.0101376403182,"[2, 1, 6, 8, 9, 5, 4, 7, 3]","(0, 0.25)",DOT008B,DOT,B,English,Wed Aug 29 15:09:17 2018,Mouse
1,3,2,0,55,3,2,0,-482,232,250,135,0,500,200,8000,"[(960, 540), (960, 540), (960, 540), (960, 540), (960, 540), (960, 540), (960, 540), (960, 540), (960, 540), (960, 540), (960, 540), (960, 540), (960, 540), (960, 540), (960, 540), (960, 540), (960, 540), (960, 540), (960, 540), (960, 540), (960, 540), (960, 540), (960, 540), (961, 541), (972, 546), (982, 550), (994, 553), (1002, 557), (1029, 564), (1037, 566), (1050, 571), (1063, 574), (1087, 581), (1100, 583), (1111, 587), (1119, 589), (1138, 594), (1149, 598), (1159, 600), (1169, 603), (1190, 610), (1200, 614), (1211, 616), (1227, 624), (1269, 642), (1283, 644), (1295, 649), (1311, 654), (1345, 663)]",17.71766824336645,"[2, 1, 6, 8, 9, 5, 4, 7, 3]","(0, 0.25)",DOT008B,DOT,B,English,Wed Aug 29 15:09:17 2018,Mouse
1,3,2,0,56,4,5,0,-1310,230,1080,136,0,500,200,8000,"[(960, 540), (960, 540), (960, 540), (960, 540), (960, 540), (960, 540), (960, 540), (960, 540), (960, 540), (960, 540), (960, 540), (960, 540), (960, 540), (960, 540), (960, 540), (960, 540), (960, 540), (960, 540), (960, 540), (960, 540), (960, 540), (960, 540), (955, 535), (951, 530), (948, 525), (945, 520), (935, 512), (929, 508), (924, 504), (920, 500), (912, 489), (908, 483), (906, 476), (901, 466), (899, 425), (899, 403), (899, 386), (896, 373), (895, 352), (895, 343), (894, 332), (893, 325), (891, 311), (890, 307), (888, 302), (888, 302), (887, 299), (887, 299), (887, 299), (887, 299), (887, 299), (887, 299), (887, 299), (887, 299), (887, 299), (887, 299), (887, 299), (887, 299), (887, 299), (887, 299), (887, 299), (887, 299), (887, 299), (887, 299), (887, 299), (887, 299), (887, 299), (887, 299), (887, 299), (887, 299), (887, 299), (887, 299), (887, 299), (887, 299), (887, 299), (887, 299), (887, 299), (887, 299), (887, 299), (887, 299), (887, 299), (887, 299), (887, 299), (887, 299), (887, 299), (887, 299), (887, 299), (887, 299), (887, 299), (887, 299), (887, 299), (887, 299), (887, 299), (887, 299), (887, 299), (887, 299), (887, 299), (887, 299), (887, 299), (887, 299), (887, 299), (887, 299), (887, 299), (887, 299), (887, 299), (887, 299), (886, 298), (878, 298), (871, 298), (860, 298), (841, 297), (830, 295), (819, 294), (809, 293), (791, 289), (783, 288), (775, 287), (765, 286), (745, 283), (738, 282), (730, 281), (724, 279), (713, 278), (707, 277), (700, 277), (694, 276), (682, 274), (676, 273), (670, 272), (666, 272), (656, 269)]",221.7153236318801,"[2, 1, 6, 8, 9, 5, 4, 7, 3]","(0, 0.25)",DOT008B,DOT,B,English,Wed Aug 29 15:09:17 2018,Mouse
1,3,2,0,57,3,3,1,609,19,590,137,0,500,200,8000,"[(967, 543), (980, 547), (1014, 555), (1033, 560), (1058, 566), (1080, 572), (1126, 579), (1143, 580), (1160, 585), (1179, 588), (1209, 595), (1221, 599), (1234, 602), (1242, 604), (1254, 608), (1255, 608), (1257, 609), (1257, 609), (1257, 609), (1257, 609), (1257, 609), (1258, 610), (1259, 612), (1261, 613), (1262, 615), (1263, 616), (1266, 618), (1267, 619), (1268, 619), (1269, 620), (1270, 620), (1270, 620), (1270, 620), (1270, 620), (1270, 620), (1270, 620), (1270, 620), (1270, 620), (1270, 620), (1270, 620), (1270, 620), (1270, 620), (1270, 620), (1270, 620), (1270, 620), (1270, 620), (1270, 620), (1271, 620), (1271, 614), (1271, 606), (1268, 585), (1268, 572), (1268, 560), (1268, 549), (1269, 520), (1273, 506), (1277, 492), (1286, 475), (1321, 427), (1331, 415), (1338, 409)]",340.8856864216127,"[2, 1, 6, 8, 9, 5, 4, 7, 3]","(0, 0.25)",DOT008B,DOT,B,English,Wed Aug 29 15:09:17 2018,Mouse
1,3,2,0,58,1,1,1,531,11,520,137,0,500,200,8000,"[(960, 540), (967, 551), (973, 557), (983, 565), (991, 570), (1011, 582), (1017, 586), (1026, 590), (1036, 595), (1045, 599), (1046, 600), (1046, 600), (1047, 600), (1047, 600), (1047, 600), (1047, 600), (1047, 600), (1047, 600), (1047, 600), (1047, 600), (1047, 600), (1047, 601), (1048, 602), (1048, 603), (1050, 606), (1053, 609), (1057, 612), (1060, 614), (1065, 617), (1073, 622), (1076, 623), (1078, 624), (1079, 625), (1081, 627), (1082, 628), (1083, 630), (1083, 631), (1083, 632), (1083, 633), (1083, 635), (1083, 636), (1085, 642), (1086, 648), (1087, 659), (1090, 675), (1095, 722), (1099, 746), (1107, 769), (1113, 791), (1126, 826), (1134, 842), (1139, 854), (1146, 869), (1154, 890)]",61.001022853846,"[2, 1, 6, 8, 9, 5, 4, 7, 3]","(0, 0.25)",DOT008B,DOT,B,English,Wed Aug 29 15:09:17 2018,Mouse
1,3,2,0,59,5,4,0,-590,270,320,136,0,500,200,8000,"[(960, 540), (960, 540), (960, 540), (960, 540), (960, 540), (960, 540), (960, 540), (960, 540), (960, 540), (960, 540), (960, 540), (960, 540), (960, 540), (960, 540), (960, 540), (960, 540), (960, 540), (960, 540), (960, 540), (960, 540), (960, 540), (960, 540), (960, 540), (960, 540), (960, 540), (960, 540), (957, 527), (952, 515), (947, 503), (940, 488), (926, 452), (921, 444), (911, 430), (904, 422), (892, 407), (886, 401), (877, 394), (871, 389), (861, 379), (855, 371), (852, 364), (850, 356), (846, 337), (845, 330), (845, 322), (844, 315), (844, 301), (844, 294), (844, 286), (844, 279), (844, 259), (844, 245), (844, 233), (847, 220), (850, 197), (853, 186), (855, 176), (857, 166), (858, 144)]",255.55596427550776,"[2, 1, 6, 8, 9, 5, 4, 7, 3]","(0, 0.25)",DOT008B,DOT,B,English,Wed Aug 29 15:09:17 2018,Mouse
1,3,2,0,60,9,9,1,550,20,530,137,0,500,200,8000,"[(960, 542), (960, 543), (960, 545), (959, 546), (958, 547), (958, 547), (958, 547), (958, 547), (956, 549), (956, 549), (956, 549), (956, 549), (956, 549), (956, 549), (956, 549), (955, 549), (955, 549), (954, 550), (953, 550), (953, 551), (952, 551), (951, 551), (949, 553), (948, 553), (947, 553), (945, 554), (943, 555), (941, 556), (939, 556), (938, 556), (934, 556), (932, 556), (931, 556), (928, 556), (918, 556), (914, 556), (907, 556), (905, 556), (893, 556), (887, 556), (879, 556), (872, 556), (851, 556), (840, 556), (827, 556), (813, 556), (786, 556), (773, 556), (757, 556), (740, 556), (692, 556), (670, 556), (639, 556), (611, 556), (556, 556)]",177.73204546409417,"[2, 1, 6, 8, 9, 5, 4, 7, 3]","(0, 0.25)",DOT008B,DOT,B,English,Wed Aug 29 15:09:17 2018,Mouse
1,3,2,0,61,1,1,1,451,221,230,137,0,500,200,8000,"[(960, 540), (960, 540), (960, 540), (960, 540), (960, 540), (960, 540), (960, 540), (960, 540), (960, 540), (960, 540), (960, 540), (960, 540), (960, 540), (960, 540), (960, 540), (960, 540), (960, 540), (960, 540), (960, 540), (960, 540), (960, 540), (960, 540), (961, 540), (967, 543), (972, 548), (976, 552), (982, 559), (996, 571), (1004, 579), (1014, 590), (1027, 604), (1058, 644), (1072, 664), (1088, 686), (1099, 703), (1116, 733), (1126, 747), (1133, 759), (1138, 769), (1145, 787), (1146, 794), (1150, 804), (1153, 815), (1167, 844), (1177, 869), (1188, 896)]",57.362492415714314,"[2, 1, 6, 8, 9, 5, 4, 7, 3]","(0, 0.25)",DOT008B,DOT,B,English,Wed Aug 29 15:09:17 2018,Mouse
1,3,2,0,62,7,7,1,480,230,250,136,0,500,200,8000,"[(960, 540), (960, 540), (960, 540), (960, 540), (960, 540), (960, 540), (960, 540), (960, 540), (960, 540), (960, 540), (960, 540), (960, 540), (960, 540), (960, 540), (960, 540), (960, 540), (960, 540), (960, 540), (960, 540), (960, 540), (960, 540), (960, 540), (959, 538), (960, 522), (973, 489), (979, 481), (984, 471), (990, 461), (1004, 434), (1014, 411), (1025, 387), (1032, 365), (1046, 320), (1050, 303), (1054, 291), (1059, 278), (1064, 260), (1065, 254), (1066, 251), (1068, 248), (1069, 246), (1071, 244), (1074, 236), (1079, 230), (1089, 209), (1095, 194), (1101, 179), (1111, 163)]",291.8276078290679,"[2, 1, 6, 8, 9, 5, 4, 7, 3]","(0, 0.25)",DOT008B,DOT,B,English,Wed Aug 29 15:09:17 2018,Mouse
1,3,2,0,63,8,8,1,680,50,630,135,0,500,200,8000,"[(960, 540), (960, 540), (960, 540), (960, 540), (960, 541), (960, 543), (957, 548), (951, 552), (947, 554), (943, 555), (940, 556), (934, 560), (932, 560), (931, 560), (929, 560), (929, 560), (928, 561), (925, 561), (924, 562), (916, 564), (912, 564), (906, 565), (897, 565), (879, 565), (869, 565), (860, 565), (848, 565), (823, 565), (811, 565), (798, 565), (783, 565), (753, 565), (741, 565), (726, 565), (716, 565), (704, 565), (701, 565), (699, 565), (699, 565), (699, 565), (699, 565), (699, 565), (699, 565), (699, 565), (699, 565), (699, 565), (699, 565), (699, 565), (699, 565), (699, 565), (699, 565), (699, 565), (698, 566), (699, 571), (702, 577), (707, 589), (709, 596), (713, 603), (718, 613), (721, 630), (723, 641), (724, 651), (724, 663), (724, 701), (718, 741), (705, 773), (693, 795), (669, 829)]",135.1975708704167,"[2, 1, 6, 8, 9, 5, 4, 7, 3]","(0, 0.25)",DOT008B,DOT,B,English,Wed Aug 29 15:09:17 2018,Mouse
1,3,2,0,64,1,1,1,571,211,360,134,0,500,200,8000,"[(960, 540), (960, 540), (960, 540), (960, 540), (960, 540), (960, 540), (960, 540), (960, 540), (960, 540), (960, 540), (960, 540), (960, 540), (960, 540), (960, 540), (960, 540), (960, 540), (960, 540), (960, 540), (960, 540), (960, 540), (960, 540), (963, 540), (972, 547), (997, 570), (1018, 589), (1035, 602), (1048, 613), (1093, 644), (1117, 658), (1137, 672), (1156, 684), (1183, 703), (1191, 713), (1197, 723), (1201, 732), (1202, 743), (1202, 748), (1202, 750), (1202, 751), (1202, 754), (1201, 754), (1200, 756), (1200, 756), (1199, 757), (1198, 758), (1198, 759), (1198, 759), (1197, 760), (1196, 761), (1196, 763), (1195, 766), (1194, 774), (1194, 783), (1194, 794), (1194, 804), (1194, 835), (1194, 851), (1194, 865)]",54.24611274556325,"[2, 1, 6, 8, 9, 5, 4, 7, 3]","(0, 0.25)",DOT008B,DOT,B,English,Wed Aug 29 15:09:17 2018,Mouse
1,3,2,0,65,2,4,0,-890,780,110,133,0,500,200,8000,"[(960, 540), (960, 540), (960, 540), (960, 540), (960, 540), (960, 540), (960, 540), (960, 540), (960, 540), (960, 540), (960, 540), (960, 540), (960, 540), (960, 540), (960, 540), (960, 540), (960, 540), (960, 540), (960, 540), (960, 540), (960, 540), (960, 540), (960, 540), (960, 540), (960, 540), (960, 540), (960, 540), (960, 540), (960, 540), (960, 540), (960, 540), (960, 540), (960, 540), (960, 540), (960, 540), (960, 540), (960, 540), (960, 540), (960, 540), (960, 540), (960, 540), (960, 540), (960, 540), (960, 540), (960, 540), (960, 540), (960, 540), (960, 540), (960, 540), (960, 540), (960, 540), (960, 540), (960, 540), (960, 540), (960, 540), (960, 540), (960, 540), (960, 540), (960, 540), (960, 540), (960, 540), (960, 540), (960, 540), (960, 540), (960, 540), (960, 540), (960, 540), (960, 540), (960, 540), (960, 540), (960, 540), (960, 540), (960, 540), (960, 540), (960, 540), (960, 540), (960, 540), (960, 536), (960, 529), (960, 523), (951, 500), (945, 486), (938, 468), (931, 438), (929, 319), (929, 272), (926, 235), (921, 205), (911, 143)]",262.9638142458359,"[2, 1, 6, 8, 9, 5, 4, 7, 3]","(0, 0.25)",DOT008B,DOT,B,English,Wed Aug 29 15:09:17 2018,Mouse
1,3,2,0,66,1,1,1,711,381,330,134,0,500,200,8000,"[(960, 540), (960, 540), (960, 540), (960, 540), (960, 540), (960, 540), (960, 540), (960, 540), (960, 540), (960, 540), (960, 540), (960, 540), (960, 540), (960, 540), (960, 540), (960, 540), (960, 540), (960, 540), (960, 540), (960, 540), (960, 540), (960, 540), (960, 540), (960, 540), (960, 540), (960, 540), (960, 540), (960, 540), (960, 540), (960, 540), (960, 540), (960, 540), (960, 540), (960, 540), (960, 540), (960, 540), (960, 540), (960, 540), (960, 544), (960, 547), (960, 549), (960, 549), (961, 552), (962, 555), (962, 555), (963, 557), (964, 559), (968, 563), (970, 567), (973, 571), (977, 575), (986, 586), (992, 593), (999, 602), (1006, 609), (1019, 626), (1023, 633), (1029, 639), (1034, 647), (1044, 662), (1049, 669), (1054, 678), (1061, 691), (1077, 723), (1088, 744), (1097, 767), (1106, 790), (1121, 836), (1125, 848), (1128, 859), (1133, 872), (1143, 899)]",62.98981853724276,"[2, 1, 6, 8, 9, 5, 4, 7, 3]","(0, 0.25)",DOT008B,DOT,B,English,Wed Aug 29 15:09:17 2018,Mouse
1,3,2,0,67,2,2,1,402,42,360,134,0,500,200,8000,"[(960, 540), (960, 540), (960, 540), (960, 540), (962, 540), (963, 541), (964, 543), (971, 547), (973, 549), (977, 551), (979, 553), (986, 556), (987, 557), (990, 558), (991, 558), (993, 559), (994, 559), (995, 559), (995, 559), (997, 559), (998, 559), (999, 559), (1001, 559), (1003, 559), (1004, 559), (1006, 559), (1009, 560), (1020, 566), (1032, 570), (1043, 575), (1056, 579), (1086, 589), (1106, 595), (1121, 597), (1144, 605), (1186, 616), (1212, 619), (1242, 624), (1275, 631), (1340, 647), (1376, 654)]",15.325019985391712,"[2, 1, 6, 8, 9, 5, 4, 7, 3]","(0, 0.25)",DOT008B,DOT,B,English,Wed Aug 29 15:09:17 2018,Mouse
1,3,2,0,68,1,1,1,439,289,150,133,0,500,200,8000,"[(960, 540), (960, 540), (960, 540), (960, 540), (960, 540), (960, 540), (960, 540), (960, 540), (960, 540), (960, 540), (960, 540), (960, 540), (960, 540), (960, 540), (960, 540), (960, 540), (960, 540), (960, 540), (960, 540), (960, 540), (960, 540), (960, 540), (960, 540), (960, 540), (960, 540), (960, 540), (960, 540), (960, 540), (962, 542), (974, 559), (983, 569), (994, 581), (1008, 599), (1041, 633), (1060, 654), (1079, 673), (1100, 694), (1137, 729), (1151, 745), (1162, 757), (1177, 775), (1213, 828), (1217, 842), (1219, 850)]",50.12178770480077,"[2, 1, 6, 8, 9, 5, 4, 7, 3]","(0, 0.25)",DOT008B,DOT,B,English,Wed Aug 29 15:09:17 2018,Mouse
1,3,2,0,69,9,1,0,-929,649,280,132,0,500,200,8000,"[(960, 540), (960, 540), (960, 540), (960, 540), (960, 540), (960, 540), (960, 540), (960, 540), (960, 540), (960, 540), (960, 540), (960, 540), (960, 540), (960, 540), (960, 540), (960, 540), (960, 540), (960, 540), (960, 540), (960, 540), (960, 540), (960, 540), (960, 540), (960, 540), (960, 540), (960, 540), (960, 540), (960, 540), (960, 540), (960, 540), (960, 540), (960, 540), (960, 540), (960, 540), (960, 540), (960, 540), (960, 540), (960, 540), (960, 540), (960, 540), (960, 540), (960, 540), (960, 540), (960, 540), (960, 540), (960, 540), (960, 540), (960, 540), (960, 540), (960, 540), (960, 540), (960, 540), (960, 540), (960, 540), (960, 540), (960, 540), (960, 540), (960, 540), (960, 540), (960, 540), (960, 540), (960, 540), (960, 540), (960, 540), (960, 542), (961, 543), (962, 545), (962, 546), (963, 548), (964, 548), (965, 550), (966, 551), (967, 554), (969, 555), (970, 556), (971, 559), (977, 566), (983, 574), (993, 584), (1005, 593), (1034, 622), (1050, 638), (1060, 649), (1072, 664), (1103, 714), (1118, 741), (1131, 773), (1142, 796), (1153, 828), (1159, 841), (1163, 857), (1168, 871), (1175, 901)]",59.22333106263964,"[2, 1, 6, 8, 9, 5, 4, 7, 3]","(0, 0.25)",DOT008B,DOT,B,English,Wed Aug 29 15:09:17 2018,Mouse
1,3,2,0,70,2,3,0,-568,28,540,133,0,500,200,8000,"[(960, 540), (960, 540), (960, 538), (960, 538), (960, 536), (960, 536), (960, 535), (960, 535), (960, 535), (960, 535), (960, 535), (960, 534), (960, 534), (960, 533), (960, 533), (960, 532), (960, 531), (960, 530), (960, 529), (961, 527), (961, 527), (961, 526), (962, 524), (963, 522), (963, 522), (964, 521), (964, 520), (964, 520), (964, 520), (964, 520), (965, 519), (966, 517), (968, 516), (969, 514), (972, 510), (975, 508), (976, 507), (979, 507), (987, 506), (991, 506), (996, 506), (1003, 506), (1020, 506), (1029, 506), (1038, 506), (1048, 506), (1077, 499), (1097, 493), (1122, 485), (1150, 477), (1206, 459), (1236, 452), (1262, 444), (1287, 436), (1328, 426), (1342, 425), (1353, 423)]",343.4212092245269,"[2, 1, 6, 8, 9, 5, 4, 7, 3]","(0, 0.25)",DOT008B,DOT,B,English,Wed Aug 29 15:09:17 2018,Mouse
1,3,2,0,71,7,5,0,-940,340,600,134,0,500,200,8000,"[(960, 540), (960, 540), (960, 540), (960, 540), (960, 540), (960, 540), (960, 540), (960, 540), (960, 540), (960, 540), (960, 540), (960, 540), (960, 540), (960, 540), (960, 540), (960, 540), (960, 540), (960, 540), (960, 540), (960, 540), (960, 540), (960, 540), (960, 540), (960, 540), (960, 540), (960, 540), (960, 540), (960, 540), (960, 540), (960, 540), (960, 540), (960, 540), (960, 540), (960, 539), (960, 539), (960, 538), (960, 538), (960, 537), (960, 537), (960, 537), (960, 537), (960, 537), (960, 537), (960, 537), (960, 537), (960, 537), (960, 537), (960, 537), (960, 537), (960, 537), (960, 537), (960, 537), (960, 537), (960, 537), (960, 537), (960, 537), (960, 537), (960, 537), (960, 537), (960, 537), (960, 537), (960, 537), (960, 537), (960, 537), (960, 537), (960, 537), (960, 537), (960, 537), (960, 537), (960, 537), (960, 537), (960, 537), (960, 537), (960, 537), (960, 537), (960, 537), (960, 537), (960, 537), (960, 537), (960, 537), (957, 534), (952, 529), (944, 523), (932, 512), (901, 485), (876, 465), (858, 452), (836, 436), (785, 388), (765, 362), (743, 339), (723, 318), (671, 272), (640, 253)]",221.88813637199607,"[2, 1, 6, 8, 9, 5, 4, 7, 3]","(0, 0.25)",DOT008B,DOT,B,English,Wed Aug 29 15:09:17 2018,Mouse
1,3,2,0,72,6,7,0,-521,331,190,135,0,500,200,8000,"[(960, 540), (960, 540), (960, 540), (960, 540), (960, 540), (960, 540), (960, 540), (960, 540), (960, 540), (960, 540), (960, 540), (960, 540), (960, 540), (960, 540), (960, 540), (960, 540), (960, 540), (960, 540), (960, 540), (960, 540), (960, 540), (960, 540), (960, 540), (960, 540), (960, 540), (960, 540), (960, 540), (960, 540), (960, 540), (960, 540), (960, 540), (960, 540), (960, 540), (966, 539), (983, 523), (991, 517), (1000, 510), (1007, 502), (1021, 488), (1025, 481), (1030, 476), (1034, 470), (1043, 449), (1045, 436), (1053, 419), (1069, 382), (1108, 301), (1120, 272), (1131, 246), (1137, 231), (1149, 205), (1154, 194), (1157, 185)]",299.0271898525983,"[2, 1, 6, 8, 9, 5, 4, 7, 3]","(0, 0.25)",DOT008B,DOT,B,English,Wed Aug 29 15:09:17 2018,Mouse
1,3,2,0,73,8,8,1,552,132,420,136,0,500,200,8000,"[(960, 540), (960, 540), (960, 540), (960, 540), (960, 540), (960, 540), (960, 540), (960, 540), (960, 540), (960, 540), (960, 540), (960, 540), (960, 540), (958, 542), (958, 542), (957, 542), (957, 542), (957, 542), (957, 542), (957, 542), (957, 542), (957, 542), (957, 542), (957, 542), (957, 542), (957, 542), (956, 542), (953, 544), (950, 545), (945, 548), (942, 549), (938, 552), (936, 553), (927, 554), (925, 554), (921, 556), (918, 557), (908, 560), (904, 562), (899, 564), (893, 568), (879, 577), (869, 582), (860, 588), (849, 593), (820, 612), (797, 630), (772, 649), (746, 666), (712, 692), (697, 704), (688, 713), (674, 724), (657, 749), (645, 767), (634, 781)]",143.5258241887001,"[2, 1, 6, 8, 9, 5, 4, 7, 3]","(0, 0.25)",DOT008B,DOT,B,English,Wed Aug 29 15:09:17 2018,Mouse
1,3,2,0,74,5,5,1,620,300,320,136,0,500,200,8000,"[(960, 540), (960, 540), (960, 540), (960, 540), (960, 540), (960, 540), (960, 540), (960, 540), (960, 540), (960, 540), (960, 540), (960, 540), (960, 540), (960, 540), (960, 540), (960, 540), (960, 540), (960, 540), (960, 540), (960, 540), (960, 540), (960, 540), (960, 540), (960, 540), (960, 540), (960, 540), (960, 540), (960, 540), (960, 540), (961, 536), (960, 530), (959, 526), (955, 519), (955, 518), (954, 516), (953, 514), (953, 514), (953, 514), (953, 514), (953, 514), (953, 514), (953, 514), (953, 514), (953, 514), (953, 514), (953, 514), (953, 514), (951, 513), (945, 511), (939, 508), (934, 504), (926, 498), (909, 484), (893, 474), (873, 460), (858, 444), (820, 381), (803, 353), (783, 326), (758, 294), (713, 244), (689, 220)]",229.73957120642046,"[2, 1, 6, 8, 9, 5, 4, 7, 3]","(0, 0.25)",DOT008B,DOT,B,English,Wed Aug 29 15:09:17 2018,Mouse
1,3,2,0,75,2,2,1,500,190,310,135,0,500,200,8000,"[(960, 540), (960, 540), (960, 540), (960, 540), (960, 540), (960, 540), (960, 540), (960, 540), (960, 540), (960, 540), (960, 540), (960, 540), (960, 540), (960, 540), (960, 540), (960, 540), (960, 540), (960, 540), (961, 540), (961, 540), (961, 540), (961, 540), (961, 540), (962, 540), (962, 540), (964, 546), (968, 549), (969, 552), (971, 554), (976, 559), (981, 561), (983, 563), (985, 564), (993, 568), (998, 570), (1002, 572), (1007, 574), (1023, 581), (1033, 583), (1044, 587), (1056, 589), (1092, 601), (1113, 604), (1143, 609), (1170, 615), (1224, 625), (1251, 628), (1281, 634), (1316, 643), (1386, 663)]",16.105142084148863,"[2, 1, 6, 8, 9, 5, 4, 7, 3]","(0, 0.25)",DOT008B,DOT,B,English,Wed Aug 29 15:09:17 2018,Mouse
1,3,2,0,76,6,4,0,-389,249,140,134,0,500,200,8000,"[(960, 540), (960, 540), (960, 540), (960, 540), (960, 540), (960, 540), (960, 540), (960, 540), (960, 540), (960, 540), (960, 540), (960, 540), (960, 540), (960, 540), (960, 540), (960, 540), (960, 540), (960, 540), (960, 540), (960, 540), (960, 540), (960, 540), (960, 540), (960, 540), (960, 537), (958, 529), (956, 511), (955, 503), (955, 492), (952, 482), (950, 454), (950, 399), (950, 343), (950, 299), (938, 234), (935, 208), (930, 181), (927, 160), (923, 127)]",264.8806310224868,"[2, 1, 6, 8, 9, 5, 4, 7, 3]","(0, 0.25)",DOT008B,DOT,B,English,Wed Aug 29 15:09:17 2018,Mouse
1,3,2,0,77,7,7,1,540,350,190,135,0,500,200,8000,"[(960, 540), (960, 540), (960, 540), (960, 540), (960, 540), (960, 540), (960, 540), (960, 540), (960, 540), (960, 540), (960, 540), (960, 540), (960, 540), (960, 540), (960, 540), (960, 540), (960, 540), (960, 540), (960, 540), (960, 540), (960, 540), (960, 540), (960, 540), (960, 540), (960, 540), (960, 540), (960, 540), (960, 540), (960, 540), (960, 540), (960, 540), (960, 540), (960, 540), (960, 540), (965, 538), (966, 535), (967, 535), (967, 534), (968, 533), (968, 532), (970, 531), (971, 526), (978, 512), (982, 504), (989, 495), (997, 481), (1017, 454), (1028, 440), (1039, 423), (1057, 393), (1115, 304), (1140, 263), (1156, 221), (1171, 176)]",300.0995970980977,"[2, 1, 6, 8, 9, 5, 4, 7, 3]","(0, 0.25)",DOT008B,DOT,B,English,Wed Aug 29 15:09:17 2018,Mouse
1,3,2,0,78,2,2,1,510,170,340,135,0,500,200,8000,"[(960, 540), (960, 540), (960, 540), (960, 540), (960, 540), (960, 540), (960, 540), (960, 540), (960, 540), (960, 540), (960, 540), (960, 540), (960, 540), (960, 540), (960, 540), (960, 540), (961, 539), (962, 539), (964, 541), (968, 545), (972, 546), (974, 549), (975, 549), (982, 554), (985, 556), (989, 558), (994, 561), (1002, 564), (1007, 566), (1013, 569), (1017, 572), (1029, 576), (1035, 579), (1040, 581), (1046, 584), (1058, 589), (1062, 591), (1071, 594), (1076, 596), (1096, 605), (1108, 607), (1121, 612), (1137, 617), (1176, 628), (1199, 635), (1224, 643), (1252, 650), (1296, 663), (1319, 669), (1332, 672), (1344, 677)]",19.634917680414798,"[2, 1, 6, 8, 9, 5, 4, 7, 3]","(0, 0.25)",DOT008B,DOT,B,English,Wed Aug 29 15:09:17 2018,Mouse
1,3,2,0,79,7,7,1,542,411,131,134,0,500,200,8000,"[(960, 540), (960, 540), (960, 540), (960, 540), (960, 540), (960, 540), (960, 540), (960, 540), (960, 540), (960, 540), (960, 540), (960, 540), (960, 540), (960, 540), (960, 540), (960, 540), (960, 540), (960, 540), (960, 540), (960, 540), (960, 540), (960, 540), (960, 540), (960, 540), (960, 540), (960, 540), (960, 540), (960, 540), (960, 540), (960, 540), (960, 540), (960, 540), (960, 540), (960, 540), (960, 540), (960, 540), (960, 540), (960, 540), (960, 540), (960, 540), (960, 540), (960, 537), (962, 531), (967, 523), (979, 503), (985, 491), (994, 478), (1000, 469), (1013, 446), (1026, 425), (1049, 382), (1078, 332), (1126, 245), (1138, 214), (1150, 180)]",297.82409638425327,"[2, 1, 6, 8, 9, 5, 4, 7, 3]","(0, 0.25)",DOT008B,DOT,B,English,Wed Aug 29 15:09:17 2018,Mouse
1,3,2,0,80,9,8,0,-779,169,610,133,0,500,200,8000,"[(960, 540), (960, 540), (960, 540), (960, 540), (960, 540), (960, 540), (960, 540), (960, 540), (960, 540), (960, 540), (960, 540), (960, 540), (960, 540), (960, 540), (960, 540), (960, 540), (958, 542), (957, 543), (954, 543), (952, 545), (949, 545), (948, 545), (946, 546), (945, 546), (939, 547), (937, 549), (935, 549), (933, 549), (928, 549), (927, 549), (925, 549), (924, 549), (924, 549), (924, 549), (923, 549), (923, 549), (923, 549), (923, 549), (923, 549), (923, 549), (923, 549), (923, 549), (922, 549), (920, 549), (917, 549), (916, 549), (913, 549), (911, 549), (907, 549), (904, 549), (902, 549), (897, 549), (891, 551), (889, 553), (886, 554), (886, 556), (883, 560), (882, 564), (881, 565), (877, 571), (869, 580), (864, 585), (862, 588), (857, 593), (847, 603), (842, 606), (836, 610), (830, 614), (815, 626), (803, 635), (783, 651), (760, 669), (715, 699), (695, 713), (678, 726), (661, 739), (639, 757), (629, 766)]",145.67554146365748,"[2, 1, 6, 8, 9, 5, 4, 7, 3]","(0, 0.25)",DOT008B,DOT,B,English,Wed Aug 29 15:09:17 2018,Mouse
1,3,2,0,81,6,7,0,-471,341,130,134,0,500,200,8000,"[(960, 540), (960, 540), (960, 540), (960, 540), (960, 540), (960, 540), (960, 540), (960, 540), (960, 540), (960, 540), (960, 540), (960, 540), (960, 540), (960, 540), (960, 540), (960, 540), (960, 540), (960, 540), (960, 540), (960, 540), (960, 540), (960, 540), (960, 540), (960, 540), (960, 540), (960, 540), (960, 540), (960, 540), (960, 540), (960, 540), (960, 540), (960, 540), (960, 540), (960, 540), (966, 539), (973, 535), (982, 530), (991, 525), (1010, 510), (1020, 501), (1030, 491), (1037, 480), (1062, 448), (1086, 408), (1124, 355), (1154, 310), (1200, 246), (1212, 220)]",308.22043205485005,"[2, 1, 6, 8, 9, 5, 4, 7, 3]","(0, 0.25)",DOT008B,DOT,B,English,Wed Aug 29 15:09:17 2018,Mouse
1,3,2,0,82,3,3,1,460,20,440,135,0,500,200,8000,"[(967, 541), (978, 545), (981, 545), (983, 545), (983, 546), (985, 547), (985, 547), (985, 547), (985, 547), (985, 547), (985, 547), (985, 547), (985, 547), (985, 547), (985, 547), (985, 547), (985, 547), (985, 547), (985, 547), (985, 547), (985, 547), (985, 547), (985, 547), (987, 549), (987, 549), (990, 552), (994, 554), (996, 555), (1000, 556), (1008, 558), (1011, 558), (1015, 559), (1020, 559), (1032, 559), (1038, 558), (1048, 554), (1059, 549), (1089, 535), (1110, 526), (1130, 519), (1153, 512), (1204, 502), (1234, 497), (1263, 494), (1295, 489), (1364, 480)]",351.55247275209155,"[2, 1, 6, 8, 9, 5, 4, 7, 3]","(0, 0.25)",DOT008B,DOT,B,English,Wed Aug 29 15:09:17 2018,Mouse
1,3,2,0,83,4,4,1,480,110,370,135,0,500,200,8000,"[(960, 540), (960, 540), (960, 540), (960, 540), (960, 540), (960, 540), (960, 540), (960, 540), (960, 540), (960, 540), (959, 540), (957, 540), (957, 540), (957, 540), (956, 540), (956, 540), (956, 540), (956, 540), (956, 540), (956, 540), (956, 540), (953, 540), (952, 537), (951, 532), (949, 526), (948, 520), (946, 508), (946, 502), (945, 499), (945, 496), (944, 492), (943, 492), (943, 492), (943, 492), (943, 490), (943, 488), (943, 485), (943, 481), (939, 470), (938, 463), (934, 452), (933, 433), (927, 351), (922, 308), (913, 270), (899, 231), (877, 156), (869, 128)]",257.5448372111056,"[2, 1, 6, 8, 9, 5, 4, 7, 3]","(0, 0.25)",DOT008B,DOT,B,English,Wed Aug 29 15:09:17 2018,Mouse
1,3,2,0,84,2,2,1,561,91,470,134,0,500,200,8000,"[(960, 540), (960, 540), (960, 540), (960, 540), (960, 540), (960, 540), (960, 540), (960, 540), (960, 540), (960, 543), (960, 549), (962, 554), (965, 558), (968, 561), (978, 572), (984, 576), (993, 580), (1001, 586), (1020, 597), (1030, 601), (1039, 604), (1047, 609), (1067, 618), (1075, 620), (1085, 623), (1093, 625), (1106, 629), (1113, 631), (1115, 631), (1115, 631), (1116, 631), (1116, 631), (1116, 631), (1116, 631), (1116, 631), (1116, 631), (1116, 631), (1116, 631), (1116, 631), (1116, 631), (1116, 631), (1116, 631), (1116, 631), (1116, 631), (1116, 631), (1119, 632), (1130, 635), (1140, 638), (1151, 641), (1163, 645), (1199, 654), (1224, 662), (1243, 666), (1265, 672), (1304, 675), (1323, 680), (1340, 681)]",20.357504473920923,"[2, 1, 6, 8, 9, 5, 4, 7, 3]","(0, 0.25)",DOT008B,DOT,B,English,Wed Aug 29 15:09:17 2018,Mouse
1,3,2,0,85,5,4,0,-1019,249,770,133,0,500,200,8000,"[(960, 540), (960, 540), (960, 540), (960, 540), (960, 540), (960, 540), (960, 540), (960, 540), (960, 540), (960, 540), (960, 540), (960, 540), (960, 540), (960, 540), (960, 540), (960, 540), (960, 540), (960, 540), (960, 540), (960, 540), (960, 540), (960, 540), (960, 540), (960, 540), (960, 532), (960, 525), (958, 518), (957, 515), (957, 498), (957, 493), (957, 488), (956, 484), (955, 480), (955, 478), (954, 476), (954, 474), (951, 459), (950, 448), (945, 432), (940, 419), (928, 392), (922, 379), (917, 370), (912, 362), (906, 352), (904, 350), (904, 350), (904, 350), (904, 350), (904, 350), (904, 350), (904, 350), (904, 350), (904, 350), (904, 350), (904, 350), (904, 350), (904, 350), (904, 350), (904, 350), (904, 350), (904, 350), (904, 350), (904, 350), (904, 350), (904, 350), (903, 349), (903, 344), (898, 324), (896, 310), (891, 292), (884, 274), (872, 240), (866, 224), (860, 213), (855, 202), (852, 189), (851, 185), (850, 182), (850, 180), (849, 179), (849, 179), (849, 179), (849, 179), (849, 179), (849, 179), (849, 179), (849, 179), (849, 179), (849, 179), (849, 179), (849, 179), (849, 179), (849, 179), (849, 179), (849, 179), (849, 179), (849, 179), (849, 179), (849, 179), (849, 158), (849, 142)]",254.41650746781505,"[2, 1, 6, 8, 9, 5, 4, 7, 3]","(0, 0.25)",DOT008B,DOT,B,English,Wed Aug 29 15:09:17 2018,Mouse
1,3,2,0,86,3,2,0,-480,160,320,134,0,500,200,8000,"[(960, 540), (960, 540), (960, 540), (960, 540), (960, 540), (960, 540), (960, 540), (960, 540), (960, 540), (960, 540), (960, 540), (960, 540), (960, 540), (960, 540), (960, 540), (964, 542), (967, 544), (983, 554), (993, 559), (1006, 566), (1020, 574), (1049, 590), (1063, 599), (1074, 604), (1087, 609), (1116, 622), (1130, 626), (1142, 631), (1151, 633), (1170, 637), (1177, 639), (1184, 640), (1191, 641), (1198, 642), (1200, 643), (1203, 643), (1204, 643), (1212, 646), (1216, 647), (1222, 650), (1232, 654), (1255, 664), (1266, 668), (1279, 673), (1291, 676), (1313, 684), (1321, 686), (1331, 690)]",22.01410745874978,"[2, 1, 6, 8, 9, 5, 4, 7, 3]","(0, 0.25)",DOT008B,DOT,B,English,Wed Aug 29 15:09:17 2018,Mouse
1,3,2,0,87,3,3,1,610,240,370,135,0,500,200,8000,"[(960, 540), (960, 540), (960, 540), (960, 540), (960, 540), (960, 540), (960, 540), (960, 540), (960, 540), (960, 540), (960, 540), (960, 540), (960, 540), (960, 540), (960, 540), (960, 540), (960, 540), (960, 540), (960, 540), (960, 540), (960, 540), (960, 540), (960, 540), (963, 540), (977, 540), (986, 537), (998, 534), (1010, 531), (1037, 524), (1050, 520), (1063, 517), (1079, 511), (1122, 488), (1145, 474), (1159, 461), (1174, 451), (1188, 439), (1191, 436), (1191, 436), (1191, 436), (1191, 436), (1191, 436), (1191, 436), (1191, 436), (1191, 436), (1191, 436), (1191, 436), (1191, 436), (1191, 436), (1191, 436), (1191, 436), (1191, 436), (1191, 436), (1191, 436), (1191, 436), (1199, 432), (1222, 422), (1245, 414), (1272, 408), (1300, 400), (1361, 383)]",338.61860379706565,"[2, 1, 6, 8, 9, 5, 4, 7, 3]","(0, 0.25)",DOT008B,DOT,B,English,Wed Aug 29 15:09:17 2018,Mouse
1,3,2,0,88,6,4,0,-520,250,270,135,0,500,200,8000,"[(960, 540), (960, 540), (960, 540), (960, 540), (960, 540), (960, 540), (960, 540), (960, 540), (960, 540), (960, 540), (960, 540), (960, 540), (960, 540), (960, 540), (960, 540), (960, 540), (960, 540), (960, 540), (960, 540), (960, 540), (960, 540), (960, 540), (960, 540), (960, 540), (960, 538), (960, 534), (961, 526), (963, 520), (963, 514), (963, 506), (963, 491), (963, 488), (963, 486), (963, 482), (963, 478), (963, 474), (962, 469), (962, 461), (962, 422), (961, 405), (959, 392), (958, 380), (953, 352), (950, 338), (944, 318), (937, 298), (920, 250), (907, 223), (899, 203), (890, 179), (879, 152), (877, 139)]",258.30590617878005,"[2, 1, 6, 8, 9, 5, 4, 7, 3]","(0, 0.25)",DOT008B,DOT,B,English,Wed Aug 29 15:09:17 2018,Mouse
1,3,2,0,89,9,9,1,720,20,700,136,0,500,200,8000,"[(960, 543), (958, 547), (956, 550), (955, 554), (953, 557), (950, 562), (949, 562), (948, 564), (947, 565), (947, 566), (946, 567), (946, 567), (946, 567), (945, 568), (945, 568), (945, 568), (944, 570), (943, 571), (942, 571), (941, 573), (939, 574), (935, 577), (929, 580), (925, 583), (921, 585), (910, 592), (905, 596), (901, 598), (894, 604), (882, 614), (876, 619), (867, 627), (860, 632), (843, 644), (832, 649), (823, 653), (818, 656), (803, 667), (800, 671), (792, 676), (784, 683), (769, 697), (763, 700), (758, 704), (755, 705), (753, 706), (752, 707), (752, 707), (752, 707), (752, 707), (752, 706), (752, 703), (752, 700), (748, 694), (747, 687), (744, 681), (742, 675), (734, 657), (729, 646), (722, 636), (717, 624), (698, 593), (686, 574), (673, 554), (662, 540), (639, 517), (626, 510), (613, 505), (601, 500), (578, 494), (569, 492), (556, 491)]",186.9154624664085,"[2, 1, 6, 8, 9, 5, 4, 7, 3]","(0, 0.25)",DOT008B,DOT,B,English,Wed Aug 29 15:09:17 2018,Mouse
1,3,2,0,90,8,8,1,560,290,270,136,0,500,200,8000,"[(960, 540), (960, 540), (960, 540), (960, 540), (960, 540), (960, 540), (960, 540), (960, 540), (960, 540), (960, 540), (960, 540), (960, 540), (960, 540), (960, 540), (960, 540), (960, 540), (960, 540), (960, 540), (960, 540), (960, 540), (960, 540), (960, 540), (960, 540), (960, 540), (960, 540), (960, 540), (960, 540), (960, 540), (960, 542), (959, 543), (959, 543), (959, 543), (958, 544), (958, 544), (958, 544), (958, 545), (955, 548), (953, 550), (949, 554), (947, 555), (939, 561), (933, 565), (928, 569), (919, 574), (893, 594), (872, 612), (849, 632), (825, 652), (781, 689), (771, 697), (754, 708), (739, 720), (694, 759), (671, 779), (656, 793), (643, 807)]",139.89352705511533,"[2, 1, 6, 8, 9, 5, 4, 7, 3]","(0, 0.25)",DOT008B,DOT,B,English,Wed Aug 29 15:09:17 2018,Mouse
1,3,2,0,91,2,2,1,510,260,250,135,0,500,200,8000,"[(960, 540), (960, 540), (960, 540), (960, 540), (960, 540), (960, 540), (960, 540), (960, 540), (960, 540), (960, 540), (960, 540), (960, 540), (960, 540), (960, 540), (960, 540), (960, 540), (960, 540), (960, 540), (960, 540), (960, 540), (960, 540), (960, 540), (960, 540), (960, 540), (960, 540), (964, 540), (968, 540), (980, 545), (985, 548), (992, 552), (998, 554), (1012, 560), (1019, 563), (1025, 565), (1028, 567), (1038, 571), (1042, 572), (1047, 574), (1052, 577), (1062, 581), (1070, 585), (1075, 587), (1084, 592), (1105, 599), (1114, 604), (1127, 609), (1139, 615), (1192, 641), (1229, 657), (1277, 677), (1326, 704)]",24.13655156672279,"[2, 1, 6, 8, 9, 5, 4, 7, 3]","(0, 0.25)",DOT008B,DOT,B,English,Wed Aug 29 15:09:17 2018,Mouse
1,3,2,0,92,1,7,0,-920,790,130,134,0,500,200,8000,"[(960, 540), (960, 540), (960, 540), (960, 540), (960, 540), (960, 540), (960, 540), (960, 540), (960, 540), (960, 540), (960, 540), (960, 540), (960, 540), (960, 540), (960, 540), (960, 540), (960, 540), (960, 540), (960, 540), (960, 540), (960, 540), (960, 540), (960, 540), (960, 540), (960, 540), (960, 540), (960, 540), (960, 540), (960, 540), (960, 540), (960, 540), (960, 540), (960, 540), (960, 540), (960, 540), (960, 540), (960, 540), (960, 540), (960, 540), (960, 540), (960, 540), (960, 540), (960, 540), (960, 540), (960, 540), (960, 540), (960, 540), (960, 540), (960, 540), (960, 540), (960, 540), (960, 540), (960, 540), (960, 540), (960, 540), (960, 540), (960, 540), (960, 540), (960, 540), (960, 540), (960, 540), (960, 540), (960, 540), (960, 540), (960, 540), (960, 540), (960, 540), (960, 540), (960, 540), (960, 540), (960, 540), (960, 540), (960, 540), (960, 540), (960, 540), (960, 540), (960, 540), (960, 540), (959, 538), (963, 517), (969, 504), (973, 490), (979, 477), (1006, 423), (1035, 366), (1056, 328), (1072, 308), (1094, 267), (1104, 251), (1113, 230), (1124, 204), (1138, 169)]",295.6309636231088,"[2, 1, 6, 8, 9, 5, 4, 7, 3]","(0, 0.25)",DOT008B,DOT,B,English,Wed Aug 29 15:09:17 2018,Mouse
1,3,2,0,93,8,8,1,640,20,620,135,0,500,200,8000,"[(960, 542), (957, 546), (952, 549), (949, 551), (948, 551), (946, 552), (944, 554), (944, 554), (943, 554), (943, 554), (942, 555), (941, 555), (940, 556), (939, 556), (939, 557), (938, 557), (938, 557), (937, 558), (936, 558), (934, 559), (934, 559), (932, 560), (925, 561), (921, 561), (915, 562), (910, 563), (896, 563), (889, 563), (881, 563), (872, 563), (857, 563), (848, 563), (840, 563), (833, 563), (824, 563), (823, 563), (822, 563), (822, 563), (822, 563), (822, 563), (822, 563), (822, 563), (822, 563), (822, 563), (821, 563), (820, 563), (816, 564), (816, 564), (816, 564), (816, 564), (814, 565), (814, 565), (813, 565), (812, 566), (808, 568), (805, 571), (801, 577), (799, 583), (784, 605), (772, 621), (755, 641), (724, 673), (651, 733), (611, 765)]",147.19015909555088,"[2, 1, 6, 8, 9, 5, 4, 7, 3]","(0, 0.25)",DOT008B,DOT,B,English,Wed Aug 29 15:09:17 2018,Mouse
1,3,2,0,94,1,1,1,620,270,350,135,0,500,200,8000,"[(960, 540), (960, 540), (960, 540), (960, 540), (960, 540), (960, 540), (960, 540), (960, 540), (960, 540), (960, 540), (960, 540), (960, 540), (960, 540), (960, 540), (960, 540), (960, 540), (960, 540), (960, 540), (960, 540), (960, 540), (960, 540), (960, 540), (960, 540), (960, 540), (960, 540), (960, 540), (966, 544), (975, 550), (984, 554), (1003, 565), (1010, 571), (1020, 577), (1029, 585), (1045, 604), (1049, 612), (1052, 620), (1054, 630), (1055, 649), (1055, 660), (1055, 671), (1055, 682), (1056, 704), (1058, 714), (1059, 723), (1060, 730), (1065, 749), (1069, 760), (1072, 772), (1081, 788), (1092, 815), (1096, 825), (1099, 833), (1104, 841), (1111, 855), (1115, 862), (1120, 870), (1123, 876), (1129, 884), (1132, 888), (1136, 891), (1141, 895), (1149, 902)]",62.43096345311562,"[2, 1, 6, 8, 9, 5, 4, 7, 3]","(0, 0.25)",DOT008B,DOT,B,English,Wed Aug 29 15:09:17 2018,Mouse
1,3,2,0,95,9,9,1,821,171,650,134,0,500,200,8000,"[(960, 540), (960, 540), (960, 540), (960, 540), (960, 540), (960, 540), (960, 540), (960, 540), (960, 540), (960, 540), (960, 540), (960, 540), (960, 540), (960, 540), (960, 540), (960, 540), (960, 540), (959, 540), (957, 541), (954, 543), (953, 544), (951, 545), (950, 545), (948, 546), (947, 547), (947, 547), (945, 547), (940, 548), (940, 548), (938, 548), (936, 549), (933, 551), (933, 551), (931, 551), (929, 553), (923, 555), (919, 558), (912, 562), (906, 565), (887, 580), (875, 588), (862, 598), (850, 606), (815, 631), (795, 645), (781, 654), (770, 660), (758, 664), (755, 664), (754, 664), (754, 664), (754, 664), (754, 664), (754, 664), (754, 664), (754, 664), (754, 664), (754, 664), (754, 664), (754, 664), (754, 664), (754, 663), (754, 661), (754, 658), (754, 655), (754, 651), (751, 647), (745, 641), (741, 637), (736, 633), (733, 630), (720, 621), (713, 616), (704, 610), (694, 605), (674, 593), (661, 586), (649, 580), (637, 574), (601, 556), (581, 549), (563, 542), (549, 540)]",180.0,"[2, 1, 6, 8, 9, 5, 4, 7, 3]","(0, 0.25)",DOT008B,DOT,B,English,Wed Aug 29 15:09:17 2018,Mouse
1,3,2,0,96,9,9,1,291,71,220,133,0,500,200,8000,"[(960, 540), (960, 540), (960, 540), (960, 540), (960, 540), (960, 540), (960, 540), (959, 541), (947, 543), (938, 544), (930, 544), (920, 544), (907, 544), (901, 544), (897, 544), (894, 544), (889, 544), (883, 545), (878, 545), (869, 546), (847, 549), (832, 551), (818, 554), (801, 556), (759, 556), (731, 556), (703, 556), (667, 556), (589, 556), (553, 556)]",177.74874530948748,"[2, 1, 6, 8, 9, 5, 4, 7, 3]","(0, 0.25)",DOT008B,DOT,B,English,Wed Aug 29 15:09:17 2018,Mouse
