NativeLangNumber,LanuageNumber,SessionNumber,Block,TrialNum,ConditionNumber,Response,Accuracy,RT,MovementOnsetTime,TimeInMotion,SignalContrast,SignalContrastNumber,StimDisplayTime,MaskTime,MaxResponseTime,MousePositionXY,MouseAngle,WheelOrder,NoiseMuSigma,ParticipantID,LanuageTested,SessionTested,NativeLanuage,Date,ResponseDevice
2,3,2,0,1,4,4,1,911,801,110,153,0,500,200,8000,"[(512, 384), (512, 384), (512, 384), (512, 384), (512, 384), (512, 384), (512, 384), (512, 384), (512, 384), (512, 384), (512, 384), (512, 384), (512, 384), (512, 384), (512, 384), (512, 384), (512, 384), (512, 384), (512, 384), (512, 384), (512, 384), (512, 384), (512, 384), (512, 384), (512, 384), (512, 384), (512, 384), (512, 384), (512, 384), (512, 384), (512, 384), (512, 384), (512, 384), (512, 384), (512, 384), (512, 384), (512, 384), (512, 384), (512, 384), (512, 384), (512, 384), (512, 384), (512, 384), (512, 384), (512, 384), (512, 384), (512, 384), (512, 384), (512, 384), (512, 384), (512, 384), (512, 384), (512, 384), (512, 384), (512, 384), (512, 384), (512, 384), (512, 384), (512, 384), (512, 384), (512, 384), (512, 384), (512, 384), (512, 384), (512, 384), (512, 384), (512, 384), (512, 384), (512, 384), (512, 384), (512, 384), (512, 384), (512, 384), (512, 384), (512, 384), (512, 384), (512, 384), (512, 384), (512, 384), (512, 384), (512, 402), (512, 418), (512, 438), (512, 460), (515, 515), (515, 528), (515, 549), (518, 573), (518, 604), (518, 621), (518, 633), (518, 644)]",88.67802434046303,"[2, 3, 4, 7, 5, 6, 8, 9, 1]","(0, 0.25)",DOT009B,DOT,B,Chinese,Mon Oct 15 17:24:29 2018,Mouse
2,3,2,0,2,7,7,1,330,110,220,153,0,500,200,8000,"[(512, 384), (512, 384), (512, 384), (512, 384), (512, 384), (512, 384), (512, 384), (512, 384), (512, 384), (512, 384), (511, 385), (507, 388), (504, 392), (502, 395), (500, 395), (498, 397), (493, 402), (491, 404), (490, 405), (486, 410), (481, 416), (476, 422), (471, 428), (464, 436), (446, 456), (432, 472), (417, 486), (403, 502), (379, 528), (367, 541), (355, 551), (347, 561), (328, 582)]",132.90109406679645,"[2, 3, 4, 7, 5, 6, 8, 9, 1]","(0, 0.25)",DOT009B,DOT,B,Chinese,Mon Oct 15 17:24:29 2018,Mouse
2,3,2,0,3,1,1,1,279,59,220,152,0,500,200,8000,"[(512, 384), (512, 384), (512, 384), (512, 384), (512, 384), (513, 383), (514, 382), (520, 381), (522, 381), (524, 380), (526, 379), (528, 379), (530, 379), (530, 379), (531, 378), (533, 378), (534, 377), (537, 376), (539, 375), (548, 373), (554, 371), (558, 368), (570, 365), (604, 356), (629, 350), (659, 343), (697, 336), (774, 327)]",347.72614755573403,"[2, 3, 4, 7, 5, 6, 8, 9, 1]","(0, 0.25)",DOT009B,DOT,B,Chinese,Mon Oct 15 17:24:29 2018,Mouse
2,3,2,0,4,2,2,1,570,250,320,151,0,500,200,8000,"[(512, 384), (512, 384), (512, 384), (512, 384), (512, 384), (512, 384), (512, 384), (512, 384), (512, 384), (512, 384), (512, 384), (512, 384), (512, 384), (512, 384), (512, 384), (512, 384), (512, 384), (512, 384), (512, 384), (512, 384), (512, 384), (512, 384), (512, 384), (512, 384), (511, 385), (514, 388), (519, 394), (530, 401), (536, 404), (538, 405), (541, 407), (545, 409), (548, 412), (548, 412), (548, 412), (549, 413), (549, 413), (549, 413), (549, 413), (551, 415), (551, 415), (554, 416), (558, 419), (566, 422), (575, 423), (584, 424), (594, 426), (612, 429), (622, 430), (634, 431), (645, 434), (674, 441), (694, 446), (708, 448), (720, 450), (747, 456), (757, 460)]",17.234103412395072,"[2, 3, 4, 7, 5, 6, 8, 9, 1]","(0, 0.25)",DOT009B,DOT,B,Chinese,Mon Oct 15 17:24:29 2018,Mouse
2,3,2,0,5,5,5,1,630,190,440,150,0,500,200,8000,"[(512, 384), (512, 384), (512, 384), (512, 384), (512, 384), (512, 384), (512, 384), (512, 384), (512, 384), (512, 384), (512, 384), (512, 384), (512, 384), (512, 384), (512, 384), (512, 384), (512, 384), (512, 384), (508, 384), (503, 387), (497, 391), (493, 392), (486, 395), (483, 397), (480, 399), (477, 399), (470, 403), (469, 403), (467, 403), (465, 404), (457, 405), (453, 407), (448, 408), (444, 409), (438, 411), (436, 411), (436, 412), (434, 412), (432, 413), (430, 413), (429, 414), (429, 414), (429, 414), (429, 414), (429, 414), (429, 414), (429, 414), (427, 414), (425, 414), (421, 414), (409, 410), (405, 409), (399, 408), (391, 406), (373, 404), (362, 403), (354, 400), (339, 398), (316, 397), (301, 394), (287, 393), (272, 393), (245, 389)]",178.92717072420848,"[2, 3, 4, 7, 5, 6, 8, 9, 1]","(0, 0.25)",DOT009B,DOT,B,Chinese,Mon Oct 15 17:24:29 2018,Mouse
2,3,2,0,6,6,6,1,480,20,460,149,0,500,200,8000,"[(511, 383), (510, 383), (509, 383), (508, 382), (508, 382), (506, 382), (503, 382), (500, 381), (497, 380), (494, 379), (490, 377), (485, 374), (481, 371), (477, 368), (475, 367), (465, 358), (462, 355), (456, 350), (451, 346), (443, 340), (438, 336), (435, 334), (431, 330), (423, 322), (419, 318), (415, 316), (410, 311), (397, 301), (390, 297), (386, 293), (382, 292), (375, 288), (372, 286), (370, 285), (367, 284), (364, 282), (363, 281), (363, 281), (362, 281), (360, 278), (357, 276), (355, 272), (351, 268), (340, 257), (335, 252), (328, 246), (321, 238), (303, 221)]",217.95082183250472,"[2, 3, 4, 7, 5, 6, 8, 9, 1]","(0, 0.25)",DOT009B,DOT,B,Chinese,Mon Oct 15 17:24:29 2018,Mouse
2,3,2,0,7,9,9,1,319,99,220,148,0,500,200,8000,"[(512, 384), (512, 384), (512, 384), (512, 384), (512, 384), (512, 384), (512, 384), (512, 384), (512, 384), (512, 382), (512, 371), (512, 354), (512, 347), (513, 339), (513, 335), (514, 325), (515, 320), (517, 316), (517, 310), (519, 301), (521, 294), (523, 287), (527, 278), (532, 260), (535, 249), (540, 237), (550, 222), (565, 201), (576, 189), (585, 180), (595, 170), (616, 153)]",294.23805773316195,"[2, 3, 4, 7, 5, 6, 8, 9, 1]","(0, 0.25)",DOT009B,DOT,B,Chinese,Mon Oct 15 17:24:29 2018,Mouse
2,3,2,0,8,8,8,1,509,19,490,147,0,500,200,8000,"[(512, 384), (513, 384), (515, 384), (518, 382), (519, 380), (520, 378), (521, 376), (524, 372), (524, 371), (524, 369), (525, 368), (526, 364), (526, 362), (527, 361), (528, 360), (528, 357), (528, 354), (528, 351), (528, 350), (528, 343), (528, 339), (528, 332), (528, 326), (528, 313), (528, 309), (527, 300), (526, 295), (525, 285), (524, 278), (523, 272), (522, 270), (521, 264), (521, 262), (521, 261), (521, 260), (521, 260), (521, 260), (521, 260), (521, 260), (521, 260), (521, 260), (521, 260), (521, 260), (521, 260), (520, 257), (516, 250), (508, 235), (490, 198), (481, 177), (473, 155), (464, 134)]",259.13147465983127,"[2, 3, 4, 7, 5, 6, 8, 9, 1]","(0, 0.25)",DOT009B,DOT,B,Chinese,Mon Oct 15 17:24:29 2018,Mouse
2,3,2,0,9,6,6,1,330,110,220,146,0,500,200,8000,"[(512, 384), (512, 384), (512, 384), (512, 384), (512, 384), (512, 384), (512, 384), (512, 384), (512, 384), (512, 384), (510, 382), (497, 373), (472, 357), (462, 351), (456, 347), (446, 342), (432, 333), (430, 332), (426, 329), (424, 328), (420, 324), (418, 322), (414, 318), (408, 313), (394, 300), (384, 293), (375, 286), (363, 278), (338, 260), (330, 253), (323, 246), (313, 236), (301, 225)]",217.000016527781,"[2, 3, 4, 7, 5, 6, 8, 9, 1]","(0, 0.25)",DOT009B,DOT,B,Chinese,Mon Oct 15 17:24:29 2018,Mouse
2,3,2,0,10,8,8,1,410,190,220,145,0,500,200,8000,"[(512, 384), (512, 384), (512, 384), (512, 384), (512, 384), (512, 384), (512, 384), (512, 384), (512, 384), (512, 384), (512, 384), (512, 384), (512, 384), (512, 384), (512, 384), (512, 384), (512, 384), (512, 384), (512, 382), (512, 362), (512, 355), (512, 347), (512, 337), (512, 319), (512, 311), (512, 302), (512, 293), (512, 274), (512, 263), (512, 254), (512, 247), (512, 232), (512, 224), (511, 221), (511, 215), (508, 205), (508, 199), (507, 191), (506, 178), (500, 149), (496, 133)]",266.3526143475431,"[2, 3, 4, 7, 5, 6, 8, 9, 1]","(0, 0.25)",DOT009B,DOT,B,Chinese,Mon Oct 15 17:24:29 2018,Mouse
2,3,2,0,11,9,9,1,311,201,110,144,0,500,200,8000,"[(512, 384), (512, 384), (512, 384), (512, 384), (512, 384), (512, 384), (512, 384), (512, 384), (512, 384), (512, 384), (512, 384), (512, 384), (512, 384), (512, 384), (512, 384), (512, 384), (512, 384), (512, 384), (512, 384), (512, 384), (512, 385), (518, 381), (524, 369), (539, 340), (548, 324), (558, 308), (571, 288), (594, 248), (607, 228), (620, 204), (635, 179), (654, 151)]",301.35988697361717,"[2, 3, 4, 7, 5, 6, 8, 9, 1]","(0, 0.25)",DOT009B,DOT,B,Chinese,Mon Oct 15 17:24:29 2018,Mouse
2,3,2,0,12,9,9,1,230,110,120,143,0,500,200,8000,"[(512, 384), (512, 384), (512, 384), (512, 384), (512, 384), (512, 384), (512, 384), (512, 384), (512, 384), (512, 384), (516, 379), (534, 358), (542, 349), (549, 338), (555, 329), (572, 307), (579, 295), (589, 281), (595, 270), (615, 240), (625, 219), (637, 193), (652, 168)]",302.94921511659044,"[2, 3, 4, 7, 5, 6, 8, 9, 1]","(0, 0.25)",DOT009B,DOT,B,Chinese,Mon Oct 15 17:24:29 2018,Mouse
2,3,2,0,13,1,1,1,329,199,130,142,0,500,200,8000,"[(512, 384), (512, 384), (512, 384), (512, 384), (512, 384), (512, 384), (512, 384), (512, 384), (512, 384), (512, 384), (512, 384), (512, 384), (512, 384), (512, 384), (512, 384), (512, 384), (512, 384), (512, 384), (512, 384), (514, 384), (515, 383), (518, 382), (521, 380), (523, 379), (536, 374), (543, 372), (558, 364), (569, 362), (603, 352), (630, 347), (662, 340), (695, 331), (785, 314)]",345.6186054089094,"[2, 3, 4, 7, 5, 6, 8, 9, 1]","(0, 0.25)",DOT009B,DOT,B,Chinese,Mon Oct 15 17:24:29 2018,Mouse
2,3,2,0,14,4,4,1,1158,88,1070,141,0,500,200,8000,"[(512, 384), (512, 384), (512, 384), (512, 384), (512, 384), (512, 384), (512, 384), (512, 384), (511, 385), (511, 385), (506, 382), (498, 367), (496, 364), (495, 359), (489, 352), (485, 344), (483, 341), (483, 339), (481, 335), (476, 324), (473, 320), (470, 314), (467, 308), (464, 304), (462, 299), (461, 299), (459, 296), (457, 294), (457, 294), (457, 292), (457, 292), (457, 292), (457, 292), (457, 292), (456, 292), (456, 292), (456, 292), (456, 292), (456, 292), (456, 292), (456, 292), (456, 292), (456, 292), (455, 289), (455, 289), (453, 289), (453, 289), (453, 288), (453, 288), (453, 288), (453, 288), (453, 288), (453, 288), (453, 288), (453, 288), (453, 288), (453, 288), (453, 288), (453, 288), (453, 288), (453, 288), (452, 288), (450, 293), (445, 308), (442, 317), (440, 327), (438, 334), (437, 349), (435, 356), (434, 366), (433, 376), (432, 394), (432, 403), (432, 413), (432, 424), (432, 439), (432, 446), (435, 452), (437, 455), (439, 459), (439, 459), (440, 460), (441, 461), (442, 462), (443, 462), (445, 463), (445, 463), (449, 465), (451, 466), (455, 469), (459, 471), (466, 477), (471, 480), (477, 487), (481, 491), (487, 500), (488, 501), (489, 505), (490, 509), (491, 513), (491, 514), (492, 516), (492, 518), (494, 520), (494, 522), (494, 523), (494, 525), (494, 537), (494, 545), (492, 554), (491, 562), (488, 582), (486, 597), (485, 611), (482, 628), (481, 656)]",96.50197851098974,"[2, 3, 4, 7, 5, 6, 8, 9, 1]","(0, 0.25)",DOT009B,DOT,B,Chinese,Mon Oct 15 17:24:29 2018,Mouse
2,3,2,0,15,3,3,1,610,460,150,140,0,500,200,8000,"[(512, 384), (512, 384), (512, 384), (512, 384), (512, 384), (512, 384), (512, 384), (512, 384), (512, 384), (512, 384), (512, 384), (512, 384), (512, 384), (512, 384), (512, 384), (512, 384), (512, 384), (512, 384), (512, 384), (512, 384), (512, 384), (512, 384), (512, 384), (512, 384), (512, 384), (512, 384), (512, 384), (512, 384), (512, 384), (512, 384), (512, 384), (512, 384), (512, 384), (512, 384), (512, 384), (512, 384), (512, 384), (512, 384), (512, 384), (512, 384), (512, 384), (512, 384), (512, 384), (512, 384), (512, 384), (514, 386), (516, 392), (525, 410), (528, 418), (531, 427), (536, 438), (546, 467), (552, 482), (559, 500), (563, 512), (577, 545), (585, 560), (591, 573), (599, 590), (610, 611), (616, 621)]",66.30724200812328,"[2, 3, 4, 7, 5, 6, 8, 9, 1]","(0, 0.25)",DOT009B,DOT,B,Chinese,Mon Oct 15 17:24:29 2018,Mouse
2,3,2,0,16,8,9,0,-250,150,100,139,0,500,200,8000,"[(512, 384), (512, 384), (512, 384), (512, 384), (512, 384), (512, 384), (512, 384), (512, 384), (512, 384), (512, 384), (512, 384), (512, 384), (512, 384), (512, 384), (512, 381), (520, 367), (532, 356), (546, 347), (577, 325), (592, 313), (605, 300), (617, 285), (648, 240), (663, 213), (678, 189)]",310.40715466960603,"[2, 3, 4, 7, 5, 6, 8, 9, 1]","(0, 0.25)",DOT009B,DOT,B,Chinese,Mon Oct 15 17:24:29 2018,Mouse
2,3,2,0,17,6,6,1,421,211,210,140,0,500,200,8000,"[(512, 384), (512, 384), (512, 384), (512, 384), (512, 384), (512, 384), (512, 384), (512, 384), (512, 384), (512, 384), (512, 384), (512, 384), (512, 384), (512, 384), (512, 384), (512, 384), (512, 384), (512, 384), (512, 384), (512, 384), (512, 384), (499, 385), (459, 376), (444, 370), (433, 365), (423, 361), (405, 353), (397, 349), (391, 347), (386, 343), (381, 341), (381, 340), (379, 340), (377, 338), (370, 333), (368, 330), (361, 325), (354, 318), (336, 303), (324, 292), (313, 282), (303, 271), (284, 252)]",210.06858282186244,"[2, 3, 4, 7, 5, 6, 8, 9, 1]","(0, 0.25)",DOT009B,DOT,B,Chinese,Mon Oct 15 17:24:29 2018,Mouse
2,3,2,0,18,4,5,0,-760,490,270,140,0,500,200,8000,"[(512, 384), (512, 384), (512, 384), (512, 384), (512, 384), (512, 384), (512, 384), (512, 384), (512, 384), (512, 384), (512, 384), (512, 384), (512, 384), (512, 384), (512, 384), (512, 384), (512, 384), (512, 384), (512, 384), (512, 384), (512, 384), (512, 384), (512, 384), (512, 384), (512, 384), (512, 384), (512, 384), (512, 384), (512, 384), (512, 384), (512, 384), (512, 384), (512, 384), (512, 384), (512, 384), (512, 384), (512, 384), (512, 384), (512, 384), (512, 384), (512, 384), (512, 384), (512, 384), (512, 384), (512, 384), (512, 384), (512, 384), (512, 384), (509, 384), (502, 384), (496, 384), (492, 384), (489, 384), (487, 385), (482, 387), (480, 387), (478, 387), (477, 387), (476, 387), (472, 387), (468, 388), (461, 388), (459, 389), (447, 391), (442, 392), (437, 392), (431, 393), (412, 396), (402, 396), (391, 396), (380, 396), (350, 396), (328, 396), (305, 396), (286, 396), (249, 397)]",177.17019240711284,"[2, 3, 4, 7, 5, 6, 8, 9, 1]","(0, 0.25)",DOT009B,DOT,B,Chinese,Mon Oct 15 17:24:29 2018,Mouse
2,3,2,0,19,5,5,1,200,40,160,141,0,500,200,8000,"[(512, 384), (512, 384), (512, 384), (504, 382), (495, 382), (490, 381), (483, 381), (468, 377), (467, 377), (465, 377), (459, 377), (446, 375), (436, 375), (427, 375), (414, 374), (385, 373), (365, 372), (338, 369), (307, 367), (220, 352)]",186.25403274391647,"[2, 3, 4, 7, 5, 6, 8, 9, 1]","(0, 0.25)",DOT009B,DOT,B,Chinese,Mon Oct 15 17:24:29 2018,Mouse
2,3,2,0,20,3,3,1,430,150,280,141,0,500,200,8000,"[(512, 384), (512, 384), (512, 384), (512, 384), (512, 384), (512, 384), (512, 384), (512, 384), (512, 384), (512, 384), (512, 384), (512, 384), (512, 384), (512, 384), (513, 386), (518, 397), (521, 402), (525, 407), (527, 409), (528, 414), (530, 415), (530, 416), (531, 418), (533, 421), (533, 422), (534, 424), (534, 426), (538, 434), (539, 437), (542, 442), (546, 449), (555, 463), (559, 469), (564, 477), (571, 486), (582, 507), (588, 517), (592, 527), (598, 537), (608, 559), (613, 572), (622, 587), (634, 609)]",61.53246683398573,"[2, 3, 4, 7, 5, 6, 8, 9, 1]","(0, 0.25)",DOT009B,DOT,B,Chinese,Mon Oct 15 17:24:29 2018,Mouse
2,3,2,0,21,6,6,1,409,189,220,140,0,500,200,8000,"[(512, 384), (512, 384), (512, 384), (512, 384), (512, 384), (512, 384), (512, 384), (512, 384), (512, 384), (512, 384), (512, 384), (512, 384), (512, 384), (512, 384), (512, 384), (512, 384), (512, 384), (512, 384), (511, 380), (503, 374), (485, 362), (479, 358), (471, 352), (463, 348), (449, 339), (445, 337), (442, 334), (437, 332), (425, 321), (414, 314), (407, 309), (401, 303), (386, 294), (381, 291), (375, 287), (371, 283), (363, 277), (356, 271), (347, 262), (337, 252), (310, 227)]",217.8553416294086,"[2, 3, 4, 7, 5, 6, 8, 9, 1]","(0, 0.25)",DOT009B,DOT,B,Chinese,Mon Oct 15 17:24:29 2018,Mouse
2,3,2,0,22,5,5,1,360,170,190,139,0,500,200,8000,"[(512, 384), (512, 384), (512, 384), (512, 384), (512, 384), (512, 384), (512, 384), (512, 384), (512, 384), (512, 384), (512, 384), (512, 384), (512, 384), (512, 384), (512, 384), (512, 384), (511, 384), (508, 385), (502, 387), (489, 388), (482, 389), (475, 393), (465, 393), (454, 395), (447, 396), (443, 397), (438, 397), (422, 397), (416, 397), (406, 398), (395, 398), (371, 398), (350, 398), (328, 398), (303, 398), (241, 398)]",177.04269938483603,"[2, 3, 4, 7, 5, 6, 8, 9, 1]","(0, 0.25)",DOT009B,DOT,B,Chinese,Mon Oct 15 17:24:29 2018,Mouse
2,3,2,0,23,2,2,1,490,320,170,138,0,500,200,8000,"[(512, 384), (512, 384), (512, 384), (512, 384), (512, 384), (512, 384), (512, 384), (512, 384), (512, 384), (512, 384), (512, 384), (512, 384), (512, 384), (512, 384), (512, 384), (512, 384), (512, 384), (512, 384), (512, 384), (512, 384), (512, 384), (512, 384), (512, 384), (512, 384), (512, 384), (512, 384), (512, 384), (512, 384), (512, 384), (512, 384), (512, 384), (514, 384), (519, 384), (530, 389), (536, 393), (554, 400), (564, 405), (575, 408), (586, 411), (613, 421), (626, 426), (640, 429), (651, 432), (678, 438), (690, 442), (702, 445), (714, 450), (744, 457), (762, 464)]",17.744671625056935,"[2, 3, 4, 7, 5, 6, 8, 9, 1]","(0, 0.25)",DOT009B,DOT,B,Chinese,Mon Oct 15 17:24:29 2018,Mouse
2,3,2,0,24,2,2,1,350,290,60,137,0,500,200,8000,"[(512, 384), (512, 384), (512, 384), (512, 384), (512, 384), (512, 384), (512, 384), (512, 384), (512, 384), (512, 384), (512, 384), (512, 384), (512, 384), (512, 384), (512, 384), (512, 384), (512, 384), (512, 384), (512, 384), (512, 384), (512, 384), (512, 384), (512, 384), (512, 384), (512, 384), (512, 384), (512, 384), (512, 384), (519, 384), (549, 391), (618, 418), (660, 433), (700, 451), (740, 466), (809, 494)]",20.323136829662943,"[2, 3, 4, 7, 5, 6, 8, 9, 1]","(0, 0.25)",DOT009B,DOT,B,Chinese,Mon Oct 15 17:24:29 2018,Mouse
2,3,2,0,25,2,2,1,300,250,50,136,0,500,200,8000,"[(512, 384), (512, 384), (512, 384), (512, 384), (512, 384), (512, 384), (512, 384), (512, 384), (512, 384), (512, 384), (512, 384), (512, 384), (512, 384), (512, 384), (512, 384), (512, 384), (512, 384), (512, 384), (512, 384), (512, 384), (512, 384), (512, 384), (512, 384), (512, 384), (522, 384), (558, 389), (600, 407), (690, 436), (734, 448), (776, 461)]",16.26020470831196,"[2, 3, 4, 7, 5, 6, 8, 9, 1]","(0, 0.25)",DOT009B,DOT,B,Chinese,Mon Oct 15 17:24:29 2018,Mouse
2,3,2,0,26,8,8,1,520,290,230,135,0,500,200,8000,"[(512, 384), (512, 384), (512, 384), (512, 384), (512, 384), (512, 384), (512, 384), (512, 384), (512, 384), (512, 384), (512, 384), (512, 384), (512, 384), (512, 384), (512, 384), (512, 384), (512, 384), (512, 384), (512, 384), (512, 384), (512, 384), (512, 384), (512, 384), (512, 384), (512, 384), (512, 384), (512, 384), (512, 384), (510, 380), (506, 367), (505, 364), (503, 361), (503, 359), (502, 354), (501, 351), (499, 346), (499, 343), (498, 332), (497, 326), (497, 321), (495, 315), (494, 306), (492, 301), (492, 298), (490, 293), (488, 275), (487, 261), (483, 249), (481, 227), (470, 181), (462, 150), (454, 123)]",257.4711922908485,"[2, 3, 4, 7, 5, 6, 8, 9, 1]","(0, 0.25)",DOT009B,DOT,B,Chinese,Mon Oct 15 17:24:29 2018,Mouse
2,3,2,0,27,9,9,1,329,199,130,134,0,500,200,8000,"[(512, 384), (512, 384), (512, 384), (512, 384), (512, 384), (512, 384), (512, 384), (512, 384), (512, 384), (512, 384), (512, 384), (512, 384), (512, 384), (512, 384), (512, 384), (512, 384), (512, 384), (512, 384), (512, 384), (516, 385), (519, 384), (526, 371), (532, 361), (540, 352), (547, 337), (568, 301), (575, 286), (583, 271), (594, 247), (608, 214), (615, 191), (625, 168), (633, 147)]",297.04651698291633,"[2, 3, 4, 7, 5, 6, 8, 9, 1]","(0, 0.25)",DOT009B,DOT,B,Chinese,Mon Oct 15 17:24:29 2018,Mouse
2,3,2,0,28,5,5,1,409,129,280,133,0,500,200,8000,"[(512, 384), (512, 384), (512, 384), (512, 384), (512, 384), (512, 384), (512, 384), (512, 384), (512, 384), (512, 384), (512, 384), (512, 384), (503, 384), (492, 380), (482, 379), (474, 378), (462, 375), (457, 374), (455, 374), (451, 373), (447, 372), (446, 372), (444, 372), (443, 372), (435, 371), (431, 370), (427, 369), (424, 369), (418, 369), (415, 369), (412, 369), (407, 368), (402, 368), (397, 368), (388, 368), (377, 368), (341, 368), (316, 368), (291, 368), (268, 368), (223, 368)]",183.16884970997316,"[2, 3, 4, 7, 5, 6, 8, 9, 1]","(0, 0.25)",DOT009B,DOT,B,Chinese,Mon Oct 15 17:24:29 2018,Mouse
2,3,2,0,29,4,5,0,-360,250,110,132,0,500,200,8000,"[(512, 384), (512, 384), (512, 384), (512, 384), (512, 384), (512, 384), (512, 384), (512, 384), (512, 384), (512, 384), (512, 384), (512, 384), (512, 384), (512, 384), (512, 384), (512, 384), (512, 384), (512, 384), (512, 384), (512, 384), (512, 384), (512, 384), (512, 384), (512, 384), (501, 384), (487, 384), (475, 384), (453, 384), (440, 384), (426, 384), (411, 384), (378, 384), (358, 384), (330, 384), (300, 384), (233, 384)]",180.0,"[2, 3, 4, 7, 5, 6, 8, 9, 1]","(0, 0.25)",DOT009B,DOT,B,Chinese,Mon Oct 15 17:24:29 2018,Mouse
2,3,2,0,30,5,5,1,341,291,50,133,0,500,200,8000,"[(512, 384), (512, 384), (512, 384), (512, 384), (512, 384), (512, 384), (512, 384), (512, 384), (512, 384), (512, 384), (512, 384), (512, 384), (512, 384), (512, 384), (512, 384), (512, 384), (512, 384), (512, 384), (512, 384), (512, 384), (512, 384), (512, 384), (512, 384), (512, 384), (512, 384), (512, 384), (512, 384), (512, 384), (499, 386), (470, 388), (427, 394), (331, 401), (281, 405), (225, 409)]",175.0216446606912,"[2, 3, 4, 7, 5, 6, 8, 9, 1]","(0, 0.25)",DOT009B,DOT,B,Chinese,Mon Oct 15 17:24:29 2018,Mouse
2,3,2,0,31,4,5,0,-310,280,30,133,0,500,200,8000,"[(512, 384), (512, 384), (512, 384), (512, 384), (512, 384), (512, 384), (512, 384), (512, 384), (512, 384), (512, 384), (512, 384), (512, 384), (512, 384), (512, 384), (512, 384), (512, 384), (512, 384), (512, 384), (512, 384), (512, 384), (512, 384), (512, 384), (512, 384), (512, 384), (512, 384), (512, 384), (512, 384), (491, 389), (440, 395), (320, 399), (259, 399)]",176.60698893091126,"[2, 3, 4, 7, 5, 6, 8, 9, 1]","(0, 0.25)",DOT009B,DOT,B,Chinese,Mon Oct 15 17:24:29 2018,Mouse
2,3,2,0,32,2,1,0,-420,370,50,134,0,500,200,8000,"[(512, 384), (512, 384), (512, 384), (512, 384), (512, 384), (512, 384), (512, 384), (512, 384), (512, 384), (512, 384), (512, 384), (512, 384), (512, 384), (512, 384), (512, 384), (512, 384), (512, 384), (512, 384), (512, 384), (512, 384), (512, 384), (512, 384), (512, 384), (512, 384), (512, 384), (512, 384), (512, 384), (512, 384), (512, 384), (512, 384), (512, 384), (512, 384), (512, 384), (512, 384), (512, 384), (512, 384), (513, 384), (520, 382), (573, 365), (630, 353), (699, 338), (776, 323)]",346.98953375357405,"[2, 3, 4, 7, 5, 6, 8, 9, 1]","(0, 0.25)",DOT009B,DOT,B,Chinese,Mon Oct 15 17:24:29 2018,Mouse
2,3,2,0,33,7,5,0,-550,360,190,135,0,500,200,8000,"[(512, 384), (512, 384), (512, 384), (512, 384), (512, 384), (512, 384), (512, 384), (512, 384), (512, 384), (512, 384), (512, 384), (512, 384), (512, 384), (512, 384), (512, 384), (512, 384), (512, 384), (512, 384), (512, 384), (512, 384), (512, 384), (512, 384), (512, 384), (512, 384), (512, 384), (512, 384), (512, 384), (512, 384), (512, 384), (512, 384), (512, 384), (512, 384), (512, 384), (512, 384), (512, 384), (512, 385), (512, 385), (512, 385), (512, 385), (508, 385), (508, 385), (506, 385), (503, 385), (494, 386), (490, 386), (483, 387), (477, 389), (461, 390), (451, 390), (436, 391), (421, 393), (362, 400), (322, 404), (271, 410), (223, 413)]",174.26977829885817,"[2, 3, 4, 7, 5, 6, 8, 9, 1]","(0, 0.25)",DOT009B,DOT,B,Chinese,Mon Oct 15 17:24:29 2018,Mouse
2,3,2,0,34,9,9,1,539,229,310,136,0,500,200,8000,"[(512, 384), (512, 384), (512, 384), (512, 384), (512, 384), (512, 384), (512, 384), (512, 384), (512, 384), (512, 384), (512, 384), (512, 384), (512, 384), (512, 384), (512, 384), (512, 384), (512, 384), (512, 384), (512, 384), (512, 384), (512, 384), (512, 384), (514, 384), (515, 380), (515, 373), (521, 359), (522, 349), (526, 340), (530, 332), (535, 320), (538, 315), (542, 309), (544, 304), (547, 299), (549, 298), (549, 298), (549, 297), (549, 297), (549, 297), (549, 297), (549, 297), (549, 297), (549, 297), (549, 297), (549, 297), (550, 296), (553, 292), (556, 284), (560, 276), (573, 254), (582, 237), (589, 222), (602, 198), (633, 148)]",297.14475260458187,"[2, 3, 4, 7, 5, 6, 8, 9, 1]","(0, 0.25)",DOT009B,DOT,B,Chinese,Mon Oct 15 17:24:29 2018,Mouse
2,3,2,0,35,2,2,1,559,319,240,136,0,500,200,8000,"[(512, 384), (512, 384), (512, 384), (512, 384), (512, 384), (512, 384), (512, 384), (512, 384), (512, 384), (512, 384), (512, 384), (512, 384), (512, 384), (512, 384), (512, 384), (512, 384), (512, 384), (512, 384), (512, 384), (512, 384), (512, 384), (512, 384), (512, 384), (512, 384), (512, 384), (512, 384), (512, 384), (512, 384), (512, 384), (512, 384), (512, 384), (525, 394), (537, 399), (549, 403), (558, 405), (568, 409), (572, 410), (573, 410), (573, 410), (573, 410), (573, 410), (573, 410), (573, 410), (573, 410), (573, 410), (573, 410), (573, 410), (576, 412), (586, 414), (599, 419), (610, 423), (647, 433), (667, 438), (689, 444), (714, 452), (760, 467)]",18.504230263778467,"[2, 3, 4, 7, 5, 6, 8, 9, 1]","(0, 0.25)",DOT009B,DOT,B,Chinese,Mon Oct 15 17:24:29 2018,Mouse
2,3,2,0,36,8,9,0,-1300,810,490,135,0,500,200,8000,"[(512, 384), (512, 384), (512, 384), (512, 384), (512, 384), (512, 384), (512, 384), (512, 384), (512, 384), (512, 384), (512, 384), (512, 384), (512, 384), (512, 384), (512, 384), (512, 384), (512, 384), (512, 384), (512, 384), (512, 384), (512, 384), (512, 384), (512, 384), (512, 384), (512, 384), (512, 384), (512, 384), (512, 384), (512, 384), (512, 384), (512, 384), (512, 384), (512, 384), (512, 384), (512, 384), (512, 384), (512, 384), (512, 384), (512, 384), (512, 384), (512, 384), (512, 384), (512, 384), (512, 384), (512, 384), (512, 384), (512, 384), (512, 384), (512, 384), (512, 384), (512, 384), (512, 384), (512, 384), (512, 384), (512, 384), (512, 384), (512, 384), (512, 384), (512, 384), (512, 384), (512, 384), (512, 384), (512, 384), (512, 384), (512, 384), (512, 384), (512, 384), (512, 384), (512, 384), (512, 384), (512, 384), (512, 384), (512, 384), (512, 384), (512, 384), (512, 384), (512, 384), (512, 384), (512, 384), (512, 384), (510, 383), (510, 382), (509, 380), (507, 377), (507, 377), (506, 375), (506, 375), (505, 373), (505, 373), (505, 373), (505, 373), (504, 372), (504, 371), (504, 370), (503, 369), (502, 368), (501, 367), (501, 367), (501, 366), (501, 364), (500, 362), (499, 361), (499, 359), (499, 356), (498, 353), (498, 352), (498, 350), (498, 347), (498, 344), (498, 342), (498, 339), (498, 335), (498, 332), (498, 328), (499, 325), (501, 319), (505, 313), (509, 308), (512, 303), (525, 289), (533, 280), (539, 270), (547, 261), (561, 242), (566, 234), (574, 224), (581, 215), (598, 188), (611, 170), (629, 150)]",296.565051177078,"[2, 3, 4, 7, 5, 6, 8, 9, 1]","(0, 0.25)",DOT009B,DOT,B,Chinese,Mon Oct 15 17:24:29 2018,Mouse
2,3,2,0,37,3,3,1,461,61,400,136,0,500,200,8000,"[(512, 384), (512, 384), (512, 384), (512, 384), (512, 384), (512, 384), (516, 405), (523, 416), (526, 426), (531, 438), (539, 450), (540, 453), (542, 458), (543, 460), (545, 465), (545, 465), (545, 465), (545, 465), (545, 465), (545, 465), (545, 465), (545, 465), (545, 465), (545, 465), (545, 465), (545, 465), (545, 465), (545, 465), (545, 465), (545, 465), (546, 466), (547, 467), (549, 472), (553, 478), (563, 495), (570, 503), (575, 510), (582, 521), (594, 537), (598, 544), (604, 554), (608, 562), (615, 575), (618, 583), (622, 591), (626, 601), (636, 625)]",62.77314581986668,"[2, 3, 4, 7, 5, 6, 8, 9, 1]","(0, 0.25)",DOT009B,DOT,B,Chinese,Mon Oct 15 17:24:29 2018,Mouse
2,3,2,0,38,1,1,1,279,99,180,136,0,500,200,8000,"[(512, 384), (512, 384), (512, 384), (512, 384), (512, 384), (512, 384), (512, 384), (512, 384), (512, 384), (512, 383), (522, 379), (533, 379), (544, 379), (555, 379), (564, 379), (579, 379), (584, 379), (587, 378), (587, 378), (593, 376), (600, 373), (608, 369), (620, 365), (652, 352), (667, 345), (691, 334), (735, 314), (760, 300)]",341.28826212490026,"[2, 3, 4, 7, 5, 6, 8, 9, 1]","(0, 0.25)",DOT009B,DOT,B,Chinese,Mon Oct 15 17:24:29 2018,Mouse
2,3,2,0,39,1,1,1,280,240,40,135,0,500,200,8000,"[(512, 384), (512, 384), (512, 384), (512, 384), (512, 384), (512, 384), (512, 384), (512, 384), (512, 384), (512, 384), (512, 384), (512, 384), (512, 384), (512, 384), (512, 384), (512, 384), (512, 384), (512, 384), (512, 384), (512, 384), (512, 384), (512, 384), (512, 384), (521, 384), (561, 378), (612, 371), (712, 355), (760, 351)]",352.4204902231097,"[2, 3, 4, 7, 5, 6, 8, 9, 1]","(0, 0.25)",DOT009B,DOT,B,Chinese,Mon Oct 15 17:24:29 2018,Mouse
2,3,2,0,40,1,1,1,358,318,40,134,0,500,200,8000,"[(512, 384), (512, 384), (512, 384), (512, 384), (512, 384), (512, 384), (512, 384), (512, 384), (512, 384), (512, 384), (512, 384), (512, 384), (512, 384), (512, 384), (512, 384), (512, 384), (512, 384), (512, 384), (512, 384), (512, 384), (512, 384), (512, 384), (512, 384), (512, 384), (512, 384), (512, 384), (512, 384), (512, 384), (512, 384), (512, 384), (512, 384), (514, 384), (543, 376), (589, 366), (648, 360), (787, 319)]",346.7014296695057,"[2, 3, 4, 7, 5, 6, 8, 9, 1]","(0, 0.25)",DOT009B,DOT,B,Chinese,Mon Oct 15 17:24:29 2018,Mouse
2,3,2,0,41,6,5,0,-839,689,150,133,0,500,200,8000,"[(512, 384), (512, 384), (512, 384), (512, 384), (512, 384), (512, 384), (512, 384), (512, 384), (512, 384), (512, 384), (512, 384), (512, 384), (512, 384), (512, 384), (512, 384), (512, 384), (512, 384), (512, 384), (512, 384), (512, 384), (512, 384), (512, 384), (512, 384), (512, 384), (512, 384), (512, 384), (512, 384), (512, 384), (512, 384), (512, 384), (512, 384), (512, 384), (512, 384), (512, 384), (512, 384), (512, 384), (512, 384), (512, 384), (512, 384), (512, 384), (512, 384), (512, 384), (512, 384), (512, 384), (512, 384), (512, 384), (512, 384), (512, 384), (512, 384), (512, 384), (512, 384), (512, 384), (512, 384), (512, 384), (512, 384), (512, 384), (512, 384), (512, 384), (512, 384), (512, 384), (512, 384), (512, 384), (512, 384), (512, 384), (512, 384), (512, 384), (512, 384), (512, 384), (511, 384), (509, 384), (506, 384), (498, 386), (489, 386), (484, 386), (476, 386), (463, 386), (454, 386), (448, 386), (438, 386), (402, 386), (385, 386), (355, 386), (319, 386), (235, 386)]",179.58631924978064,"[2, 3, 4, 7, 5, 6, 8, 9, 1]","(0, 0.25)",DOT009B,DOT,B,Chinese,Mon Oct 15 17:24:29 2018,Mouse
2,3,2,0,42,4,4,1,1450,610,840,134,0,500,200,8000,"[(512, 384), (512, 384), (512, 384), (512, 384), (512, 384), (512, 384), (512, 384), (512, 384), (512, 384), (512, 384), (512, 384), (512, 384), (512, 384), (512, 384), (512, 384), (512, 384), (512, 384), (512, 384), (512, 384), (512, 384), (512, 384), (512, 384), (512, 384), (512, 384), (512, 384), (512, 384), (512, 384), (512, 384), (512, 384), (512, 384), (512, 384), (512, 384), (512, 384), (512, 384), (512, 384), (512, 384), (512, 384), (512, 384), (512, 384), (512, 384), (512, 384), (512, 384), (512, 384), (512, 384), (512, 384), (512, 384), (512, 384), (512, 384), (512, 384), (512, 384), (512, 384), (512, 384), (512, 384), (512, 384), (512, 384), (512, 384), (512, 384), (512, 384), (512, 384), (512, 384), (512, 381), (505, 381), (498, 377), (489, 376), (486, 375), (484, 373), (482, 373), (481, 373), (481, 373), (481, 373), (481, 373), (481, 373), (481, 373), (481, 373), (481, 373), (481, 373), (481, 373), (481, 373), (481, 373), (481, 373), (481, 373), (481, 373), (481, 373), (481, 373), (481, 373), (481, 373), (481, 373), (481, 373), (481, 373), (481, 373), (481, 373), (481, 373), (481, 373), (481, 373), (481, 373), (481, 373), (481, 373), (481, 373), (481, 373), (481, 373), (481, 373), (481, 373), (481, 373), (481, 373), (481, 373), (481, 373), (481, 373), (481, 373), (481, 373), (481, 373), (480, 373), (480, 375), (480, 376), (480, 377), (480, 379), (480, 379), (480, 380), (480, 381), (480, 382), (480, 382), (480, 382), (480, 382), (480, 382), (480, 382), (480, 382), (480, 382), (480, 382), (480, 382), (480, 382), (480, 382), (480, 382), (480, 382), (480, 384), (480, 385), (480, 389), (477, 398), (474, 408), (472, 415), (471, 427), (467, 465), (467, 490), (467, 521), (467, 551), (471, 630), (479, 668)]",96.62788540132345,"[2, 3, 4, 7, 5, 6, 8, 9, 1]","(0, 0.25)",DOT009B,DOT,B,Chinese,Mon Oct 15 17:24:29 2018,Mouse
2,3,2,0,43,2,1,0,-401,351,50,134,0,500,200,8000,"[(512, 384), (512, 384), (512, 384), (512, 384), (512, 384), (512, 384), (512, 384), (512, 384), (512, 384), (512, 384), (512, 384), (512, 384), (512, 384), (512, 384), (512, 384), (512, 384), (512, 384), (512, 384), (512, 384), (512, 384), (512, 384), (512, 384), (512, 384), (512, 384), (512, 384), (512, 384), (512, 384), (512, 384), (512, 384), (512, 384), (512, 384), (512, 384), (512, 384), (512, 384), (512, 384), (541, 372), (561, 365), (595, 353), (640, 335), (726, 310), (765, 299)]",341.42927944184436,"[2, 3, 4, 7, 5, 6, 8, 9, 1]","(0, 0.25)",DOT009B,DOT,B,Chinese,Mon Oct 15 17:24:29 2018,Mouse
2,3,2,0,44,7,5,0,-338,188,150,135,0,500,200,8000,"[(512, 384), (512, 384), (512, 384), (512, 384), (512, 384), (512, 384), (512, 384), (512, 384), (512, 384), (512, 384), (512, 384), (512, 384), (512, 384), (512, 384), (512, 384), (512, 384), (512, 384), (512, 384), (511, 385), (501, 385), (489, 385), (463, 385), (451, 385), (440, 385), (431, 385), (422, 385), (419, 385), (415, 385), (410, 385), (392, 388), (377, 389), (353, 395), (321, 396), (239, 405)]",175.6012946450045,"[2, 3, 4, 7, 5, 6, 8, 9, 1]","(0, 0.25)",DOT009B,DOT,B,Chinese,Mon Oct 15 17:24:29 2018,Mouse
2,3,2,0,45,7,7,1,1040,600,440,136,0,500,200,8000,"[(512, 384), (512, 384), (512, 384), (512, 384), (512, 384), (512, 384), (512, 384), (512, 384), (512, 384), (512, 384), (512, 384), (512, 384), (512, 384), (512, 384), (512, 384), (512, 384), (512, 384), (512, 384), (512, 384), (512, 384), (512, 384), (512, 384), (512, 384), (512, 384), (512, 384), (512, 384), (512, 384), (512, 384), (512, 384), (512, 384), (512, 384), (512, 384), (512, 384), (512, 384), (512, 384), (512, 384), (512, 384), (512, 384), (512, 384), (512, 384), (512, 384), (512, 384), (512, 384), (512, 384), (512, 384), (512, 384), (512, 384), (512, 384), (512, 384), (512, 384), (512, 384), (512, 384), (512, 384), (512, 384), (512, 384), (512, 384), (512, 384), (512, 384), (512, 384), (507, 384), (505, 384), (503, 384), (501, 384), (499, 384), (499, 384), (499, 384), (499, 384), (499, 384), (499, 384), (499, 384), (499, 384), (499, 384), (499, 384), (499, 384), (499, 384), (499, 384), (499, 384), (499, 384), (499, 384), (499, 384), (499, 384), (498, 384), (498, 384), (498, 384), (498, 384), (498, 384), (498, 384), (498, 384), (498, 384), (493, 386), (487, 390), (472, 397), (465, 402), (456, 407), (450, 412), (435, 424), (424, 435), (416, 444), (410, 455), (391, 480), (380, 494), (371, 508), (359, 523), (325, 562)]",136.4124864308359,"[2, 3, 4, 7, 5, 6, 8, 9, 1]","(0, 0.25)",DOT009B,DOT,B,Chinese,Mon Oct 15 17:24:29 2018,Mouse
2,3,2,0,46,5,5,1,298,228,70,136,0,500,200,8000,"[(512, 384), (512, 384), (512, 384), (512, 384), (512, 384), (512, 384), (512, 384), (512, 384), (512, 384), (512, 384), (512, 384), (512, 384), (512, 384), (512, 384), (512, 384), (512, 384), (512, 384), (512, 384), (512, 384), (512, 384), (512, 384), (512, 384), (513, 384), (513, 384), (487, 383), (443, 383), (404, 383), (360, 383), (263, 383), (202, 383)]",180.1848244541215,"[2, 3, 4, 7, 5, 6, 8, 9, 1]","(0, 0.25)",DOT009B,DOT,B,Chinese,Mon Oct 15 17:24:29 2018,Mouse
2,3,2,0,47,7,5,0,-510,160,350,135,0,500,200,8000,"[(512, 384), (512, 384), (512, 384), (512, 384), (512, 384), (512, 384), (512, 384), (512, 384), (512, 384), (512, 384), (512, 384), (512, 384), (512, 384), (512, 384), (512, 384), (509, 384), (500, 384), (493, 384), (477, 386), (468, 388), (458, 389), (450, 389), (436, 389), (432, 389), (427, 389), (423, 389), (416, 389), (413, 391), (408, 391), (407, 391), (403, 391), (401, 392), (401, 392), (401, 392), (401, 392), (401, 392), (401, 392), (401, 392), (401, 392), (401, 392), (401, 392), (401, 392), (401, 392), (401, 392), (401, 392), (400, 392), (374, 392), (351, 392), (318, 391), (284, 391), (195, 389)]",179.09635601248706,"[2, 3, 4, 7, 5, 6, 8, 9, 1]","(0, 0.25)",DOT009B,DOT,B,Chinese,Mon Oct 15 17:24:29 2018,Mouse
2,3,2,0,48,7,5,0,-210,170,40,136,0,500,200,8000,"[(512, 384), (512, 384), (512, 384), (512, 384), (512, 384), (512, 384), (512, 384), (512, 384), (512, 384), (512, 384), (512, 384), (512, 384), (512, 384), (512, 384), (512, 384), (512, 384), (504, 384), (471, 384), (418, 384), (302, 384), (235, 384)]",180.0,"[2, 3, 4, 7, 5, 6, 8, 9, 1]","(0, 0.25)",DOT009B,DOT,B,Chinese,Mon Oct 15 17:24:29 2018,Mouse
2,3,2,0,49,3,3,1,691,551,140,137,0,500,200,8000,"[(512, 384), (512, 384), (512, 384), (512, 384), (512, 384), (512, 384), (512, 384), (512, 384), (512, 384), (512, 384), (512, 384), (512, 384), (512, 384), (512, 384), (512, 384), (512, 384), (512, 384), (512, 384), (512, 384), (512, 384), (512, 384), (512, 384), (512, 384), (512, 384), (512, 384), (512, 384), (512, 384), (512, 384), (512, 384), (512, 384), (512, 384), (512, 384), (512, 384), (512, 384), (512, 384), (512, 384), (512, 384), (512, 384), (512, 384), (512, 384), (512, 384), (512, 384), (512, 384), (512, 384), (512, 384), (512, 384), (512, 384), (512, 384), (512, 384), (512, 384), (512, 384), (512, 384), (512, 384), (512, 384), (512, 384), (521, 393), (527, 403), (532, 412), (543, 430), (549, 438), (553, 446), (557, 453), (567, 471), (573, 481), (575, 491), (581, 503), (589, 524), (604, 567), (616, 596), (625, 622)]",64.60210374396176,"[2, 3, 4, 7, 5, 6, 8, 9, 1]","(0, 0.25)",DOT009B,DOT,B,Chinese,Mon Oct 15 17:24:29 2018,Mouse
2,3,2,0,50,3,1,0,-250,120,130,137,0,500,200,8000,"[(512, 384), (512, 384), (512, 384), (512, 384), (512, 384), (512, 384), (512, 384), (512, 384), (512, 384), (512, 384), (512, 384), (513, 384), (538, 380), (556, 375), (575, 371), (597, 367), (635, 357), (652, 354), (666, 350), (682, 345), (706, 332), (718, 325), (728, 320), (739, 313), (768, 295)]",340.82967315283696,"[2, 3, 4, 7, 5, 6, 8, 9, 1]","(0, 0.25)",DOT009B,DOT,B,Chinese,Mon Oct 15 17:24:29 2018,Mouse
2,3,2,0,51,9,9,1,400,200,200,138,0,500,200,8000,"[(512, 384), (512, 384), (512, 384), (512, 384), (512, 384), (512, 384), (512, 384), (512, 384), (512, 384), (512, 384), (512, 384), (512, 384), (512, 384), (512, 384), (512, 384), (512, 384), (512, 384), (512, 384), (512, 384), (512, 385), (512, 385), (512, 382), (515, 379), (519, 371), (523, 366), (528, 359), (532, 355), (540, 342), (544, 336), (550, 329), (556, 319), (569, 298), (577, 283), (584, 272), (595, 251), (610, 218), (616, 202), (621, 190), (626, 177), (634, 155)]",298.0465083479651,"[2, 3, 4, 7, 5, 6, 8, 9, 1]","(0, 0.25)",DOT009B,DOT,B,Chinese,Mon Oct 15 17:24:29 2018,Mouse
2,3,2,0,52,9,8,0,-2039,1259,780,138,0,500,200,8000,"[(512, 384), (512, 384), (512, 384), (512, 384), (512, 384), (512, 384), (512, 384), (512, 384), (512, 384), (512, 384), (512, 384), (512, 384), (512, 384), (512, 384), (512, 384), (512, 384), (512, 384), (512, 384), (512, 384), (512, 384), (512, 384), (512, 384), (512, 384), (512, 384), (512, 384), (512, 384), (512, 384), (512, 384), (512, 384), (512, 384), (512, 384), (512, 384), (512, 384), (512, 384), (512, 384), (512, 384), (512, 384), (512, 384), (512, 384), (512, 384), (512, 384), (512, 384), (512, 384), (512, 384), (512, 384), (512, 384), (512, 384), (512, 384), (512, 384), (512, 384), (512, 384), (512, 384), (512, 384), (512, 384), (512, 384), (512, 384), (512, 384), (512, 384), (512, 384), (512, 384), (512, 384), (512, 384), (512, 384), (512, 384), (512, 384), (512, 384), (512, 384), (512, 384), (512, 384), (512, 384), (512, 384), (512, 384), (512, 384), (512, 384), (512, 384), (512, 384), (512, 384), (512, 384), (512, 384), (512, 384), (512, 384), (512, 384), (512, 384), (512, 384), (512, 384), (512, 384), (512, 384), (512, 384), (512, 384), (512, 384), (512, 384), (512, 384), (512, 384), (512, 384), (512, 384), (512, 384), (512, 384), (512, 384), (512, 384), (512, 384), (512, 384), (512, 384), (512, 384), (512, 384), (512, 384), (512, 384), (512, 384), (512, 384), (512, 384), (512, 384), (512, 384), (512, 384), (512, 384), (512, 384), (512, 384), (512, 384), (512, 384), (512, 384), (512, 384), (512, 384), (512, 384), (512, 384), (512, 384), (512, 384), (512, 384), (507, 381), (491, 371), (485, 368), (478, 363), (477, 362), (477, 362), (477, 362), (477, 362), (477, 362), (477, 362), (477, 362), (477, 362), (477, 362), (477, 362), (477, 362), (477, 362), (477, 362), (477, 362), (477, 362), (477, 362), (477, 362), (477, 362), (477, 362), (477, 362), (477, 362), (477, 362), (477, 362), (477, 362), (477, 362), (477, 362), (477, 362), (477, 362), (477, 362), (477, 362), (477, 362), (477, 362), (477, 362), (477, 362), (477, 362), (477, 362), (477, 362), (477, 362), (477, 362), (477, 362), (477, 359), (478, 353), (481, 349), (485, 342), (485, 341), (486, 340), (487, 339), (487, 339), (487, 339), (487, 338), (487, 338), (487, 338), (487, 338), (487, 338), (487, 338), (487, 338), (487, 338), (487, 338), (487, 338), (487, 338), (487, 338), (487, 338), (487, 338), (487, 338), (487, 338), (487, 338), (487, 338), (487, 338), (487, 334), (487, 313), (487, 291), (487, 240), (487, 210), (487, 176), (490, 134)]",264.97092641821456,"[2, 3, 4, 7, 5, 6, 8, 9, 1]","(0, 0.25)",DOT009B,DOT,B,Chinese,Mon Oct 15 17:24:29 2018,Mouse
2,3,2,0,53,9,9,1,359,99,260,139,0,500,200,8000,"[(512, 384), (512, 384), (512, 384), (512, 384), (512, 384), (512, 384), (512, 384), (512, 384), (512, 384), (515, 384), (519, 382), (522, 381), (531, 369), (537, 362), (543, 355), (549, 349), (557, 341), (561, 335), (565, 330), (572, 322), (579, 311), (583, 307), (587, 302), (590, 299), (597, 285), (602, 277), (606, 269), (610, 258), (618, 238), (623, 229), (627, 219), (631, 208), (641, 192), (645, 184), (650, 178), (652, 172)]",303.4398692057822,"[2, 3, 4, 7, 5, 6, 8, 9, 1]","(0, 0.25)",DOT009B,DOT,B,Chinese,Mon Oct 15 17:24:29 2018,Mouse
2,3,2,0,54,3,3,1,429,179,250,139,0,500,200,8000,"[(512, 384), (512, 384), (512, 384), (512, 384), (512, 384), (512, 384), (512, 384), (512, 384), (512, 384), (512, 384), (512, 384), (512, 384), (512, 384), (512, 384), (512, 384), (512, 384), (512, 384), (511, 390), (513, 398), (519, 408), (527, 426), (533, 436), (536, 442), (539, 450), (545, 462), (549, 469), (551, 474), (554, 479), (559, 489), (561, 495), (564, 499), (568, 507), (576, 519), (582, 525), (584, 530), (591, 539), (603, 553), (608, 559), (611, 565), (613, 569), (624, 586), (629, 598), (635, 608)]",61.22849703057867,"[2, 3, 4, 7, 5, 6, 8, 9, 1]","(0, 0.25)",DOT009B,DOT,B,Chinese,Mon Oct 15 17:24:29 2018,Mouse
2,3,2,0,55,3,3,1,400,150,250,138,0,500,200,8000,"[(512, 384), (512, 384), (512, 384), (512, 384), (512, 384), (512, 384), (512, 384), (512, 384), (512, 384), (512, 384), (512, 384), (512, 384), (512, 384), (512, 384), (513, 388), (516, 396), (522, 411), (525, 416), (528, 422), (529, 428), (536, 440), (539, 446), (543, 451), (545, 456), (551, 464), (552, 466), (555, 471), (556, 475), (567, 489), (571, 497), (574, 503), (579, 510), (590, 526), (596, 538), (601, 548), (606, 555), (616, 575), (622, 586), (628, 597), (635, 610)]",61.44285524995557,"[2, 3, 4, 7, 5, 6, 8, 9, 1]","(0, 0.25)",DOT009B,DOT,B,Chinese,Mon Oct 15 17:24:29 2018,Mouse
2,3,2,0,56,7,5,0,-360,170,190,137,0,500,200,8000,"[(512, 384), (512, 384), (512, 384), (512, 384), (512, 384), (512, 384), (512, 384), (512, 384), (512, 384), (512, 384), (512, 384), (512, 384), (512, 384), (512, 384), (512, 384), (512, 384), (504, 383), (489, 384), (475, 386), (459, 387), (430, 387), (415, 389), (404, 390), (392, 390), (383, 390), (381, 390), (379, 390), (376, 391), (364, 391), (357, 391), (346, 391), (334, 391), (306, 391), (285, 391), (270, 391), (253, 389)]",178.8940412477115,"[2, 3, 4, 7, 5, 6, 8, 9, 1]","(0, 0.25)",DOT009B,DOT,B,Chinese,Mon Oct 15 17:24:29 2018,Mouse
2,3,2,0,57,3,3,1,730,380,350,138,0,500,200,8000,"[(512, 384), (512, 384), (512, 384), (512, 384), (512, 384), (512, 384), (512, 384), (512, 384), (512, 384), (512, 384), (512, 384), (512, 384), (512, 384), (512, 384), (512, 384), (512, 384), (512, 384), (512, 384), (512, 384), (512, 384), (512, 384), (512, 384), (512, 384), (512, 384), (512, 384), (512, 384), (512, 384), (512, 384), (512, 384), (512, 384), (512, 384), (512, 384), (512, 384), (512, 384), (512, 384), (512, 384), (512, 384), (515, 388), (516, 393), (519, 399), (522, 407), (523, 410), (524, 413), (525, 415), (527, 419), (530, 420), (530, 421), (532, 424), (533, 429), (536, 431), (537, 435), (540, 438), (543, 444), (546, 448), (548, 452), (549, 454), (554, 463), (555, 465), (558, 470), (559, 475), (564, 484), (567, 490), (569, 493), (573, 500), (582, 517), (589, 528), (594, 539), (599, 548), (610, 569), (616, 581), (622, 591), (629, 602), (636, 618)]",62.08023357189139,"[2, 3, 4, 7, 5, 6, 8, 9, 1]","(0, 0.25)",DOT009B,DOT,B,Chinese,Mon Oct 15 17:24:29 2018,Mouse
2,3,2,0,58,5,5,1,280,230,50,138,0,500,200,8000,"[(512, 384), (512, 384), (512, 384), (512, 384), (512, 384), (512, 384), (512, 384), (512, 384), (512, 384), (512, 384), (512, 384), (512, 384), (512, 384), (512, 384), (512, 384), (512, 384), (512, 384), (512, 384), (512, 384), (512, 384), (512, 384), (512, 384), (510, 384), (445, 384), (400, 385), (350, 385), (305, 391), (230, 391)]",178.57805634155758,"[2, 3, 4, 7, 5, 6, 8, 9, 1]","(0, 0.25)",DOT009B,DOT,B,Chinese,Mon Oct 15 17:24:29 2018,Mouse
2,3,2,0,59,7,6,0,-928,878,50,137,0,500,200,8000,"[(512, 384), (512, 384), (512, 384), (512, 384), (512, 384), (512, 384), (512, 384), (512, 384), (512, 384), (512, 384), (512, 384), (512, 384), (512, 384), (512, 384), (512, 384), (512, 384), (512, 384), (512, 384), (512, 384), (512, 384), (512, 384), (512, 384), (512, 384), (512, 384), (512, 384), (512, 384), (512, 384), (512, 384), (512, 384), (512, 384), (512, 384), (512, 384), (512, 384), (512, 384), (512, 384), (512, 384), (512, 384), (512, 384), (512, 384), (512, 384), (512, 384), (512, 384), (512, 384), (512, 384), (512, 384), (512, 384), (512, 384), (512, 384), (512, 384), (512, 384), (512, 384), (512, 384), (512, 384), (512, 384), (512, 384), (512, 384), (512, 384), (512, 384), (512, 384), (512, 384), (512, 384), (512, 384), (512, 384), (512, 384), (512, 384), (512, 384), (512, 384), (512, 384), (512, 384), (512, 384), (512, 384), (512, 384), (512, 384), (512, 384), (512, 384), (512, 384), (512, 384), (512, 384), (512, 384), (512, 384), (512, 384), (512, 384), (512, 384), (512, 384), (512, 384), (512, 384), (512, 384), (508, 376), (452, 338), (426, 316), (398, 296), (359, 269), (289, 220)]",216.33173057285066,"[2, 3, 4, 7, 5, 6, 8, 9, 1]","(0, 0.25)",DOT009B,DOT,B,Chinese,Mon Oct 15 17:24:29 2018,Mouse
2,3,2,0,60,1,1,1,388,338,50,138,0,500,200,8000,"[(512, 384), (512, 384), (512, 384), (512, 384), (512, 384), (512, 384), (512, 384), (512, 384), (512, 384), (512, 384), (512, 384), (512, 384), (512, 384), (512, 384), (512, 384), (512, 384), (512, 384), (512, 384), (512, 384), (512, 384), (512, 384), (512, 384), (512, 384), (512, 384), (512, 384), (512, 384), (512, 384), (512, 384), (512, 384), (512, 384), (512, 384), (512, 384), (512, 384), (513, 384), (576, 364), (623, 349), (676, 334), (733, 320), (795, 314)]",346.1067573487396,"[2, 3, 4, 7, 5, 6, 8, 9, 1]","(0, 0.25)",DOT009B,DOT,B,Chinese,Mon Oct 15 17:24:29 2018,Mouse
2,3,2,0,61,1,1,1,130,90,40,138,0,500,200,8000,"[(512, 384), (512, 384), (512, 384), (512, 384), (512, 384), (512, 384), (512, 384), (512, 384), (520, 383), (543, 377), (592, 369), (717, 350), (781, 334)]",349.47039190084945,"[2, 3, 4, 7, 5, 6, 8, 9, 1]","(0, 0.25)",DOT009B,DOT,B,Chinese,Mon Oct 15 17:24:29 2018,Mouse
2,3,2,0,62,5,5,1,300,260,40,137,0,500,200,8000,"[(512, 384), (512, 384), (512, 384), (512, 384), (512, 384), (512, 384), (512, 384), (512, 384), (512, 384), (512, 384), (512, 384), (512, 384), (512, 384), (512, 384), (512, 384), (512, 384), (512, 384), (512, 384), (512, 384), (512, 384), (512, 384), (512, 384), (512, 384), (512, 384), (512, 384), (498, 384), (412, 374), (364, 370), (308, 366), (246, 360)]",185.15558431740624,"[2, 3, 4, 7, 5, 6, 8, 9, 1]","(0, 0.25)",DOT009B,DOT,B,Chinese,Mon Oct 15 17:24:29 2018,Mouse
2,3,2,0,63,8,8,1,940,890,50,136,0,500,200,8000,"[(512, 384), (512, 384), (512, 384), (512, 384), (512, 384), (512, 384), (512, 384), (512, 384), (512, 384), (512, 384), (512, 384), (512, 384), (512, 384), (512, 384), (512, 384), (512, 384), (512, 384), (512, 384), (512, 384), (512, 384), (512, 384), (512, 384), (512, 384), (512, 384), (512, 384), (512, 384), (512, 384), (512, 384), (512, 384), (512, 384), (512, 384), (512, 384), (512, 384), (512, 384), (512, 384), (512, 384), (512, 384), (512, 384), (512, 384), (512, 384), (512, 384), (512, 384), (512, 384), (512, 384), (512, 384), (512, 384), (512, 384), (512, 384), (512, 384), (512, 384), (512, 384), (512, 384), (512, 384), (512, 384), (512, 384), (512, 384), (512, 384), (512, 384), (512, 384), (512, 384), (512, 384), (512, 384), (512, 384), (512, 384), (512, 384), (512, 384), (512, 384), (512, 384), (512, 384), (512, 384), (512, 384), (512, 384), (512, 384), (512, 384), (512, 384), (512, 384), (512, 384), (512, 384), (512, 384), (512, 384), (512, 384), (512, 384), (512, 384), (512, 384), (512, 384), (512, 384), (512, 384), (512, 384), (513, 383), (510, 360), (504, 317), (496, 260), (480, 141), (470, 81)]",262.1082975717643,"[2, 3, 4, 7, 5, 6, 8, 9, 1]","(0, 0.25)",DOT009B,DOT,B,Chinese,Mon Oct 15 17:24:29 2018,Mouse
2,3,2,0,64,3,3,1,309,149,160,135,0,500,200,8000,"[(512, 384), (512, 384), (512, 384), (512, 384), (512, 384), (512, 384), (512, 384), (512, 384), (512, 384), (512, 384), (512, 384), (512, 384), (512, 384), (512, 384), (513, 388), (516, 393), (518, 399), (521, 404), (527, 416), (529, 419), (530, 423), (533, 427), (539, 438), (542, 444), (548, 453), (554, 465), (580, 499), (595, 517), (611, 539), (629, 562), (667, 609)]",55.43747535111818,"[2, 3, 4, 7, 5, 6, 8, 9, 1]","(0, 0.25)",DOT009B,DOT,B,Chinese,Mon Oct 15 17:24:29 2018,Mouse
2,3,2,0,65,4,4,1,1281,941,340,134,0,500,200,8000,"[(512, 384), (512, 384), (512, 384), (512, 384), (512, 384), (512, 384), (512, 384), (512, 384), (512, 384), (512, 384), (512, 384), (512, 384), (512, 384), (512, 384), (512, 384), (512, 384), (512, 384), (512, 384), (512, 384), (512, 384), (512, 384), (512, 384), (512, 384), (512, 384), (512, 384), (512, 384), (512, 384), (512, 384), (512, 384), (512, 384), (512, 384), (512, 384), (512, 384), (512, 384), (512, 384), (512, 384), (512, 384), (512, 384), (512, 384), (512, 384), (512, 384), (512, 384), (512, 384), (512, 384), (512, 384), (512, 384), (512, 384), (512, 384), (512, 384), (512, 384), (512, 384), (512, 384), (512, 384), (512, 384), (512, 384), (512, 384), (512, 384), (512, 384), (512, 384), (512, 384), (512, 384), (512, 384), (512, 384), (512, 384), (512, 384), (512, 384), (512, 384), (512, 384), (512, 384), (512, 384), (512, 384), (512, 384), (512, 384), (512, 384), (512, 384), (512, 384), (512, 384), (512, 384), (512, 384), (512, 384), (512, 384), (512, 384), (512, 384), (512, 384), (512, 384), (512, 384), (512, 384), (512, 384), (512, 384), (512, 384), (512, 384), (512, 384), (512, 384), (512, 384), (509, 384), (509, 384), (506, 386), (505, 387), (500, 398), (500, 401), (499, 407), (499, 409), (497, 417), (497, 421), (496, 424), (496, 428), (496, 434), (496, 436), (496, 437), (495, 439), (495, 439), (495, 439), (495, 439), (495, 439), (495, 440), (495, 440), (495, 440), (495, 442), (495, 447), (493, 450), (493, 456), (492, 465), (491, 487), (491, 499), (490, 518), (487, 542), (479, 598), (477, 626), (471, 651)]",98.73003623440992,"[2, 3, 4, 7, 5, 6, 8, 9, 1]","(0, 0.25)",DOT009B,DOT,B,Chinese,Mon Oct 15 17:24:29 2018,Mouse
2,3,2,0,66,9,1,0,-440,400,40,133,0,500,200,8000,"[(512, 384), (512, 384), (512, 384), (512, 384), (512, 384), (512, 384), (512, 384), (512, 384), (512, 384), (512, 384), (512, 384), (512, 384), (512, 384), (512, 384), (512, 384), (512, 384), (512, 384), (512, 384), (512, 384), (512, 384), (512, 384), (512, 384), (512, 384), (512, 384), (512, 384), (512, 384), (512, 384), (512, 384), (512, 384), (512, 384), (512, 384), (512, 384), (512, 384), (512, 384), (512, 384), (512, 384), (512, 384), (512, 384), (512, 384), (512, 383), (526, 371), (615, 342), (679, 323), (750, 305)]",341.6373030675476,"[2, 3, 4, 7, 5, 6, 8, 9, 1]","(0, 0.25)",DOT009B,DOT,B,Chinese,Mon Oct 15 17:24:29 2018,Mouse
2,3,2,0,67,4,4,1,762,152,610,134,0,500,200,8000,"[(512, 384), (512, 384), (512, 384), (512, 384), (512, 384), (512, 384), (512, 384), (512, 384), (512, 384), (512, 384), (512, 384), (512, 384), (512, 384), (512, 384), (512, 384), (503, 386), (488, 387), (475, 387), (464, 387), (455, 387), (454, 387), (454, 387), (454, 387), (454, 387), (454, 387), (454, 387), (454, 387), (454, 387), (454, 387), (454, 387), (454, 387), (454, 387), (454, 387), (454, 387), (454, 387), (454, 387), (454, 387), (454, 387), (454, 387), (454, 387), (454, 387), (454, 387), (454, 387), (448, 386), (445, 384), (442, 381), (440, 380), (439, 378), (438, 377), (437, 377), (437, 377), (437, 377), (437, 377), (437, 377), (437, 377), (437, 377), (437, 377), (437, 377), (437, 377), (437, 377), (437, 377), (437, 377), (437, 377), (437, 380), (437, 387), (437, 395), (437, 402), (439, 418), (440, 428), (443, 441), (445, 454), (452, 495), (456, 517), (460, 543), (463, 569), (463, 617), (463, 639)]",100.87719312315197,"[2, 3, 4, 7, 5, 6, 8, 9, 1]","(0, 0.25)",DOT009B,DOT,B,Chinese,Mon Oct 15 17:24:29 2018,Mouse
2,3,2,0,68,4,4,1,325,145,180,134,0,500,200,8000,"[(512, 384), (512, 384), (512, 384), (512, 384), (512, 384), (512, 384), (512, 384), (512, 384), (512, 384), (512, 384), (512, 384), (512, 384), (512, 384), (512, 384), (509, 400), (507, 407), (504, 417), (501, 426), (496, 443), (493, 452), (491, 461), (489, 469), (486, 481), (484, 487), (483, 495), (482, 506), (478, 527), (477, 540), (475, 556), (471, 572), (464, 602), (459, 626), (456, 642)]",102.24633285968041,"[2, 3, 4, 7, 5, 6, 8, 9, 1]","(0, 0.25)",DOT009B,DOT,B,Chinese,Mon Oct 15 17:24:29 2018,Mouse
2,3,2,0,69,3,3,1,582,442,140,133,0,500,200,8000,"[(512, 384), (512, 384), (512, 384), (512, 384), (512, 384), (512, 384), (512, 384), (512, 384), (512, 384), (512, 384), (512, 384), (512, 384), (512, 384), (512, 384), (512, 384), (512, 384), (512, 384), (512, 384), (512, 384), (512, 384), (512, 384), (512, 384), (512, 384), (512, 384), (512, 384), (512, 384), (512, 384), (512, 384), (512, 384), (512, 384), (512, 384), (512, 384), (512, 384), (512, 384), (512, 384), (512, 384), (512, 384), (512, 384), (512, 384), (512, 384), (512, 384), (512, 384), (512, 384), (512, 384), (513, 384), (518, 388), (523, 396), (538, 423), (543, 433), (550, 446), (555, 456), (566, 480), (572, 495), (580, 510), (589, 529), (610, 573), (617, 589), (623, 606), (634, 630)]",63.62157936648758,"[2, 3, 4, 7, 5, 6, 8, 9, 1]","(0, 0.25)",DOT009B,DOT,B,Chinese,Mon Oct 15 17:24:29 2018,Mouse
2,3,2,0,70,2,2,1,506,456,50,132,0,500,200,8000,"[(512, 384), (512, 384), (512, 384), (512, 384), (512, 384), (512, 384), (512, 384), (512, 384), (512, 384), (512, 384), (512, 384), (512, 384), (512, 384), (512, 384), (512, 384), (512, 384), (512, 384), (512, 384), (512, 384), (512, 384), (512, 384), (512, 384), (512, 384), (512, 384), (512, 384), (512, 384), (512, 384), (512, 384), (512, 384), (512, 384), (512, 384), (512, 384), (512, 384), (512, 384), (512, 384), (512, 384), (512, 384), (512, 384), (512, 384), (512, 384), (512, 384), (512, 384), (512, 384), (512, 384), (512, 384), (559, 392), (600, 401), (639, 412), (681, 426), (748, 445), (792, 456)]",14.420773127510985,"[2, 3, 4, 7, 5, 6, 8, 9, 1]","(0, 0.25)",DOT009B,DOT,B,Chinese,Mon Oct 15 17:24:29 2018,Mouse
2,3,2,0,71,7,4,0,-1319,1269,50,131,0,500,200,8000,"[(512, 384), (512, 384), (512, 384), (512, 384), (512, 384), (512, 384), (512, 384), (512, 384), (512, 384), (512, 384), (512, 384), (512, 384), (512, 384), (512, 384), (512, 384), (512, 384), (512, 384), (512, 384), (512, 384), (512, 384), (512, 384), (512, 384), (512, 384), (512, 384), (512, 384), (512, 384), (512, 384), (512, 384), (512, 384), (512, 384), (512, 384), (512, 384), (512, 384), (512, 384), (512, 384), (512, 384), (512, 384), (512, 384), (512, 384), (512, 384), (512, 384), (512, 384), (512, 384), (512, 384), (512, 384), (512, 384), (512, 384), (512, 384), (512, 384), (512, 384), (512, 384), (512, 384), (512, 384), (512, 384), (512, 384), (512, 384), (512, 384), (512, 384), (512, 384), (512, 384), (512, 384), (512, 384), (512, 384), (512, 384), (512, 384), (512, 384), (512, 384), (512, 384), (512, 384), (512, 384), (512, 384), (512, 384), (512, 384), (512, 384), (512, 384), (512, 384), (512, 384), (512, 384), (512, 384), (512, 384), (512, 384), (512, 384), (512, 384), (512, 384), (512, 384), (512, 384), (512, 384), (512, 384), (512, 384), (512, 384), (512, 384), (512, 384), (512, 384), (512, 384), (512, 384), (512, 384), (512, 384), (512, 384), (512, 384), (512, 384), (512, 384), (512, 384), (512, 384), (512, 384), (512, 384), (512, 384), (512, 384), (512, 384), (512, 384), (512, 384), (512, 384), (512, 384), (512, 384), (512, 384), (512, 384), (512, 384), (512, 384), (512, 384), (512, 384), (512, 384), (512, 384), (512, 384), (512, 384), (512, 384), (512, 384), (512, 384), (508, 388), (491, 434), (474, 472), (459, 509), (435, 587), (419, 634)]",110.4052010410776,"[2, 3, 4, 7, 5, 6, 8, 9, 1]","(0, 0.25)",DOT009B,DOT,B,Chinese,Mon Oct 15 17:24:29 2018,Mouse
2,3,2,0,72,4,1,0,-330,250,80,132,0,500,200,8000,"[(512, 384), (512, 384), (512, 384), (512, 384), (512, 384), (512, 384), (512, 384), (512, 384), (512, 384), (512, 384), (512, 384), (512, 384), (512, 384), (512, 384), (512, 384), (512, 384), (512, 384), (512, 384), (512, 384), (512, 384), (512, 384), (512, 384), (512, 384), (512, 384), (514, 381), (522, 376), (544, 368), (558, 362), (581, 355), (615, 342), (681, 316), (717, 303), (750, 287)]",337.82600760389204,"[2, 3, 4, 7, 5, 6, 8, 9, 1]","(0, 0.25)",DOT009B,DOT,B,Chinese,Mon Oct 15 17:24:29 2018,Mouse
2,3,2,0,73,9,3,0,-800,750,50,133,0,500,200,8000,"[(512, 384), (512, 384), (512, 384), (512, 384), (512, 384), (512, 384), (512, 384), (512, 384), (512, 384), (512, 384), (512, 384), (512, 384), (512, 384), (512, 384), (512, 384), (512, 384), (512, 384), (512, 384), (512, 384), (512, 384), (512, 384), (512, 384), (512, 384), (512, 384), (512, 384), (512, 384), (512, 384), (512, 384), (512, 384), (512, 384), (512, 384), (512, 384), (512, 384), (512, 384), (512, 384), (512, 384), (512, 384), (512, 384), (512, 384), (512, 384), (512, 384), (512, 384), (512, 384), (512, 384), (512, 384), (512, 384), (512, 384), (512, 384), (512, 384), (512, 384), (512, 384), (512, 384), (512, 384), (512, 384), (512, 384), (512, 384), (512, 384), (512, 384), (512, 384), (512, 384), (512, 384), (512, 384), (512, 384), (512, 384), (512, 384), (512, 384), (512, 384), (512, 384), (512, 384), (512, 384), (512, 384), (512, 384), (512, 384), (512, 384), (516, 399), (539, 427), (567, 469), (612, 553), (638, 597), (662, 643)]",59.92269768657298,"[2, 3, 4, 7, 5, 6, 8, 9, 1]","(0, 0.25)",DOT009B,DOT,B,Chinese,Mon Oct 15 17:24:29 2018,Mouse
2,3,2,0,74,9,1,0,-331,121,210,134,0,500,200,8000,"[(512, 384), (512, 384), (512, 384), (512, 384), (512, 384), (512, 384), (512, 384), (512, 384), (512, 384), (512, 384), (512, 384), (512, 384), (512, 382), (513, 380), (519, 380), (523, 380), (527, 380), (531, 380), (533, 380), (535, 380), (536, 382), (537, 382), (538, 382), (541, 382), (545, 382), (550, 382), (568, 382), (583, 382), (607, 378), (635, 370), (699, 351), (726, 344), (754, 336), (779, 328)]",348.15460854041527,"[2, 3, 4, 7, 5, 6, 8, 9, 1]","(0, 0.25)",DOT009B,DOT,B,Chinese,Mon Oct 15 17:24:29 2018,Mouse
2,3,2,0,75,6,4,0,-910,440,470,135,0,500,200,8000,"[(512, 384), (512, 384), (512, 384), (512, 384), (512, 384), (512, 384), (512, 384), (512, 384), (512, 384), (512, 384), (512, 384), (512, 384), (512, 384), (512, 384), (512, 384), (512, 384), (512, 384), (512, 384), (512, 384), (512, 384), (512, 384), (512, 384), (512, 384), (512, 384), (512, 384), (512, 384), (512, 384), (512, 384), (512, 384), (512, 384), (512, 384), (512, 384), (512, 384), (512, 384), (512, 384), (512, 384), (512, 384), (512, 384), (512, 384), (512, 384), (512, 384), (512, 384), (512, 384), (508, 377), (491, 357), (487, 353), (483, 346), (479, 341), (473, 335), (471, 333), (470, 332), (470, 332), (470, 332), (470, 332), (470, 332), (470, 332), (470, 332), (470, 332), (470, 332), (470, 332), (470, 332), (470, 332), (470, 332), (470, 332), (470, 332), (470, 332), (470, 332), (470, 332), (470, 332), (470, 332), (470, 332), (470, 332), (469, 331), (469, 331), (469, 331), (469, 335), (469, 351), (469, 359), (469, 369), (469, 380), (469, 400), (469, 411), (469, 422), (469, 433), (469, 461), (469, 476), (472, 494), (474, 514), (478, 569), (478, 597), (478, 633)]",97.77543407916005,"[2, 3, 4, 7, 5, 6, 8, 9, 1]","(0, 0.25)",DOT009B,DOT,B,Chinese,Mon Oct 15 17:24:29 2018,Mouse
2,3,2,0,76,6,4,0,-380,300,80,136,0,500,200,8000,"[(512, 384), (512, 384), (512, 384), (512, 384), (512, 384), (512, 384), (512, 384), (512, 384), (512, 384), (512, 384), (512, 384), (512, 384), (512, 384), (512, 384), (512, 384), (512, 384), (512, 384), (512, 384), (512, 384), (512, 384), (512, 384), (512, 384), (512, 384), (512, 384), (512, 384), (512, 384), (512, 384), (512, 384), (512, 384), (507, 397), (500, 422), (494, 444), (486, 472), (475, 521), (471, 548), (463, 589), (460, 615), (452, 674)]",101.6893691754392,"[2, 3, 4, 7, 5, 6, 8, 9, 1]","(0, 0.25)",DOT009B,DOT,B,Chinese,Mon Oct 15 17:24:29 2018,Mouse
2,3,2,0,77,3,2,0,-919,149,770,137,0,500,200,8000,"[(512, 384), (512, 384), (512, 384), (512, 384), (512, 384), (512, 384), (512, 384), (512, 384), (512, 384), (512, 384), (512, 384), (512, 384), (512, 384), (512, 384), (516, 384), (522, 385), (528, 388), (533, 391), (538, 395), (543, 399), (545, 402), (547, 403), (549, 406), (550, 408), (550, 409), (551, 411), (552, 413), (554, 419), (556, 422), (557, 424), (559, 427), (562, 432), (564, 435), (566, 437), (566, 438), (568, 442), (569, 443), (569, 444), (569, 444), (569, 446), (569, 446), (569, 446), (569, 446), (569, 446), (569, 446), (569, 446), (569, 446), (569, 446), (569, 446), (569, 446), (569, 446), (569, 446), (569, 446), (569, 446), (569, 446), (569, 446), (569, 446), (569, 446), (569, 446), (569, 446), (569, 446), (569, 446), (569, 446), (571, 446), (576, 447), (581, 448), (587, 448), (606, 451), (615, 453), (626, 457), (634, 457), (651, 461), (658, 463), (661, 464), (664, 465), (666, 465), (666, 465), (666, 465), (666, 465), (666, 465), (666, 465), (666, 465), (666, 465), (666, 465), (666, 465), (666, 465), (666, 465), (666, 466), (670, 466), (683, 468), (703, 472), (764, 480)]",20.854458039578347,"[2, 3, 4, 7, 5, 6, 8, 9, 1]","(0, 0.25)",DOT009B,DOT,B,Chinese,Mon Oct 15 17:24:29 2018,Mouse
2,3,2,0,78,3,3,1,340,180,160,138,0,500,200,8000,"[(512, 384), (512, 384), (512, 384), (512, 384), (512, 384), (512, 384), (512, 384), (512, 384), (512, 384), (512, 384), (512, 384), (512, 384), (512, 384), (512, 384), (512, 384), (512, 384), (512, 384), (512, 387), (515, 396), (530, 419), (536, 426), (541, 435), (549, 443), (560, 458), (568, 467), (573, 473), (580, 481), (591, 498), (597, 509), (605, 519), (611, 533), (633, 571), (645, 593), (659, 613)]",57.30272632524271,"[2, 3, 4, 7, 5, 6, 8, 9, 1]","(0, 0.25)",DOT009B,DOT,B,Chinese,Mon Oct 15 17:24:29 2018,Mouse
2,3,2,0,79,5,5,1,370,210,160,138,0,500,200,8000,"[(512, 384), (512, 384), (512, 384), (512, 384), (512, 384), (512, 384), (512, 384), (512, 384), (512, 384), (512, 384), (512, 384), (512, 384), (512, 384), (512, 384), (512, 384), (512, 384), (512, 384), (512, 384), (512, 384), (512, 384), (505, 384), (462, 383), (439, 381), (424, 380), (410, 378), (389, 378), (382, 377), (375, 376), (368, 375), (353, 373), (347, 372), (339, 372), (331, 371), (301, 366), (284, 366), (264, 364), (241, 363)]",184.43103931291353,"[2, 3, 4, 7, 5, 6, 8, 9, 1]","(0, 0.25)",DOT009B,DOT,B,Chinese,Mon Oct 15 17:24:29 2018,Mouse
2,3,2,0,80,1,1,1,261,91,170,137,0,500,200,8000,"[(512, 384), (512, 384), (512, 384), (512, 384), (512, 384), (512, 384), (512, 384), (512, 384), (512, 384), (516, 380), (524, 377), (532, 375), (539, 374), (561, 371), (574, 370), (583, 368), (592, 366), (607, 364), (614, 363), (624, 360), (634, 358), (656, 349), (669, 347), (685, 342), (699, 337), (739, 330), (766, 325)]",346.9230380800806,"[2, 3, 4, 7, 5, 6, 8, 9, 1]","(0, 0.25)",DOT009B,DOT,B,Chinese,Mon Oct 15 17:24:29 2018,Mouse
2,3,2,0,81,5,5,1,630,190,440,136,0,500,200,8000,"[(512, 384), (512, 384), (512, 384), (512, 384), (512, 384), (512, 384), (512, 384), (512, 384), (512, 384), (512, 384), (512, 384), (512, 384), (512, 384), (512, 384), (512, 384), (512, 384), (512, 384), (512, 384), (507, 384), (492, 384), (476, 384), (461, 384), (439, 384), (427, 384), (424, 384), (418, 382), (414, 381), (414, 381), (414, 381), (414, 381), (414, 381), (414, 381), (414, 381), (414, 381), (412, 381), (409, 381), (406, 381), (404, 381), (401, 382), (400, 382), (397, 382), (396, 382), (395, 382), (395, 382), (395, 382), (395, 382), (395, 382), (395, 382), (395, 382), (395, 382), (395, 382), (395, 382), (395, 382), (395, 382), (389, 383), (386, 383), (380, 385), (373, 385), (351, 385), (334, 385), (312, 385), (284, 385), (214, 385)]",179.80773300520144,"[2, 3, 4, 7, 5, 6, 8, 9, 1]","(0, 0.25)",DOT009B,DOT,B,Chinese,Mon Oct 15 17:24:29 2018,Mouse
2,3,2,0,82,8,8,1,720,640,80,135,0,500,200,8000,"[(512, 384), (512, 384), (512, 384), (512, 384), (512, 384), (512, 384), (512, 384), (512, 384), (512, 384), (512, 384), (512, 384), (512, 384), (512, 384), (512, 384), (512, 384), (512, 384), (512, 384), (512, 384), (512, 384), (512, 384), (512, 384), (512, 384), (512, 384), (512, 384), (512, 384), (512, 384), (512, 384), (512, 384), (512, 384), (512, 384), (512, 384), (512, 384), (512, 384), (512, 384), (512, 384), (512, 384), (512, 384), (512, 384), (512, 384), (512, 384), (512, 384), (512, 384), (512, 384), (512, 384), (512, 384), (512, 384), (512, 384), (512, 384), (512, 384), (512, 384), (512, 384), (512, 384), (512, 384), (512, 384), (512, 384), (512, 384), (512, 384), (512, 384), (512, 384), (512, 384), (512, 384), (512, 384), (512, 384), (509, 375), (507, 364), (502, 348), (498, 329), (492, 282), (487, 249), (486, 216), (484, 184), (484, 126)]",263.80609503284904,"[2, 3, 4, 7, 5, 6, 8, 9, 1]","(0, 0.25)",DOT009B,DOT,B,Chinese,Mon Oct 15 17:24:29 2018,Mouse
2,3,2,0,83,8,8,1,529,489,40,134,0,500,200,8000,"[(512, 384), (512, 384), (512, 384), (512, 384), (512, 384), (512, 384), (512, 384), (512, 384), (512, 384), (512, 384), (512, 384), (512, 384), (512, 384), (512, 384), (512, 384), (512, 384), (512, 384), (512, 384), (512, 384), (512, 384), (512, 384), (512, 384), (512, 384), (512, 384), (512, 384), (512, 384), (512, 384), (512, 384), (512, 384), (512, 384), (512, 384), (512, 384), (512, 384), (512, 384), (512, 384), (512, 384), (512, 384), (512, 384), (512, 384), (512, 384), (512, 384), (512, 384), (512, 384), (512, 384), (512, 384), (512, 384), (512, 384), (512, 384), (511, 356), (503, 302), (495, 250), (483, 153), (476, 113)]",262.4330558216669,"[2, 3, 4, 7, 5, 6, 8, 9, 1]","(0, 0.25)",DOT009B,DOT,B,Chinese,Mon Oct 15 17:24:29 2018,Mouse
2,3,2,0,84,1,4,0,-1619,1569,50,133,0,500,200,8000,"[(512, 384), (512, 384), (512, 384), (512, 384), (512, 384), (512, 384), (512, 384), (512, 384), (512, 384), (512, 384), (512, 384), (512, 384), (512, 384), (512, 384), (512, 384), (512, 384), (512, 384), (512, 384), (512, 384), (512, 384), (512, 384), (512, 384), (512, 384), (512, 384), (512, 384), (512, 384), (512, 384), (512, 384), (512, 384), (512, 384), (512, 384), (512, 384), (512, 384), (512, 384), (512, 384), (512, 384), (512, 384), (512, 384), (512, 384), (512, 384), (512, 384), (512, 384), (512, 384), (512, 384), (512, 384), (512, 384), (512, 384), (512, 384), (512, 384), (512, 384), (512, 384), (512, 384), (512, 384), (512, 384), (512, 384), (512, 384), (512, 384), (512, 384), (512, 384), (512, 384), (512, 384), (512, 384), (512, 384), (512, 384), (512, 384), (512, 384), (512, 384), (512, 384), (512, 384), (512, 384), (512, 384), (512, 384), (512, 384), (512, 384), (512, 384), (512, 384), (512, 384), (512, 384), (512, 384), (512, 384), (512, 384), (512, 384), (512, 384), (512, 384), (512, 384), (512, 384), (512, 384), (512, 384), (512, 384), (512, 384), (512, 384), (512, 384), (512, 384), (512, 384), (512, 384), (512, 384), (512, 384), (512, 384), (512, 384), (512, 384), (512, 384), (512, 384), (512, 384), (512, 384), (512, 384), (512, 384), (512, 384), (512, 384), (512, 384), (512, 384), (512, 384), (512, 384), (512, 384), (512, 384), (512, 384), (512, 384), (512, 384), (512, 384), (512, 384), (512, 384), (512, 384), (512, 384), (512, 384), (512, 384), (512, 384), (512, 384), (512, 384), (512, 384), (512, 384), (512, 384), (512, 384), (512, 384), (512, 384), (512, 384), (512, 384), (512, 384), (512, 384), (512, 384), (512, 384), (512, 384), (512, 384), (512, 384), (512, 384), (512, 384), (512, 384), (512, 384), (512, 384), (512, 384), (512, 384), (512, 384), (512, 384), (512, 384), (512, 384), (512, 384), (512, 384), (512, 384), (512, 392), (509, 414), (499, 478), (490, 541), (480, 603), (474, 673)]",97.49072912385445,"[2, 3, 4, 7, 5, 6, 8, 9, 1]","(0, 0.25)",DOT009B,DOT,B,Chinese,Mon Oct 15 17:24:29 2018,Mouse
2,3,2,0,85,4,4,1,440,160,280,134,0,500,200,8000,"[(512, 384), (512, 384), (512, 384), (512, 384), (512, 384), (512, 384), (512, 384), (512, 384), (512, 384), (512, 384), (512, 384), (512, 384), (512, 384), (512, 384), (512, 384), (510, 384), (509, 384), (509, 384), (508, 384), (507, 384), (504, 384), (504, 384), (504, 384), (503, 383), (503, 383), (503, 383), (503, 383), (503, 383), (503, 383), (503, 383), (503, 383), (503, 383), (503, 383), (503, 383), (502, 386), (500, 392), (497, 414), (496, 431), (492, 450), (489, 479), (477, 546), (473, 592), (466, 627), (459, 665)]",100.68119744315692,"[2, 3, 4, 7, 5, 6, 8, 9, 1]","(0, 0.25)",DOT009B,DOT,B,Chinese,Mon Oct 15 17:24:29 2018,Mouse
2,3,2,0,86,8,8,1,771,221,550,134,0,500,200,8000,"[(512, 384), (512, 384), (512, 384), (512, 384), (512, 384), (512, 384), (512, 384), (512, 384), (512, 384), (512, 384), (512, 384), (512, 384), (512, 384), (512, 384), (512, 384), (512, 384), (512, 384), (512, 384), (512, 384), (512, 384), (512, 384), (512, 384), (512, 381), (512, 376), (512, 374), (511, 370), (511, 368), (510, 367), (510, 367), (510, 366), (509, 365), (508, 364), (508, 364), (507, 363), (507, 363), (507, 363), (506, 362), (505, 361), (504, 360), (503, 360), (502, 359), (498, 357), (497, 355), (497, 355), (497, 355), (497, 355), (494, 355), (494, 355), (494, 354), (491, 351), (489, 349), (487, 347), (486, 344), (481, 329), (479, 322), (477, 312), (477, 303), (474, 279), (474, 267), (474, 257), (474, 248), (474, 237), (474, 234), (474, 231), (472, 227), (472, 224), (472, 222), (472, 219), (473, 218), (473, 211), (473, 206), (475, 201), (475, 192), (475, 173), (475, 160), (475, 149), (475, 138), (475, 118)]",262.08109756162276,"[2, 3, 4, 7, 5, 6, 8, 9, 1]","(0, 0.25)",DOT009B,DOT,B,Chinese,Mon Oct 15 17:24:29 2018,Mouse
2,3,2,0,87,1,5,0,-800,720,80,133,0,500,200,8000,"[(512, 384), (512, 384), (512, 384), (512, 384), (512, 384), (512, 384), (512, 384), (512, 384), (512, 384), (512, 384), (512, 384), (512, 384), (512, 384), (512, 384), (512, 384), (512, 384), (512, 384), (512, 384), (512, 384), (512, 384), (512, 384), (512, 384), (512, 384), (512, 384), (512, 384), (512, 384), (512, 384), (512, 384), (512, 384), (512, 384), (512, 384), (512, 384), (512, 384), (512, 384), (512, 384), (512, 384), (512, 384), (512, 384), (512, 384), (512, 384), (512, 384), (512, 384), (512, 384), (512, 384), (512, 384), (512, 384), (512, 384), (512, 384), (512, 384), (512, 384), (512, 384), (512, 384), (512, 384), (512, 384), (512, 384), (512, 384), (512, 384), (512, 384), (512, 384), (512, 384), (512, 384), (512, 384), (512, 384), (512, 384), (512, 384), (512, 384), (512, 384), (512, 384), (512, 384), (512, 384), (512, 384), (496, 384), (485, 385), (471, 389), (450, 390), (403, 396), (372, 398), (344, 398), (311, 398), (252, 398)]",176.91781917547186,"[2, 3, 4, 7, 5, 6, 8, 9, 1]","(0, 0.25)",DOT009B,DOT,B,Chinese,Mon Oct 15 17:24:29 2018,Mouse
2,3,2,0,88,5,5,1,260,210,50,134,0,500,200,8000,"[(512, 384), (512, 384), (512, 384), (512, 384), (512, 384), (512, 384), (512, 384), (512, 384), (512, 384), (512, 384), (512, 384), (512, 384), (512, 384), (512, 384), (512, 384), (512, 384), (512, 384), (512, 384), (512, 384), (512, 384), (509, 384), (474, 384), (427, 384), (324, 384), (266, 384), (205, 384)]",180.0,"[2, 3, 4, 7, 5, 6, 8, 9, 1]","(0, 0.25)",DOT009B,DOT,B,Chinese,Mon Oct 15 17:24:29 2018,Mouse
2,3,2,0,89,9,8,0,-899,849,50,134,0,500,200,8000,"[(512, 384), (512, 384), (512, 384), (512, 384), (512, 384), (512, 384), (512, 384), (512, 384), (512, 384), (512, 384), (512, 384), (512, 384), (512, 384), (512, 384), (512, 384), (512, 384), (512, 384), (512, 384), (512, 384), (512, 384), (512, 384), (512, 384), (512, 384), (512, 384), (512, 384), (512, 384), (512, 384), (512, 384), (512, 384), (512, 384), (512, 384), (512, 384), (512, 384), (512, 384), (512, 384), (512, 384), (512, 384), (512, 384), (512, 384), (512, 384), (512, 384), (512, 384), (512, 384), (512, 384), (512, 384), (512, 384), (512, 384), (512, 384), (512, 384), (512, 384), (512, 384), (512, 384), (512, 384), (512, 384), (512, 384), (512, 384), (512, 384), (512, 384), (512, 384), (512, 384), (512, 384), (512, 384), (512, 384), (512, 384), (512, 384), (512, 384), (512, 384), (512, 384), (512, 384), (512, 384), (512, 384), (512, 384), (512, 384), (512, 384), (512, 384), (512, 384), (512, 384), (512, 384), (512, 384), (512, 384), (512, 384), (512, 384), (512, 384), (512, 384), (513, 383), (508, 313), (506, 271), (503, 228), (499, 183), (488, 91)]",265.31728449770924,"[2, 3, 4, 7, 5, 6, 8, 9, 1]","(0, 0.25)",DOT009B,DOT,B,Chinese,Mon Oct 15 17:24:29 2018,Mouse
2,3,2,0,90,5,5,1,320,280,40,135,0,500,200,8000,"[(512, 384), (512, 384), (512, 384), (512, 384), (512, 384), (512, 384), (512, 384), (512, 384), (512, 384), (512, 384), (512, 384), (512, 384), (512, 384), (512, 384), (512, 384), (512, 384), (512, 384), (512, 384), (512, 384), (512, 384), (512, 384), (512, 384), (512, 384), (512, 384), (512, 384), (512, 384), (512, 384), (500, 385), (466, 388), (410, 390), (352, 390), (219, 390)]",178.82687154869075,"[2, 3, 4, 7, 5, 6, 8, 9, 1]","(0, 0.25)",DOT009B,DOT,B,Chinese,Mon Oct 15 17:24:29 2018,Mouse
2,3,2,0,91,8,4,0,-429,239,190,135,0,500,200,8000,"[(512, 384), (512, 384), (512, 384), (512, 384), (512, 384), (512, 384), (512, 384), (512, 384), (512, 384), (512, 384), (512, 384), (512, 384), (512, 384), (512, 384), (512, 384), (512, 384), (512, 384), (512, 384), (512, 384), (512, 384), (512, 384), (512, 384), (512, 384), (513, 384), (513, 390), (512, 397), (511, 404), (508, 414), (506, 420), (506, 428), (504, 435), (503, 455), (503, 467), (503, 480), (503, 495), (502, 537), (502, 552), (502, 568), (502, 583), (502, 610), (498, 622), (497, 631), (496, 641)]",93.56245458372015,"[2, 3, 4, 7, 5, 6, 8, 9, 1]","(0, 0.25)",DOT009B,DOT,B,Chinese,Mon Oct 15 17:24:29 2018,Mouse
2,3,2,0,92,2,2,1,370,130,240,136,0,500,200,8000,"[(512, 384), (512, 384), (512, 384), (512, 384), (512, 384), (512, 384), (512, 384), (512, 384), (512, 384), (512, 384), (512, 384), (512, 384), (502, 383), (495, 382), (489, 381), (489, 380), (488, 380), (488, 380), (488, 380), (488, 380), (488, 380), (488, 380), (488, 380), (488, 380), (489, 380), (493, 379), (498, 378), (507, 376), (536, 376), (549, 376), (566, 376), (579, 376), (633, 388), (664, 396), (697, 405), (722, 413), (773, 429)]",9.782407031807287,"[2, 3, 4, 7, 5, 6, 8, 9, 1]","(0, 0.25)",DOT009B,DOT,B,Chinese,Mon Oct 15 17:24:29 2018,Mouse
2,3,2,0,93,3,3,1,420,200,220,136,0,500,200,8000,"[(512, 384), (512, 384), (512, 384), (512, 384), (512, 384), (512, 384), (512, 384), (512, 384), (512, 384), (512, 384), (512, 384), (512, 384), (512, 384), (512, 384), (512, 384), (512, 384), (512, 384), (512, 384), (512, 384), (512, 386), (513, 387), (513, 388), (513, 390), (516, 395), (517, 400), (518, 403), (520, 409), (526, 426), (528, 434), (534, 449), (541, 466), (568, 510), (579, 527), (587, 543), (600, 563), (613, 578), (619, 584), (624, 589), (625, 591), (630, 598), (634, 602), (637, 606)]",60.61774537702029,"[2, 3, 4, 7, 5, 6, 8, 9, 1]","(0, 0.25)",DOT009B,DOT,B,Chinese,Mon Oct 15 17:24:29 2018,Mouse
2,3,2,0,94,5,5,1,320,70,250,135,0,500,200,8000,"[(512, 384), (512, 384), (512, 384), (512, 384), (512, 384), (512, 384), (512, 383), (512, 383), (512, 383), (512, 383), (512, 383), (508, 382), (501, 380), (479, 371), (469, 368), (459, 364), (452, 363), (437, 359), (432, 359), (429, 358), (426, 358), (416, 356), (410, 356), (401, 355), (388, 355), (363, 355), (351, 355), (338, 353), (319, 349), (281, 348), (270, 348), (260, 348)]",188.13010235415598,"[2, 3, 4, 7, 5, 6, 8, 9, 1]","(0, 0.25)",DOT009B,DOT,B,Chinese,Mon Oct 15 17:24:29 2018,Mouse
2,3,2,0,95,7,4,0,-1089,1029,60,134,0,500,200,8000,"[(512, 384), (512, 384), (512, 384), (512, 384), (512, 384), (512, 384), (512, 384), (512, 384), (512, 384), (512, 384), (512, 384), (512, 384), (512, 384), (512, 384), (512, 384), (512, 384), (512, 384), (512, 384), (512, 384), (512, 384), (512, 384), (512, 384), (512, 384), (512, 384), (512, 384), (512, 384), (512, 384), (512, 384), (512, 384), (512, 384), (512, 384), (512, 384), (512, 384), (512, 384), (512, 384), (512, 384), (512, 384), (512, 384), (512, 384), (512, 384), (512, 384), (512, 384), (512, 384), (512, 384), (512, 384), (512, 384), (512, 384), (512, 384), (512, 384), (512, 384), (512, 384), (512, 384), (512, 384), (512, 384), (512, 384), (512, 384), (512, 384), (512, 384), (512, 384), (512, 384), (512, 384), (512, 384), (512, 384), (512, 384), (512, 384), (512, 384), (512, 384), (512, 384), (512, 384), (512, 384), (512, 384), (512, 384), (512, 384), (512, 384), (512, 384), (512, 384), (512, 384), (512, 384), (512, 384), (512, 384), (512, 384), (512, 384), (512, 384), (512, 384), (512, 384), (512, 384), (512, 384), (512, 384), (512, 384), (512, 384), (512, 384), (512, 384), (512, 384), (512, 384), (512, 384), (512, 384), (512, 384), (512, 384), (512, 384), (512, 384), (512, 384), (512, 384), (512, 401), (508, 442), (504, 490), (487, 569), (481, 599), (472, 627), (464, 660)]",99.86580694308438,"[2, 3, 4, 7, 5, 6, 8, 9, 1]","(0, 0.25)",DOT009B,DOT,B,Chinese,Mon Oct 15 17:24:29 2018,Mouse
2,3,2,0,96,6,4,0,-240,140,100,135,0,500,200,8000,"[(512, 384), (512, 384), (512, 384), (512, 384), (512, 384), (512, 384), (512, 384), (512, 384), (512, 384), (512, 384), (512, 384), (512, 384), (512, 384), (512, 392), (508, 414), (505, 437), (497, 493), (495, 522), (491, 549), (488, 570), (481, 604), (479, 617), (478, 628), (477, 635)]",97.93826452354548,"[2, 3, 4, 7, 5, 6, 8, 9, 1]","(0, 0.25)",DOT009B,DOT,B,Chinese,Mon Oct 15 17:24:29 2018,Mouse
2,3,2,0,97,2,2,1,360,160,200,136,0,500,200,8000,"[(512, 384), (512, 384), (512, 384), (512, 384), (512, 384), (512, 384), (512, 384), (512, 384), (512, 384), (512, 384), (512, 384), (512, 384), (512, 384), (512, 384), (512, 384), (514, 385), (522, 392), (528, 398), (533, 400), (538, 405), (545, 409), (549, 412), (551, 412), (555, 414), (562, 418), (569, 421), (575, 423), (581, 426), (607, 433), (628, 440), (652, 445), (667, 451), (702, 459), (719, 464), (741, 470), (761, 476)]",20.27815781534153,"[2, 3, 4, 7, 5, 6, 8, 9, 1]","(0, 0.25)",DOT009B,DOT,B,Chinese,Mon Oct 15 17:24:29 2018,Mouse
2,3,2,0,98,9,8,0,-510,320,190,136,0,500,200,8000,"[(512, 384), (512, 384), (512, 384), (512, 384), (512, 384), (512, 384), (512, 384), (512, 384), (512, 384), (512, 384), (512, 384), (512, 384), (512, 384), (512, 384), (512, 384), (512, 384), (512, 384), (512, 384), (512, 384), (512, 384), (512, 384), (512, 384), (512, 384), (512, 384), (512, 384), (512, 384), (512, 384), (512, 384), (512, 384), (512, 384), (512, 384), (511, 383), (511, 383), (511, 383), (511, 383), (511, 383), (511, 383), (511, 383), (511, 383), (511, 383), (511, 383), (511, 383), (505, 370), (496, 352), (471, 299), (458, 270), (448, 241), (443, 214), (434, 169), (431, 148), (428, 127)]",251.9001103956871,"[2, 3, 4, 7, 5, 6, 8, 9, 1]","(0, 0.25)",DOT009B,DOT,B,Chinese,Mon Oct 15 17:24:29 2018,Mouse
2,3,2,0,99,6,6,1,511,451,60,137,0,500,200,8000,"[(512, 384), (512, 384), (512, 384), (512, 384), (512, 384), (512, 384), (512, 384), (512, 384), (512, 384), (512, 384), (512, 384), (512, 384), (512, 384), (512, 384), (512, 384), (512, 384), (512, 384), (512, 384), (512, 384), (512, 384), (512, 384), (512, 384), (512, 384), (512, 384), (512, 384), (512, 384), (512, 384), (512, 384), (512, 384), (512, 384), (512, 384), (512, 384), (512, 384), (512, 384), (512, 384), (512, 384), (512, 384), (512, 384), (512, 384), (512, 384), (512, 384), (512, 384), (512, 384), (512, 384), (512, 384), (510, 384), (464, 346), (434, 328), (400, 304), (377, 282), (323, 240), (308, 229)]",217.22771206992545,"[2, 3, 4, 7, 5, 6, 8, 9, 1]","(0, 0.25)",DOT009B,DOT,B,Chinese,Mon Oct 15 17:24:29 2018,Mouse
2,3,2,0,100,6,4,0,-470,350,120,137,0,500,200,8000,"[(512, 384), (512, 384), (512, 384), (512, 384), (512, 384), (512, 384), (512, 384), (512, 384), (512, 384), (512, 384), (512, 384), (512, 384), (512, 384), (512, 384), (512, 384), (512, 384), (512, 384), (512, 384), (512, 384), (512, 384), (512, 384), (512, 384), (512, 384), (512, 384), (512, 384), (512, 384), (512, 384), (512, 384), (512, 384), (512, 384), (512, 384), (512, 384), (512, 384), (512, 384), (512, 414), (510, 435), (509, 452), (508, 466), (504, 494), (504, 506), (504, 517), (504, 529), (504, 552), (504, 566), (504, 581), (504, 601), (505, 644)]",91.54220612742849,"[2, 3, 4, 7, 5, 6, 8, 9, 1]","(0, 0.25)",DOT009B,DOT,B,Chinese,Mon Oct 15 17:24:29 2018,Mouse
2,3,2,0,101,4,4,1,360,100,260,138,0,500,200,8000,"[(512, 384), (512, 384), (512, 384), (512, 384), (512, 384), (512, 384), (512, 384), (512, 384), (512, 384), (512, 389), (509, 399), (498, 421), (494, 432), (492, 445), (487, 457), (481, 482), (478, 494), (477, 505), (475, 513), (473, 524), (473, 525), (473, 526), (473, 526), (473, 526), (473, 526), (473, 526), (473, 526), (473, 526), (473, 526), (472, 526), (472, 527), (472, 536), (472, 549), (469, 575), (469, 608), (457, 678)]",100.59612035058903,"[2, 3, 4, 7, 5, 6, 8, 9, 1]","(0, 0.25)",DOT009B,DOT,B,Chinese,Mon Oct 15 17:24:29 2018,Mouse
2,3,2,0,102,8,8,1,569,109,460,138,0,500,200,8000,"[(512, 384), (512, 384), (512, 384), (512, 384), (512, 384), (512, 384), (512, 384), (512, 384), (512, 384), (512, 384), (512, 378), (512, 370), (512, 365), (512, 363), (512, 360), (512, 356), (512, 354), (512, 353), (512, 353), (512, 353), (512, 353), (512, 353), (512, 353), (512, 353), (512, 353), (512, 353), (512, 353), (512, 353), (512, 353), (512, 353), (512, 353), (512, 353), (511, 352), (511, 348), (511, 343), (511, 332), (511, 327), (510, 326), (510, 324), (510, 320), (510, 320), (510, 319), (510, 317), (510, 316), (510, 314), (510, 313), (510, 313), (510, 313), (510, 313), (510, 313), (510, 313), (510, 303), (510, 290), (510, 272), (504, 232), (491, 143), (485, 97)]",264.6256226276756,"[2, 3, 4, 7, 5, 6, 8, 9, 1]","(0, 0.25)",DOT009B,DOT,B,Chinese,Mon Oct 15 17:24:29 2018,Mouse
2,3,2,0,103,1,1,1,430,140,290,137,0,500,200,8000,"[(512, 384), (512, 384), (512, 384), (512, 384), (512, 384), (512, 384), (512, 384), (512, 384), (512, 384), (512, 384), (512, 384), (512, 384), (512, 384), (514, 385), (523, 395), (530, 403), (537, 411), (542, 416), (554, 426), (556, 428), (560, 431), (562, 433), (564, 435), (565, 435), (567, 435), (567, 436), (568, 436), (568, 436), (569, 436), (572, 436), (586, 423), (597, 411), (605, 399), (614, 389), (632, 368), (638, 362), (649, 356), (661, 351), (688, 335), (701, 333), (721, 329), (735, 326), (762, 326)]",346.93844891667186,"[2, 3, 4, 7, 5, 6, 8, 9, 1]","(0, 0.25)",DOT009B,DOT,B,Chinese,Mon Oct 15 17:24:29 2018,Mouse
2,3,2,0,104,9,7,0,-1119,719,400,136,0,500,200,8000,"[(512, 384), (512, 384), (512, 384), (512, 384), (512, 384), (512, 384), (512, 384), (512, 384), (512, 384), (512, 384), (512, 384), (512, 384), (512, 384), (512, 384), (512, 384), (512, 384), (512, 384), (512, 384), (512, 384), (512, 384), (512, 384), (512, 384), (512, 384), (512, 384), (512, 384), (512, 384), (512, 384), (512, 384), (512, 384), (512, 384), (512, 384), (512, 384), (512, 384), (512, 384), (512, 384), (512, 384), (512, 384), (512, 384), (512, 384), (512, 384), (512, 384), (512, 384), (512, 384), (512, 384), (512, 384), (512, 384), (512, 384), (512, 384), (512, 384), (512, 384), (512, 384), (512, 384), (512, 384), (512, 384), (512, 384), (512, 384), (512, 384), (512, 384), (512, 384), (512, 384), (512, 384), (512, 384), (512, 384), (512, 384), (512, 384), (512, 384), (512, 384), (512, 384), (512, 384), (512, 384), (512, 384), (511, 386), (505, 398), (500, 408), (494, 421), (486, 446), (484, 457), (483, 467), (482, 476), (482, 493), (482, 501), (482, 507), (482, 511), (482, 516), (482, 518), (482, 518), (482, 518), (482, 519), (482, 519), (482, 519), (482, 519), (482, 519), (482, 519), (482, 519), (482, 519), (482, 519), (482, 519), (482, 519), (482, 521), (479, 522), (477, 523), (472, 524), (472, 524), (464, 526), (460, 526), (454, 527), (445, 528), (423, 531), (406, 534), (381, 540), (362, 545), (321, 561)]",137.17868007527662,"[2, 3, 4, 7, 5, 6, 8, 9, 1]","(0, 0.25)",DOT009B,DOT,B,Chinese,Mon Oct 15 17:24:29 2018,Mouse
2,3,2,0,105,3,3,1,360,300,60,137,0,500,200,8000,"[(512, 384), (512, 384), (512, 384), (512, 384), (512, 384), (512, 384), (512, 384), (512, 384), (512, 384), (512, 384), (512, 384), (512, 384), (512, 384), (512, 384), (512, 384), (512, 384), (512, 384), (512, 384), (512, 384), (512, 384), (512, 384), (512, 384), (512, 384), (512, 384), (512, 384), (512, 384), (512, 384), (512, 384), (512, 384), (520, 385), (540, 402), (599, 459), (624, 488), (653, 522), (681, 557), (729, 621)]",47.522412283439465,"[2, 3, 4, 7, 5, 6, 8, 9, 1]","(0, 0.25)",DOT009B,DOT,B,Chinese,Mon Oct 15 17:24:29 2018,Mouse
2,3,2,0,106,8,8,1,670,540,130,137,0,500,200,8000,"[(512, 384), (512, 384), (512, 384), (512, 384), (512, 384), (512, 384), (512, 384), (512, 384), (512, 384), (512, 384), (512, 384), (512, 384), (512, 384), (512, 384), (512, 384), (512, 384), (512, 384), (512, 384), (512, 384), (512, 384), (512, 384), (512, 384), (512, 384), (512, 384), (512, 384), (512, 384), (512, 384), (512, 384), (512, 384), (512, 384), (512, 384), (512, 384), (512, 384), (512, 384), (512, 384), (512, 384), (512, 384), (512, 384), (512, 384), (512, 384), (512, 384), (512, 384), (512, 384), (512, 384), (512, 384), (512, 384), (512, 384), (512, 384), (512, 384), (512, 384), (512, 384), (512, 384), (512, 384), (512, 381), (512, 371), (513, 360), (513, 358), (513, 356), (513, 352), (513, 340), (513, 332), (513, 319), (513, 299), (513, 243), (513, 199), (513, 162), (509, 127)]",269.33120804703134,"[2, 3, 4, 7, 5, 6, 8, 9, 1]","(0, 0.25)",DOT009B,DOT,B,Chinese,Mon Oct 15 17:24:29 2018,Mouse
2,3,2,0,107,7,6,0,-710,550,160,136,0,500,200,8000,"[(512, 384), (512, 384), (512, 384), (512, 384), (512, 384), (512, 384), (512, 384), (512, 384), (512, 384), (512, 384), (512, 384), (512, 384), (512, 384), (512, 384), (512, 384), (512, 384), (512, 384), (512, 384), (512, 384), (512, 384), (512, 384), (512, 384), (512, 384), (512, 384), (512, 384), (512, 384), (512, 384), (512, 384), (512, 384), (512, 384), (512, 384), (512, 384), (512, 384), (512, 384), (512, 384), (512, 384), (512, 384), (512, 384), (512, 384), (512, 384), (512, 384), (512, 384), (512, 384), (512, 384), (512, 384), (512, 384), (512, 384), (512, 384), (512, 384), (512, 384), (512, 384), (512, 384), (512, 384), (512, 384), (511, 381), (493, 359), (456, 315), (440, 299), (427, 288), (412, 276), (395, 262), (388, 257), (382, 252), (376, 247), (365, 236), (358, 231), (352, 226), (347, 221), (341, 214), (337, 209), (334, 207)]",224.83860386487962,"[2, 3, 4, 7, 5, 6, 8, 9, 1]","(0, 0.25)",DOT009B,DOT,B,Chinese,Mon Oct 15 17:24:29 2018,Mouse
2,3,2,0,108,6,6,1,519,459,60,137,0,500,200,8000,"[(512, 384), (512, 384), (512, 384), (512, 384), (512, 384), (512, 384), (512, 384), (512, 384), (512, 384), (512, 384), (512, 384), (512, 384), (512, 384), (512, 384), (512, 384), (512, 384), (512, 384), (512, 384), (512, 384), (512, 384), (512, 384), (512, 384), (512, 384), (512, 384), (512, 384), (512, 384), (512, 384), (512, 384), (512, 384), (512, 384), (512, 384), (512, 384), (512, 384), (512, 384), (512, 384), (512, 384), (512, 384), (512, 384), (512, 384), (512, 384), (512, 384), (512, 384), (512, 384), (512, 384), (512, 384), (497, 371), (474, 355), (454, 338), (432, 314), (368, 260), (339, 235), (311, 216)]",219.88958243896877,"[2, 3, 4, 7, 5, 6, 8, 9, 1]","(0, 0.25)",DOT009B,DOT,B,Chinese,Mon Oct 15 17:24:29 2018,Mouse
2,3,2,0,109,8,8,1,500,460,40,137,0,500,200,8000,"[(512, 384), (512, 384), (512, 384), (512, 384), (512, 384), (512, 384), (512, 384), (512, 384), (512, 384), (512, 384), (512, 384), (512, 384), (512, 384), (512, 384), (512, 384), (512, 384), (512, 384), (512, 384), (512, 384), (512, 384), (512, 384), (512, 384), (512, 384), (512, 384), (512, 384), (512, 384), (512, 384), (512, 384), (512, 384), (512, 384), (512, 384), (512, 384), (512, 384), (512, 384), (512, 384), (512, 384), (512, 384), (512, 384), (512, 384), (512, 384), (512, 384), (512, 384), (512, 384), (512, 384), (512, 384), (512, 330), (512, 286), (512, 233), (512, 189), (498, 105)]",267.12735241083806,"[2, 3, 4, 7, 5, 6, 8, 9, 1]","(0, 0.25)",DOT009B,DOT,B,Chinese,Mon Oct 15 17:24:29 2018,Mouse
2,3,2,0,110,1,1,1,280,240,40,136,0,500,200,8000,"[(512, 384), (512, 384), (512, 384), (512, 384), (512, 384), (512, 384), (512, 384), (512, 384), (512, 384), (512, 384), (512, 384), (512, 384), (512, 384), (512, 384), (512, 384), (512, 384), (512, 384), (512, 384), (512, 384), (512, 384), (512, 384), (512, 384), (512, 384), (516, 385), (550, 369), (606, 346), (671, 318), (792, 269)]",337.67134362198084,"[2, 3, 4, 7, 5, 6, 8, 9, 1]","(0, 0.25)",DOT009B,DOT,B,Chinese,Mon Oct 15 17:24:29 2018,Mouse
2,3,2,0,111,1,1,1,261,211,50,135,0,500,200,8000,"[(512, 384), (512, 384), (512, 384), (512, 384), (512, 384), (512, 384), (512, 384), (512, 384), (512, 384), (512, 384), (512, 384), (512, 384), (512, 384), (512, 384), (512, 384), (512, 384), (512, 384), (512, 384), (512, 384), (512, 384), (512, 384), (523, 377), (550, 363), (589, 352), (698, 330), (747, 322), (796, 314)]",346.1537915881735,"[2, 3, 4, 7, 5, 6, 8, 9, 1]","(0, 0.25)",DOT009B,DOT,B,Chinese,Mon Oct 15 17:24:29 2018,Mouse
2,3,2,0,112,6,6,1,610,570,40,134,0,500,200,8000,"[(512, 384), (512, 384), (512, 384), (512, 384), (512, 384), (512, 384), (512, 384), (512, 384), (512, 384), (512, 384), (512, 384), (512, 384), (512, 384), (512, 384), (512, 384), (512, 384), (512, 384), (512, 384), (512, 384), (512, 384), (512, 384), (512, 384), (512, 384), (512, 384), (512, 384), (512, 384), (512, 384), (512, 384), (512, 384), (512, 384), (512, 384), (512, 384), (512, 384), (512, 384), (512, 384), (512, 384), (512, 384), (512, 384), (512, 384), (512, 384), (512, 384), (512, 384), (512, 384), (512, 384), (512, 384), (512, 384), (512, 384), (512, 384), (512, 384), (512, 384), (512, 384), (512, 384), (512, 384), (512, 384), (512, 384), (512, 384), (506, 381), (422, 312), (366, 269), (313, 233), (266, 200)]",216.79529380843132,"[2, 3, 4, 7, 5, 6, 8, 9, 1]","(0, 0.25)",DOT009B,DOT,B,Chinese,Mon Oct 15 17:24:29 2018,Mouse
2,3,2,0,113,8,8,1,830,800,30,133,0,500,200,8000,"[(512, 384), (512, 384), (512, 384), (512, 384), (512, 384), (512, 384), (512, 384), (512, 384), (512, 384), (512, 384), (512, 384), (512, 384), (512, 384), (512, 384), (512, 384), (512, 384), (512, 384), (512, 384), (512, 384), (512, 384), (512, 384), (512, 384), (512, 384), (512, 384), (512, 384), (512, 384), (512, 384), (512, 384), (512, 384), (512, 384), (512, 384), (512, 384), (512, 384), (512, 384), (512, 384), (512, 384), (512, 384), (512, 384), (512, 384), (512, 384), (512, 384), (512, 384), (512, 384), (512, 384), (512, 384), (512, 384), (512, 384), (512, 384), (512, 384), (512, 384), (512, 384), (512, 384), (512, 384), (512, 384), (512, 384), (512, 384), (512, 384), (512, 384), (512, 384), (512, 384), (512, 384), (512, 384), (512, 384), (512, 384), (512, 384), (512, 384), (512, 384), (512, 384), (512, 384), (512, 384), (512, 384), (512, 384), (512, 384), (512, 384), (512, 384), (512, 384), (512, 384), (512, 384), (512, 384), (502, 362), (463, 224), (449, 163), (433, 111)]",253.86075734880677,"[2, 3, 4, 7, 5, 6, 8, 9, 1]","(0, 0.25)",DOT009B,DOT,B,Chinese,Mon Oct 15 17:24:29 2018,Mouse
2,3,2,0,114,2,3,0,-428,398,30,132,0,500,200,8000,"[(512, 384), (512, 384), (512, 384), (512, 384), (512, 384), (512, 384), (512, 384), (512, 384), (512, 384), (512, 384), (512, 384), (512, 384), (512, 384), (512, 384), (512, 384), (512, 384), (512, 384), (512, 384), (512, 384), (512, 384), (512, 384), (512, 384), (512, 384), (512, 384), (512, 384), (512, 384), (512, 384), (512, 384), (512, 384), (512, 384), (512, 384), (512, 384), (512, 384), (512, 384), (512, 384), (512, 384), (512, 384), (512, 384), (512, 384), (516, 402), (532, 455), (565, 603), (582, 669)]",76.20051460398064,"[2, 3, 4, 7, 5, 6, 8, 9, 1]","(0, 0.25)",DOT009B,DOT,B,Chinese,Mon Oct 15 17:24:29 2018,Mouse
2,3,2,0,115,1,2,0,-200,120,80,133,0,500,200,8000,"[(512, 384), (512, 384), (512, 384), (512, 384), (512, 384), (512, 384), (512, 384), (512, 384), (512, 384), (512, 384), (512, 384), (514, 383), (527, 383), (542, 383), (575, 383), (595, 389), (628, 396), (664, 405), (725, 422), (764, 433)]",11.003540851749504,"[2, 3, 4, 7, 5, 6, 8, 9, 1]","(0, 0.25)",DOT009B,DOT,B,Chinese,Mon Oct 15 17:24:29 2018,Mouse
2,3,2,0,116,8,6,0,-680,630,50,134,0,500,200,8000,"[(512, 384), (512, 384), (512, 384), (512, 384), (512, 384), (512, 384), (512, 384), (512, 384), (512, 384), (512, 384), (512, 384), (512, 384), (512, 384), (512, 384), (512, 384), (512, 384), (512, 384), (512, 384), (512, 384), (512, 384), (512, 384), (512, 384), (512, 384), (512, 384), (512, 384), (512, 384), (512, 384), (512, 384), (512, 384), (512, 384), (512, 384), (512, 384), (512, 384), (512, 384), (512, 384), (512, 384), (512, 384), (512, 384), (512, 384), (512, 384), (512, 384), (512, 384), (512, 384), (512, 384), (512, 384), (512, 384), (512, 384), (512, 384), (512, 384), (512, 384), (512, 384), (512, 384), (512, 384), (512, 384), (512, 384), (512, 384), (512, 384), (512, 384), (512, 384), (512, 384), (512, 384), (512, 384), (509, 383), (487, 358), (465, 323), (437, 293), (372, 216), (347, 187)]",230.05168934376243,"[2, 3, 4, 7, 5, 6, 8, 9, 1]","(0, 0.25)",DOT009B,DOT,B,Chinese,Mon Oct 15 17:24:29 2018,Mouse
2,3,2,0,117,7,6,0,-350,290,60,135,0,500,200,8000,"[(512, 384), (512, 384), (512, 384), (512, 384), (512, 384), (512, 384), (512, 384), (512, 384), (512, 384), (512, 384), (512, 384), (512, 384), (512, 384), (512, 384), (512, 384), (512, 384), (512, 384), (512, 384), (512, 384), (512, 384), (512, 384), (512, 384), (512, 384), (512, 384), (512, 384), (512, 384), (512, 384), (512, 384), (505, 369), (483, 343), (428, 275), (396, 245), (366, 217), (345, 198), (307, 166)]",226.7603091305793,"[2, 3, 4, 7, 5, 6, 8, 9, 1]","(0, 0.25)",DOT009B,DOT,B,Chinese,Mon Oct 15 17:24:29 2018,Mouse
2,3,2,0,118,7,7,1,731,661,70,136,0,500,200,8000,"[(512, 384), (512, 384), (512, 384), (512, 384), (512, 384), (512, 384), (512, 384), (512, 384), (512, 384), (512, 384), (512, 384), (512, 384), (512, 384), (512, 384), (512, 384), (512, 384), (512, 384), (512, 384), (512, 384), (512, 384), (512, 384), (512, 384), (512, 384), (512, 384), (512, 384), (512, 384), (512, 384), (512, 384), (512, 384), (512, 384), (512, 384), (512, 384), (512, 384), (512, 384), (512, 384), (512, 384), (512, 384), (512, 384), (512, 384), (512, 384), (512, 384), (512, 384), (512, 384), (512, 384), (512, 384), (512, 384), (512, 384), (512, 384), (512, 384), (512, 384), (512, 384), (512, 384), (512, 384), (512, 384), (512, 384), (512, 384), (512, 384), (512, 384), (512, 384), (512, 384), (512, 384), (512, 384), (512, 384), (512, 384), (512, 384), (512, 384), (513, 385), (513, 389), (492, 407), (470, 423), (444, 442), (418, 465), (352, 519), (318, 546)]",140.13637849242775,"[2, 3, 4, 7, 5, 6, 8, 9, 1]","(0, 0.25)",DOT009B,DOT,B,Chinese,Mon Oct 15 17:24:29 2018,Mouse
2,3,2,0,119,1,1,1,200,150,50,136,0,500,200,8000,"[(512, 384), (512, 384), (512, 384), (512, 384), (512, 384), (512, 384), (512, 384), (512, 384), (512, 384), (512, 384), (512, 384), (512, 384), (512, 384), (512, 384), (515, 384), (550, 380), (592, 369), (639, 353), (728, 330), (775, 316)]",345.5033539277722,"[2, 3, 4, 7, 5, 6, 8, 9, 1]","(0, 0.25)",DOT009B,DOT,B,Chinese,Mon Oct 15 17:24:29 2018,Mouse
2,3,2,0,120,4,6,0,-1590,1230,360,135,0,500,200,8000,"[(512, 384), (512, 384), (512, 384), (512, 384), (512, 384), (512, 384), (512, 384), (512, 384), (512, 384), (512, 384), (512, 384), (512, 384), (512, 384), (512, 384), (512, 384), (512, 384), (512, 384), (512, 384), (512, 384), (512, 384), (512, 384), (512, 384), (512, 384), (512, 384), (512, 384), (512, 384), (512, 384), (512, 384), (512, 384), (512, 384), (512, 384), (512, 384), (512, 384), (512, 384), (512, 384), (512, 384), (512, 384), (512, 384), (512, 384), (512, 384), (512, 384), (512, 384), (512, 384), (512, 384), (512, 384), (512, 384), (512, 384), (512, 384), (512, 384), (512, 384), (512, 384), (512, 384), (512, 384), (512, 384), (512, 384), (512, 384), (512, 384), (512, 384), (512, 384), (512, 384), (512, 384), (512, 384), (512, 384), (512, 384), (512, 384), (512, 384), (512, 384), (512, 384), (512, 384), (512, 384), (512, 384), (512, 384), (512, 384), (512, 384), (512, 384), (512, 384), (512, 384), (512, 384), (512, 384), (512, 384), (512, 384), (512, 384), (512, 384), (512, 384), (512, 384), (512, 384), (512, 384), (512, 384), (512, 384), (512, 384), (512, 384), (512, 384), (512, 384), (512, 384), (512, 384), (512, 384), (512, 384), (512, 384), (512, 384), (512, 384), (512, 384), (512, 384), (512, 384), (512, 384), (512, 384), (512, 384), (512, 384), (512, 384), (512, 384), (512, 384), (512, 384), (512, 384), (512, 384), (512, 384), (512, 384), (512, 384), (512, 384), (512, 384), (512, 384), (512, 384), (512, 384), (512, 384), (510, 384), (510, 384), (508, 383), (506, 382), (506, 382), (506, 382), (504, 382), (504, 381), (504, 381), (504, 381), (502, 380), (502, 380), (502, 380), (502, 380), (502, 380), (501, 380), (501, 380), (501, 380), (501, 380), (501, 380), (501, 380), (501, 380), (501, 380), (501, 380), (501, 380), (501, 380), (501, 380), (501, 380), (501, 380), (500, 379), (494, 371), (480, 353), (431, 300), (403, 271), (380, 251), (351, 228), (321, 202)]",223.61779630330304,"[2, 3, 4, 7, 5, 6, 8, 9, 1]","(0, 0.25)",DOT009B,DOT,B,Chinese,Mon Oct 15 17:24:29 2018,Mouse
2,3,2,0,121,7,9,0,-329,289,40,136,0,500,200,8000,"[(512, 384), (512, 384), (512, 384), (512, 384), (512, 384), (512, 384), (512, 384), (512, 384), (512, 384), (512, 384), (512, 384), (512, 384), (512, 384), (512, 384), (512, 384), (512, 384), (512, 384), (512, 384), (512, 384), (512, 384), (512, 384), (512, 384), (512, 384), (512, 384), (512, 384), (512, 384), (512, 384), (512, 384), (517, 384), (540, 352), (573, 315), (645, 222), (673, 178)]",308.00952565694104,"[2, 3, 4, 7, 5, 6, 8, 9, 1]","(0, 0.25)",DOT009B,DOT,B,Chinese,Mon Oct 15 17:24:29 2018,Mouse
