NativeLangNumber,LanuageNumber,SessionNumber,Block,TrialNum,ConditionNumber,Response,Accuracy,RT,MovementOnsetTime,TimeInMotion,SignalContrast,SignalContrastNumber,StimDisplayTime,MaskTime,MaxResponseTime,MousePositionXY,MouseAngle,WheelOrder,NoiseMuSigma,ParticipantID,LanuageTested,SessionTested,NativeLanuage,Date,ResponseDevice
2,3,3,0,1,3,3,1,1595,195,1400,153,0,500,200,8000,"[(512, 384), (512, 384), (512, 384), (512, 384), (512, 384), (512, 384), (512, 384), (512, 384), (512, 384), (512, 384), (512, 384), (512, 384), (512, 384), (512, 384), (512, 384), (512, 384), (512, 384), (512, 384), (512, 384), (511, 384), (511, 384), (511, 384), (511, 384), (511, 384), (511, 384), (510, 384), (510, 384), (510, 384), (510, 384), (510, 384), (510, 385), (510, 385), (510, 385), (510, 385), (509, 385), (509, 385), (509, 385), (508, 385), (508, 385), (507, 385), (507, 384), (507, 384), (507, 384), (507, 384), (507, 384), (507, 384), (507, 384), (507, 384), (507, 384), (507, 384), (507, 384), (507, 384), (507, 384), (507, 384), (507, 384), (507, 384), (506, 384), (506, 384), (506, 384), (506, 384), (506, 384), (506, 384), (506, 384), (506, 384), (506, 384), (506, 384), (506, 384), (506, 384), (506, 384), (506, 384), (506, 384), (506, 384), (506, 384), (506, 384), (506, 384), (506, 384), (505, 384), (505, 384), (505, 384), (505, 384), (505, 384), (505, 384), (505, 384), (505, 384), (505, 384), (505, 384), (505, 384), (505, 384), (505, 384), (505, 384), (505, 384), (505, 384), (505, 384), (505, 384), (505, 384), (505, 384), (505, 384), (505, 384), (505, 384), (505, 384), (505, 384), (505, 384), (505, 384), (505, 384), (505, 384), (505, 384), (505, 384), (505, 384), (505, 384), (505, 384), (505, 384), (505, 384), (505, 384), (505, 384), (505, 384), (505, 384), (505, 384), (505, 384), (505, 384), (505, 384), (505, 384), (505, 384), (505, 384), (505, 384), (505, 384), (505, 384), (505, 384), (505, 384), (505, 384), (505, 384), (505, 384), (505, 384), (505, 384), (505, 384), (505, 384), (505, 384), (505, 384), (505, 384), (505, 384), (505, 384), (505, 384), (505, 384), (505, 384), (505, 384), (505, 384), (505, 384), (506, 383), (507, 383), (509, 383), (510, 382), (513, 382), (519, 382), (527, 382), (535, 382), (566, 388), (589, 398), (622, 406), (666, 418), (753, 445), (791, 454)]",14.0845535572479,"[3, 9, 6, 2, 5, 4, 8, 1, 7]","(0, 0.25)",DOT007C,DOT,C,Chinese,Fri Oct 19 17:13:58 2018,Mouse
2,3,3,0,2,8,8,1,834,494,340,153,0,500,200,8000,"[(512, 384), (512, 384), (512, 384), (512, 384), (512, 384), (512, 384), (512, 384), (512, 384), (512, 384), (512, 384), (512, 384), (512, 384), (512, 384), (512, 384), (512, 384), (512, 384), (512, 384), (512, 384), (512, 384), (512, 384), (512, 384), (512, 384), (512, 384), (512, 384), (512, 384), (512, 384), (512, 384), (512, 384), (512, 384), (512, 384), (512, 384), (512, 384), (512, 384), (512, 384), (512, 384), (512, 384), (512, 384), (512, 384), (512, 384), (512, 384), (512, 384), (512, 384), (512, 384), (512, 384), (512, 384), (512, 384), (512, 384), (512, 384), (512, 384), (512, 383), (512, 383), (512, 383), (512, 383), (512, 383), (512, 382), (512, 381), (512, 381), (512, 381), (512, 381), (512, 381), (512, 381), (512, 381), (512, 381), (512, 381), (512, 381), (512, 381), (512, 380), (512, 378), (512, 377), (512, 370), (512, 366), (512, 359), (515, 348), (520, 322), (521, 308), (522, 291), (522, 271), (522, 232), (522, 212), (522, 193), (522, 173), (522, 145), (522, 136), (522, 128)]",272.23697906343773,"[3, 9, 6, 2, 5, 4, 8, 1, 7]","(0, 0.25)",DOT007C,DOT,C,Chinese,Fri Oct 19 17:13:58 2018,Mouse
2,3,3,0,3,1,1,1,335,15,320,152,0,500,200,8000,"[(512, 384), (513, 382), (514, 378), (514, 377), (515, 375), (516, 370), (519, 366), (520, 362), (521, 359), (525, 355), (528, 349), (529, 346), (532, 342), (537, 334), (541, 329), (542, 327), (545, 322), (550, 317), (553, 314), (555, 311), (558, 307), (568, 294), (574, 287), (578, 281), (582, 276), (590, 267), (594, 263), (599, 258), (604, 253), (614, 241), (622, 233), (630, 222), (638, 210), (657, 180)]",305.40461769789727,"[3, 9, 6, 2, 5, 4, 8, 1, 7]","(0, 0.25)",DOT007C,DOT,C,Chinese,Fri Oct 19 17:13:58 2018,Mouse
2,3,3,0,4,6,6,1,441,11,430,151,0,500,200,8000,"[(512, 384), (510, 386), (510, 387), (508, 388), (507, 390), (506, 391), (506, 392), (506, 392), (505, 394), (505, 394), (505, 394), (505, 394), (504, 394), (504, 395), (504, 395), (503, 395), (503, 396), (503, 397), (503, 398), (501, 399), (501, 400), (501, 402), (501, 403), (501, 405), (500, 406), (499, 410), (498, 412), (497, 413), (497, 414), (496, 417), (494, 418), (494, 418), (494, 420), (493, 426), (491, 434), (489, 442), (486, 451), (478, 478), (475, 494), (470, 513), (468, 532), (462, 574), (456, 601), (453, 622), (448, 652)]",103.43102887068167,"[3, 9, 6, 2, 5, 4, 8, 1, 7]","(0, 0.25)",DOT007C,DOT,C,Chinese,Fri Oct 19 17:13:58 2018,Mouse
2,3,3,0,5,4,4,1,692,352,340,150,0,500,200,8000,"[(512, 384), (512, 384), (512, 384), (512, 384), (512, 384), (512, 384), (512, 384), (512, 384), (512, 384), (512, 384), (512, 384), (512, 384), (512, 384), (512, 384), (512, 384), (512, 384), (512, 384), (512, 384), (512, 384), (512, 384), (512, 384), (512, 384), (512, 384), (512, 384), (512, 384), (512, 384), (512, 384), (512, 384), (512, 384), (512, 384), (512, 384), (512, 384), (512, 384), (512, 384), (512, 384), (510, 384), (507, 384), (503, 380), (499, 378), (494, 373), (490, 369), (479, 358), (471, 351), (466, 347), (460, 342), (446, 331), (442, 329), (437, 324), (433, 321), (424, 313), (421, 310), (417, 308), (412, 304), (404, 297), (398, 294), (392, 289), (387, 286), (373, 274), (367, 270), (363, 267), (357, 263), (351, 260), (348, 258), (344, 255), (342, 252), (337, 249), (333, 244), (329, 240), (325, 235), (315, 225)]",218.90722834266393,"[3, 9, 6, 2, 5, 4, 8, 1, 7]","(0, 0.25)",DOT007C,DOT,C,Chinese,Fri Oct 19 17:13:58 2018,Mouse
2,3,3,0,6,5,5,1,603,202,401,149,0,500,200,8000,"[(512, 384), (512, 384), (512, 384), (512, 384), (512, 384), (512, 384), (512, 384), (512, 384), (512, 384), (512, 384), (512, 384), (512, 384), (512, 384), (512, 384), (512, 384), (512, 384), (512, 384), (512, 384), (512, 384), (512, 384), (511, 385), (511, 385), (511, 385), (511, 385), (511, 385), (511, 385), (510, 386), (509, 386), (509, 386), (509, 386), (509, 386), (509, 386), (508, 386), (508, 386), (508, 386), (508, 386), (508, 386), (506, 386), (506, 386), (505, 387), (505, 387), (505, 387), (505, 387), (505, 387), (504, 387), (504, 387), (503, 387), (501, 387), (496, 389), (489, 389), (481, 389), (472, 389), (451, 389), (436, 389), (419, 389), (397, 389), (349, 389), (310, 389), (288, 389), (268, 389), (226, 389)]",178.99842756434424,"[3, 9, 6, 2, 5, 4, 8, 1, 7]","(0, 0.25)",DOT007C,DOT,C,Chinese,Fri Oct 19 17:13:58 2018,Mouse
2,3,3,0,7,2,2,1,724,34,690,148,0,500,200,8000,"[(512, 384), (512, 384), (512, 384), (512, 383), (512, 383), (512, 383), (512, 383), (512, 383), (512, 383), (512, 383), (512, 382), (512, 381), (513, 380), (513, 380), (513, 380), (513, 379), (514, 377), (514, 377), (514, 375), (515, 374), (516, 373), (516, 371), (516, 369), (516, 368), (516, 367), (516, 367), (518, 366), (518, 366), (518, 365), (518, 364), (518, 364), (518, 363), (518, 362), (518, 362), (519, 361), (519, 361), (519, 361), (519, 360), (519, 360), (519, 360), (519, 360), (519, 360), (519, 360), (519, 360), (519, 360), (519, 360), (519, 360), (519, 360), (519, 360), (519, 360), (519, 360), (519, 359), (519, 359), (518, 359), (515, 359), (512, 362), (509, 364), (503, 368), (485, 381), (472, 389), (460, 396), (450, 401), (428, 413), (418, 420), (408, 424), (398, 430), (374, 440), (364, 443), (351, 452), (340, 460), (308, 477), (291, 486), (277, 493)]",155.11672516845553,"[3, 9, 6, 2, 5, 4, 8, 1, 7]","(0, 0.25)",DOT007C,DOT,C,Chinese,Fri Oct 19 17:13:58 2018,Mouse
2,3,3,0,8,8,8,1,980,20,960,147,0,500,200,8000,"[(512, 382), (512, 381), (512, 381), (512, 380), (512, 379), (512, 378), (512, 377), (512, 376), (512, 376), (512, 375), (512, 375), (512, 374), (512, 374), (511, 373), (511, 373), (511, 372), (511, 371), (509, 369), (508, 368), (508, 368), (507, 368), (505, 367), (504, 365), (502, 365), (502, 365), (500, 364), (500, 364), (500, 363), (499, 362), (499, 362), (499, 362), (498, 362), (498, 362), (497, 362), (497, 362), (495, 362), (495, 361), (491, 360), (489, 359), (485, 358), (484, 357), (480, 356), (480, 356), (478, 356), (477, 356), (477, 355), (477, 355), (477, 355), (477, 355), (477, 355), (477, 355), (477, 355), (477, 355), (477, 355), (477, 355), (477, 355), (477, 355), (477, 355), (477, 355), (477, 355), (476, 355), (476, 355), (476, 354), (476, 353), (476, 353), (477, 352), (477, 352), (478, 351), (478, 349), (478, 349), (478, 347), (478, 347), (478, 347), (478, 346), (478, 346), (478, 344), (478, 344), (478, 343), (478, 343), (478, 343), (478, 343), (478, 343), (478, 341), (478, 339), (478, 333), (482, 315), (483, 302), (484, 287), (484, 274), (484, 245), (484, 229), (484, 214), (483, 202), (480, 184), (480, 174), (480, 165), (480, 152), (480, 132)]",262.763077974032,"[3, 9, 6, 2, 5, 4, 8, 1, 7]","(0, 0.25)",DOT007C,DOT,C,Chinese,Fri Oct 19 17:13:58 2018,Mouse
2,3,3,0,9,2,2,1,482,242,240,146,0,500,200,8000,"[(512, 384), (512, 384), (512, 384), (512, 384), (512, 384), (512, 384), (512, 384), (512, 384), (512, 384), (512, 384), (512, 384), (512, 384), (512, 384), (512, 384), (512, 384), (512, 384), (512, 384), (512, 384), (512, 384), (512, 384), (512, 384), (512, 384), (512, 384), (512, 384), (512, 383), (512, 383), (512, 383), (511, 383), (508, 384), (507, 384), (506, 385), (506, 385), (503, 386), (500, 390), (497, 394), (496, 400), (488, 411), (484, 419), (479, 425), (472, 433), (460, 448), (452, 457), (443, 469), (433, 483), (401, 519), (385, 535), (370, 547), (356, 557), (338, 570)]",133.09084756700364,"[3, 9, 6, 2, 5, 4, 8, 1, 7]","(0, 0.25)",DOT007C,DOT,C,Chinese,Fri Oct 19 17:13:58 2018,Mouse
2,3,3,0,10,4,4,1,725,185,540,145,0,500,200,8000,"[(512, 384), (512, 384), (512, 384), (512, 384), (512, 384), (512, 384), (512, 384), (512, 384), (512, 384), (512, 384), (512, 384), (512, 384), (512, 384), (512, 384), (512, 384), (512, 384), (512, 384), (512, 384), (512, 383), (512, 383), (512, 383), (512, 383), (512, 382), (512, 382), (512, 382), (512, 382), (512, 382), (512, 382), (512, 381), (512, 381), (512, 381), (512, 381), (512, 380), (512, 380), (512, 379), (512, 379), (511, 378), (511, 378), (510, 375), (509, 375), (507, 371), (506, 368), (506, 368), (505, 366), (503, 364), (503, 363), (503, 363), (501, 362), (500, 361), (499, 360), (497, 358), (494, 357), (487, 347), (481, 341), (479, 338), (474, 333), (464, 321), (460, 318), (454, 312), (450, 307), (439, 293), (434, 288), (425, 283), (418, 276), (397, 261), (388, 255), (378, 248), (368, 240), (352, 229), (343, 222), (338, 220), (333, 216), (320, 207)]",222.67218491095886,"[3, 9, 6, 2, 5, 4, 8, 1, 7]","(0, 0.25)",DOT007C,DOT,C,Chinese,Fri Oct 19 17:13:58 2018,Mouse
2,3,3,0,11,5,5,1,621,161,460,144,0,500,200,8000,"[(512, 384), (512, 384), (512, 384), (512, 384), (512, 384), (512, 384), (512, 384), (512, 384), (512, 384), (512, 384), (512, 384), (512, 384), (512, 384), (512, 384), (512, 384), (512, 384), (511, 384), (511, 384), (509, 385), (509, 385), (508, 385), (508, 385), (508, 385), (508, 385), (506, 386), (506, 386), (506, 386), (506, 386), (505, 387), (505, 387), (505, 387), (504, 387), (504, 388), (504, 388), (504, 388), (504, 388), (502, 388), (502, 388), (502, 388), (502, 388), (500, 389), (498, 390), (498, 390), (498, 390), (496, 391), (496, 391), (496, 391), (496, 391), (495, 392), (494, 392), (493, 392), (493, 392), (489, 392), (485, 392), (480, 392), (470, 392), (444, 392), (429, 392), (409, 392), (381, 392), (311, 392), (275, 392), (234, 392)]",178.35165549510387,"[3, 9, 6, 2, 5, 4, 8, 1, 7]","(0, 0.25)",DOT007C,DOT,C,Chinese,Fri Oct 19 17:13:58 2018,Mouse
2,3,3,0,12,3,3,1,1233,312,921,143,0,500,200,8000,"[(512, 384), (512, 384), (512, 384), (512, 384), (512, 384), (512, 384), (512, 384), (512, 384), (512, 384), (512, 384), (512, 384), (512, 384), (512, 384), (512, 384), (512, 384), (512, 384), (512, 384), (512, 384), (512, 384), (512, 384), (512, 384), (512, 384), (512, 384), (512, 384), (512, 384), (512, 384), (512, 384), (512, 384), (512, 384), (512, 384), (512, 384), (512, 383), (512, 383), (512, 383), (512, 383), (512, 383), (512, 383), (512, 383), (512, 383), (512, 383), (512, 383), (512, 383), (512, 383), (512, 383), (512, 383), (512, 383), (512, 383), (512, 383), (512, 383), (512, 383), (512, 383), (512, 383), (512, 383), (512, 383), (512, 383), (512, 383), (512, 383), (512, 383), (512, 383), (512, 383), (512, 382), (512, 382), (512, 382), (512, 382), (512, 382), (512, 382), (512, 382), (512, 382), (512, 382), (512, 382), (512, 382), (512, 382), (512, 382), (512, 382), (512, 382), (512, 382), (512, 382), (512, 382), (512, 382), (512, 382), (512, 382), (512, 382), (512, 382), (512, 382), (512, 382), (512, 382), (512, 382), (512, 382), (512, 382), (512, 382), (512, 382), (512, 382), (512, 382), (512, 382), (512, 382), (512, 382), (512, 382), (512, 382), (512, 382), (512, 382), (515, 383), (519, 384), (522, 385), (527, 388), (532, 390), (544, 395), (550, 397), (557, 399), (563, 400), (581, 405), (588, 408), (597, 413), (604, 415), (620, 423), (627, 425), (637, 430), (645, 435), (665, 445), (676, 451), (685, 458), (698, 465), (711, 469), (735, 481), (748, 487)]",23.57841418660282,"[3, 9, 6, 2, 5, 4, 8, 1, 7]","(0, 0.25)",DOT007C,DOT,C,Chinese,Fri Oct 19 17:13:58 2018,Mouse
2,3,3,0,13,8,8,1,852,12,840,142,0,500,200,8000,"[(512, 384), (511, 384), (509, 383), (509, 383), (508, 383), (508, 383), (508, 382), (508, 382), (508, 382), (507, 381), (506, 380), (504, 379), (504, 379), (504, 378), (503, 378), (502, 377), (502, 377), (500, 376), (497, 374), (495, 374), (494, 374), (492, 372), (488, 371), (488, 371), (486, 370), (485, 370), (482, 369), (482, 368), (482, 368), (482, 368), (482, 368), (482, 368), (482, 368), (482, 368), (481, 368), (481, 368), (481, 368), (481, 368), (481, 367), (481, 367), (481, 367), (481, 366), (480, 365), (480, 365), (480, 365), (480, 365), (479, 364), (479, 364), (479, 364), (479, 364), (479, 363), (479, 363), (479, 362), (479, 362), (479, 359), (478, 357), (478, 356), (478, 353), (477, 350), (477, 348), (477, 345), (477, 341), (477, 331), (477, 323), (477, 313), (477, 305), (477, 284), (477, 276), (477, 268), (476, 260), (473, 245), (473, 241), (472, 235), (471, 232), (469, 227), (468, 222), (467, 219), (467, 214), (464, 198), (462, 190), (460, 180), (458, 171), (457, 157), (455, 152), (454, 143), (454, 136)]",256.8367675103005,"[3, 9, 6, 2, 5, 4, 8, 1, 7]","(0, 0.25)",DOT007C,DOT,C,Chinese,Fri Oct 19 17:13:58 2018,Mouse
2,3,3,0,14,5,5,1,607,27,580,141,0,500,200,8000,"[(511, 384), (511, 384), (510, 384), (509, 384), (509, 384), (509, 384), (509, 384), (509, 384), (509, 384), (509, 384), (509, 384), (509, 384), (508, 384), (507, 385), (507, 385), (506, 385), (506, 385), (506, 385), (505, 385), (505, 385), (504, 386), (504, 386), (503, 386), (502, 386), (500, 386), (500, 386), (499, 386), (498, 387), (497, 387), (497, 387), (497, 387), (497, 387), (497, 387), (497, 387), (495, 387), (495, 387), (494, 387), (492, 387), (491, 387), (490, 387), (486, 387), (483, 387), (481, 387), (477, 387), (467, 387), (460, 387), (453, 387), (445, 387), (421, 387), (408, 387), (396, 387), (385, 387), (363, 386), (351, 386), (339, 385), (329, 385), (309, 385), (297, 385), (287, 385), (276, 385), (253, 385)]",179.77878187333513,"[3, 9, 6, 2, 5, 4, 8, 1, 7]","(0, 0.25)",DOT007C,DOT,C,Chinese,Fri Oct 19 17:13:58 2018,Mouse
2,3,3,0,15,3,3,1,1532,232,1300,140,0,500,200,8000,"[(512, 384), (512, 384), (512, 384), (512, 384), (512, 384), (512, 384), (512, 384), (512, 384), (512, 384), (512, 384), (512, 384), (512, 384), (512, 384), (512, 384), (512, 384), (512, 384), (512, 384), (512, 384), (512, 384), (512, 384), (512, 384), (512, 384), (512, 384), (511, 385), (511, 385), (511, 386), (511, 386), (511, 386), (510, 386), (510, 386), (509, 386), (509, 386), (509, 386), (509, 386), (509, 386), (509, 386), (509, 386), (509, 386), (509, 386), (509, 386), (508, 386), (508, 386), (508, 386), (508, 386), (506, 387), (506, 387), (506, 387), (506, 387), (506, 387), (506, 387), (506, 387), (506, 387), (504, 388), (504, 388), (504, 388), (504, 388), (504, 388), (504, 388), (504, 388), (504, 388), (504, 388), (504, 388), (504, 388), (504, 388), (504, 388), (504, 388), (504, 388), (504, 388), (504, 388), (504, 388), (504, 388), (504, 388), (504, 388), (504, 388), (504, 388), (504, 388), (504, 388), (504, 388), (504, 388), (504, 388), (503, 387), (503, 386), (503, 386), (503, 384), (503, 382), (503, 382), (503, 381), (503, 381), (503, 381), (503, 381), (503, 381), (503, 381), (503, 381), (503, 381), (503, 380), (503, 380), (503, 378), (503, 378), (503, 377), (502, 375), (500, 371), (499, 370), (499, 370), (499, 369), (497, 367), (497, 366), (496, 365), (496, 365), (495, 364), (495, 364), (495, 364), (495, 364), (495, 364), (495, 364), (495, 364), (495, 364), (495, 364), (495, 364), (495, 364), (495, 364), (495, 364), (495, 364), (495, 364), (495, 364), (495, 364), (495, 364), (495, 364), (495, 364), (495, 364), (495, 364), (495, 364), (495, 364), (495, 364), (495, 364), (495, 364), (495, 364), (495, 364), (495, 364), (495, 363), (496, 363), (502, 363), (506, 365), (511, 367), (517, 370), (536, 378), (551, 385), (571, 394), (593, 400), (643, 419), (664, 423), (681, 428), (703, 433), (737, 438), (758, 440)]",12.824398102235152,"[3, 9, 6, 2, 5, 4, 8, 1, 7]","(0, 0.25)",DOT007C,DOT,C,Chinese,Fri Oct 19 17:13:58 2018,Mouse
2,3,3,0,16,6,6,1,531,161,370,139,0,500,200,8000,"[(512, 384), (512, 384), (512, 384), (512, 384), (512, 384), (512, 384), (512, 384), (512, 384), (512, 384), (512, 384), (512, 384), (512, 384), (512, 384), (512, 384), (512, 384), (512, 384), (511, 384), (510, 384), (508, 383), (508, 382), (508, 382), (507, 382), (507, 382), (507, 382), (506, 382), (506, 382), (506, 382), (506, 382), (506, 382), (506, 382), (506, 382), (506, 382), (506, 382), (505, 382), (505, 382), (505, 382), (504, 383), (504, 384), (504, 387), (504, 390), (499, 406), (496, 413), (494, 420), (491, 430), (483, 454), (480, 466), (473, 481), (470, 497), (458, 521), (452, 538), (442, 557), (433, 575), (417, 611), (409, 621)]",113.48972509902595,"[3, 9, 6, 2, 5, 4, 8, 1, 7]","(0, 0.25)",DOT007C,DOT,C,Chinese,Fri Oct 19 17:13:58 2018,Mouse
2,3,3,0,17,1,1,1,412,42,370,138,0,500,200,8000,"[(512, 384), (512, 384), (512, 384), (512, 384), (512, 383), (512, 382), (512, 380), (512, 379), (512, 377), (512, 377), (512, 375), (513, 372), (514, 371), (514, 370), (514, 369), (517, 364), (518, 362), (519, 359), (523, 352), (527, 347), (528, 344), (531, 337), (533, 329), (539, 312), (544, 303), (547, 299), (552, 288), (553, 285), (556, 279), (558, 274), (563, 264), (570, 245), (575, 237), (579, 229), (586, 216), (590, 210), (594, 202), (598, 197), (605, 186), (611, 179), (617, 169), (623, 159)]",296.2586595548073,"[3, 9, 6, 2, 5, 4, 8, 1, 7]","(0, 0.25)",DOT007C,DOT,C,Chinese,Fri Oct 19 17:13:58 2018,Mouse
2,3,3,0,18,2,2,1,633,333,300,137,0,500,200,8000,"[(512, 384), (512, 384), (512, 384), (512, 384), (512, 384), (512, 384), (512, 384), (512, 384), (512, 384), (512, 384), (512, 384), (512, 384), (512, 384), (512, 384), (512, 384), (512, 384), (512, 384), (512, 384), (512, 384), (512, 384), (512, 384), (512, 384), (512, 384), (512, 384), (512, 384), (512, 384), (512, 384), (512, 384), (512, 384), (512, 384), (512, 384), (512, 384), (512, 384), (511, 385), (511, 385), (511, 385), (510, 386), (509, 386), (509, 386), (509, 386), (507, 387), (507, 387), (506, 387), (504, 389), (504, 389), (498, 396), (493, 403), (486, 410), (481, 416), (464, 433), (454, 442), (442, 451), (430, 461), (402, 480), (390, 488), (377, 498), (367, 504), (352, 514), (344, 518), (338, 521), (332, 525), (321, 530), (314, 533), (304, 537)]",143.66265816665197,"[3, 9, 6, 2, 5, 4, 8, 1, 7]","(0, 0.25)",DOT007C,DOT,C,Chinese,Fri Oct 19 17:13:58 2018,Mouse
2,3,3,0,19,1,1,1,295,15,280,136,0,500,200,8000,"[(512, 384), (515, 381), (517, 378), (521, 375), (523, 373), (530, 366), (535, 361), (538, 357), (541, 355), (548, 346), (551, 343), (556, 336), (559, 333), (567, 324), (571, 319), (574, 316), (577, 312), (585, 298), (593, 288), (599, 277), (605, 268), (612, 251), (617, 241), (621, 232), (624, 223), (632, 207), (635, 200), (639, 190), (644, 180), (651, 163)]",302.1682209574699,"[3, 9, 6, 2, 5, 4, 8, 1, 7]","(0, 0.25)",DOT007C,DOT,C,Chinese,Fri Oct 19 17:13:58 2018,Mouse
2,3,3,0,20,9,2,0,-274,24,250,135,0,500,200,8000,"[(511, 386), (511, 386), (510, 386), (509, 387), (508, 388), (508, 388), (506, 391), (503, 394), (501, 396), (499, 398), (497, 400), (488, 408), (483, 413), (479, 416), (473, 421), (459, 435), (453, 441), (442, 452), (431, 461), (409, 477), (395, 487), (385, 493), (376, 499), (353, 512), (342, 518), (330, 525), (322, 529), (304, 539)]",143.30680427508614,"[3, 9, 6, 2, 5, 4, 8, 1, 7]","(0, 0.25)",DOT007C,DOT,C,Chinese,Fri Oct 19 17:13:58 2018,Mouse
2,3,3,0,21,5,1,0,-326,16,310,136,0,500,200,8000,"[(512, 383), (512, 382), (513, 378), (514, 375), (515, 372), (516, 370), (517, 365), (519, 361), (521, 359), (524, 355), (529, 345), (530, 342), (534, 334), (539, 328), (548, 313), (553, 307), (557, 300), (562, 292), (571, 275), (575, 267), (579, 260), (582, 253), (588, 238), (592, 231), (595, 223), (599, 216), (605, 205), (609, 199), (613, 193), (617, 185), (627, 172), (632, 165), (635, 161)]",298.87978914340806,"[3, 9, 6, 2, 5, 4, 8, 1, 7]","(0, 0.25)",DOT007C,DOT,C,Chinese,Fri Oct 19 17:13:58 2018,Mouse
2,3,3,0,22,1,5,0,-891,731,160,137,0,500,200,8000,"[(512, 384), (512, 384), (512, 384), (512, 384), (512, 384), (512, 384), (512, 384), (512, 384), (512, 384), (512, 384), (512, 384), (512, 384), (512, 384), (512, 384), (512, 384), (512, 384), (512, 384), (512, 384), (512, 384), (512, 384), (512, 384), (512, 384), (512, 384), (512, 384), (512, 384), (512, 384), (512, 384), (512, 384), (512, 384), (512, 384), (512, 384), (512, 384), (512, 384), (512, 384), (512, 384), (512, 384), (512, 384), (512, 384), (512, 384), (512, 384), (512, 384), (512, 384), (512, 384), (512, 384), (512, 384), (512, 384), (512, 384), (512, 384), (512, 384), (512, 384), (512, 384), (512, 384), (512, 384), (512, 384), (512, 384), (512, 384), (512, 384), (512, 384), (512, 384), (512, 384), (512, 384), (512, 384), (512, 384), (512, 384), (512, 384), (512, 384), (512, 384), (512, 384), (512, 384), (512, 384), (512, 384), (512, 384), (512, 384), (505, 384), (496, 384), (479, 384), (471, 384), (464, 384), (456, 384), (432, 384), (415, 384), (395, 384), (356, 384), (337, 384), (323, 384), (308, 384), (296, 384), (275, 384), (266, 384), (260, 384)]",180.0,"[3, 9, 6, 2, 5, 4, 8, 1, 7]","(0, 0.25)",DOT007C,DOT,C,Chinese,Fri Oct 19 17:13:58 2018,Mouse
2,3,3,0,23,5,5,1,302,182,120,138,0,500,200,8000,"[(512, 384), (512, 384), (512, 384), (512, 384), (512, 384), (512, 384), (512, 384), (512, 384), (512, 384), (512, 384), (512, 384), (512, 384), (512, 384), (512, 384), (512, 384), (512, 384), (512, 384), (512, 384), (511, 384), (508, 384), (504, 384), (496, 384), (474, 381), (460, 380), (442, 376), (402, 375), (383, 375), (360, 375), (324, 375), (263, 375), (238, 375)]",181.88130177070423,"[3, 9, 6, 2, 5, 4, 8, 1, 7]","(0, 0.25)",DOT007C,DOT,C,Chinese,Fri Oct 19 17:13:58 2018,Mouse
2,3,3,0,24,4,4,1,665,134,531,138,0,500,200,8000,"[(512, 384), (512, 384), (512, 384), (512, 384), (512, 384), (512, 384), (512, 384), (512, 384), (512, 384), (512, 384), (512, 384), (512, 384), (512, 384), (512, 383), (512, 383), (512, 383), (512, 383), (512, 383), (512, 383), (512, 382), (512, 382), (512, 382), (512, 381), (512, 381), (512, 380), (512, 379), (512, 379), (512, 378), (512, 378), (512, 378), (512, 378), (512, 378), (511, 377), (510, 377), (509, 375), (507, 374), (506, 373), (503, 370), (498, 364), (493, 358), (487, 352), (478, 345), (463, 335), (454, 328), (444, 321), (436, 316), (422, 303), (417, 297), (410, 287), (405, 278), (393, 263), (389, 255), (384, 250), (379, 245), (367, 234), (364, 231), (361, 229), (361, 228), (358, 225), (357, 225), (356, 223), (355, 221), (351, 217), (348, 215), (343, 210), (338, 206), (331, 202)]",225.15783921370186,"[3, 9, 6, 2, 5, 4, 8, 1, 7]","(0, 0.25)",DOT007C,DOT,C,Chinese,Fri Oct 19 17:13:58 2018,Mouse
2,3,3,0,25,3,3,1,282,12,270,137,0,500,200,8000,"[(516, 386), (520, 388), (524, 390), (532, 393), (545, 398), (549, 400), (558, 402), (562, 404), (573, 406), (577, 408), (583, 410), (590, 411), (602, 415), (609, 417), (614, 418), (620, 420), (628, 424), (631, 424), (635, 425), (640, 427), (653, 432), (660, 433), (670, 435), (678, 439), (698, 446), (710, 450), (726, 457), (743, 468), (789, 493)]",21.479727267115994,"[3, 9, 6, 2, 5, 4, 8, 1, 7]","(0, 0.25)",DOT007C,DOT,C,Chinese,Fri Oct 19 17:13:58 2018,Mouse
2,3,3,0,26,7,5,0,-1524,524,1000,136,0,500,200,8000,"[(512, 384), (512, 384), (512, 384), (512, 384), (512, 384), (512, 384), (512, 384), (512, 384), (512, 384), (512, 384), (512, 384), (512, 384), (512, 384), (512, 384), (512, 384), (512, 384), (512, 384), (512, 384), (512, 384), (512, 384), (512, 384), (512, 384), (512, 384), (512, 384), (512, 384), (512, 384), (512, 384), (512, 384), (512, 384), (512, 384), (512, 384), (512, 384), (512, 384), (512, 384), (512, 384), (512, 384), (512, 384), (512, 384), (512, 384), (512, 384), (512, 384), (512, 384), (512, 384), (512, 384), (512, 384), (512, 384), (512, 384), (512, 384), (512, 384), (512, 384), (512, 384), (512, 384), (511, 384), (509, 382), (508, 381), (502, 377), (500, 375), (498, 373), (497, 372), (496, 371), (496, 371), (496, 371), (496, 371), (496, 371), (496, 371), (496, 371), (496, 371), (496, 371), (496, 371), (496, 371), (496, 371), (496, 371), (496, 371), (496, 371), (496, 371), (496, 371), (496, 371), (496, 371), (496, 371), (496, 371), (496, 371), (496, 371), (496, 371), (496, 371), (496, 371), (496, 371), (496, 371), (496, 371), (496, 371), (496, 371), (496, 371), (496, 371), (496, 371), (496, 371), (496, 371), (496, 371), (496, 371), (496, 371), (496, 371), (496, 371), (496, 371), (496, 371), (496, 371), (496, 371), (496, 371), (496, 371), (496, 371), (496, 371), (496, 371), (496, 371), (496, 371), (496, 371), (496, 371), (496, 371), (496, 371), (496, 371), (496, 371), (496, 371), (496, 371), (496, 371), (496, 371), (496, 371), (496, 371), (496, 371), (496, 371), (496, 371), (496, 371), (496, 371), (496, 371), (496, 371), (496, 371), (496, 371), (496, 371), (496, 371), (496, 371), (496, 371), (496, 371), (496, 371), (496, 371), (494, 371), (493, 371), (489, 372), (487, 374), (478, 375), (472, 376), (465, 379), (456, 379), (433, 379), (416, 379), (391, 379), (360, 379), (268, 379), (220, 373)]",182.1573825092979,"[3, 9, 6, 2, 5, 4, 8, 1, 7]","(0, 0.25)",DOT007C,DOT,C,Chinese,Fri Oct 19 17:13:58 2018,Mouse
2,3,3,0,27,1,1,1,282,22,260,137,0,500,200,8000,"[(512, 384), (512, 384), (515, 384), (524, 384), (533, 384), (540, 385), (549, 386), (566, 390), (573, 391), (580, 391), (587, 393), (595, 393), (596, 393), (597, 393), (597, 393), (600, 393), (602, 393), (604, 391), (608, 389), (617, 380), (622, 370), (631, 357), (636, 344), (647, 310), (655, 282), (660, 265), (669, 245), (682, 214), (685, 203)]",313.70540048183574,"[3, 9, 6, 2, 5, 4, 8, 1, 7]","(0, 0.25)",DOT007C,DOT,C,Chinese,Fri Oct 19 17:13:58 2018,Mouse
2,3,3,0,28,1,1,1,320,40,280,137,0,500,200,8000,"[(512, 384), (512, 384), (512, 384), (515, 380), (517, 377), (518, 375), (522, 371), (524, 364), (525, 362), (527, 357), (529, 352), (529, 350), (530, 346), (531, 343), (533, 337), (534, 333), (534, 330), (535, 325), (537, 322), (539, 316), (539, 313), (539, 310), (543, 302), (548, 295), (553, 289), (557, 281), (559, 273), (571, 245), (576, 228), (584, 200), (596, 171), (616, 127)]",292.0316659005505,"[3, 9, 6, 2, 5, 4, 8, 1, 7]","(0, 0.25)",DOT007C,DOT,C,Chinese,Fri Oct 19 17:13:58 2018,Mouse
2,3,3,0,29,8,6,0,-1722,182,1540,136,0,500,200,8000,"[(512, 384), (512, 384), (512, 384), (512, 384), (512, 384), (512, 384), (512, 384), (512, 384), (512, 384), (512, 384), (512, 384), (512, 384), (512, 384), (512, 384), (512, 384), (512, 384), (512, 384), (512, 384), (511, 384), (511, 384), (511, 384), (511, 384), (511, 384), (511, 384), (511, 384), (511, 384), (511, 384), (511, 384), (511, 384), (510, 384), (510, 384), (510, 384), (509, 384), (508, 385), (508, 385), (508, 385), (508, 385), (508, 385), (508, 385), (508, 385), (508, 385), (508, 385), (508, 385), (508, 385), (507, 385), (506, 386), (506, 386), (505, 386), (505, 386), (505, 386), (504, 387), (504, 387), (504, 387), (504, 387), (504, 387), (504, 387), (503, 387), (503, 387), (503, 387), (503, 387), (503, 387), (503, 387), (503, 387), (503, 387), (503, 387), (503, 387), (503, 387), (503, 387), (503, 387), (503, 387), (503, 387), (503, 387), (503, 387), (503, 387), (503, 387), (503, 387), (503, 387), (503, 387), (503, 387), (503, 387), (503, 387), (503, 387), (503, 387), (503, 387), (503, 387), (503, 387), (503, 387), (503, 387), (503, 387), (503, 387), (503, 387), (503, 387), (503, 387), (503, 387), (503, 387), (503, 387), (503, 387), (503, 387), (503, 387), (503, 387), (503, 387), (503, 387), (503, 387), (503, 387), (503, 387), (503, 387), (503, 387), (503, 387), (503, 387), (503, 387), (503, 387), (503, 387), (503, 387), (503, 387), (503, 387), (503, 387), (503, 387), (503, 387), (503, 387), (503, 387), (503, 387), (503, 387), (503, 387), (503, 387), (503, 387), (503, 387), (503, 387), (503, 387), (503, 387), (503, 387), (503, 387), (503, 387), (503, 387), (503, 387), (503, 387), (503, 387), (503, 387), (503, 387), (503, 387), (503, 387), (503, 387), (503, 387), (503, 387), (503, 387), (503, 387), (503, 387), (503, 387), (503, 387), (503, 387), (503, 387), (503, 387), (502, 388), (502, 388), (502, 390), (502, 390), (502, 396), (502, 399), (501, 402), (500, 408), (496, 421), (491, 434), (489, 446), (483, 458), (474, 478), (472, 487), (468, 496), (464, 506), (456, 527), (451, 543), (447, 557), (445, 575), (438, 612), (437, 625)]",107.2863151670565,"[3, 9, 6, 2, 5, 4, 8, 1, 7]","(0, 0.25)",DOT007C,DOT,C,Chinese,Fri Oct 19 17:13:58 2018,Mouse
2,3,3,0,30,8,6,0,-425,305,120,137,0,500,200,8000,"[(512, 383), (512, 383), (512, 383), (512, 383), (512, 383), (512, 383), (512, 383), (512, 383), (512, 383), (512, 383), (512, 383), (512, 383), (512, 383), (512, 383), (512, 383), (512, 383), (512, 383), (512, 383), (512, 383), (512, 383), (512, 383), (512, 383), (512, 383), (512, 383), (512, 383), (512, 383), (512, 383), (512, 383), (512, 383), (512, 383), (511, 383), (511, 387), (510, 394), (509, 405), (509, 436), (509, 456), (509, 478), (509, 504), (509, 554), (509, 579), (509, 599), (507, 616), (504, 644)]",91.76239102366053,"[3, 9, 6, 2, 5, 4, 8, 1, 7]","(0, 0.25)",DOT007C,DOT,C,Chinese,Fri Oct 19 17:13:58 2018,Mouse
2,3,3,0,31,2,2,1,432,112,320,138,0,500,200,8000,"[(512, 384), (512, 384), (512, 384), (512, 384), (512, 384), (512, 384), (512, 384), (512, 384), (512, 384), (512, 384), (512, 384), (512, 383), (512, 379), (512, 378), (511, 377), (511, 374), (509, 370), (509, 368), (509, 367), (508, 366), (507, 366), (507, 366), (507, 366), (507, 366), (507, 366), (507, 365), (507, 365), (506, 365), (504, 365), (502, 365), (500, 365), (498, 367), (490, 372), (486, 374), (479, 379), (470, 387), (446, 406), (431, 417), (419, 428), (399, 442), (368, 462), (344, 476), (308, 495), (268, 514)]",151.95189424544694,"[3, 9, 6, 2, 5, 4, 8, 1, 7]","(0, 0.25)",DOT007C,DOT,C,Chinese,Fri Oct 19 17:13:58 2018,Mouse
2,3,3,0,32,5,5,1,430,40,390,138,0,500,200,8000,"[(511, 383), (511, 383), (511, 383), (510, 382), (510, 382), (510, 381), (510, 381), (509, 381), (509, 381), (508, 381), (506, 380), (502, 380), (500, 380), (497, 379), (495, 379), (492, 379), (489, 379), (487, 379), (484, 379), (479, 379), (476, 379), (473, 378), (471, 378), (468, 378), (466, 378), (464, 378), (464, 378), (460, 378), (458, 378), (455, 378), (455, 378), (447, 378), (440, 378), (430, 378), (419, 378), (398, 378), (384, 378), (367, 378), (351, 378), (309, 378), (289, 378), (264, 378), (244, 378)]",181.28252708271017,"[3, 9, 6, 2, 5, 4, 8, 1, 7]","(0, 0.25)",DOT007C,DOT,C,Chinese,Fri Oct 19 17:13:58 2018,Mouse
2,3,3,0,33,2,4,0,-837,17,820,137,0,500,200,8000,"[(513, 382), (514, 380), (518, 376), (518, 374), (524, 367), (526, 362), (528, 360), (530, 357), (533, 353), (534, 352), (534, 351), (534, 351), (534, 348), (534, 346), (533, 344), (533, 342), (533, 336), (533, 332), (533, 328), (533, 324), (533, 315), (533, 308), (530, 301), (529, 296), (523, 284), (519, 277), (518, 274), (515, 270), (514, 266), (513, 263), (512, 261), (512, 261), (512, 261), (512, 261), (511, 261), (510, 261), (509, 260), (508, 259), (505, 259), (504, 258), (498, 257), (497, 257), (494, 257), (491, 257), (483, 259), (477, 262), (471, 267), (467, 268), (453, 274), (446, 278), (441, 280), (435, 282), (432, 282), (430, 282), (428, 282), (426, 282), (423, 282), (420, 282), (417, 282), (413, 282), (404, 282), (398, 280), (394, 277), (387, 275), (383, 272), (382, 271), (382, 270), (382, 270), (382, 270), (382, 269), (382, 269), (384, 269), (384, 269), (384, 269), (384, 269), (384, 269), (385, 267), (385, 266), (380, 262), (370, 258), (349, 249), (336, 243), (323, 237), (311, 234)]",216.73282666448935,"[3, 9, 6, 2, 5, 4, 8, 1, 7]","(0, 0.25)",DOT007C,DOT,C,Chinese,Fri Oct 19 17:13:58 2018,Mouse
2,3,3,0,34,4,5,0,-613,133,480,138,0,500,200,8000,"[(512, 384), (512, 384), (512, 384), (512, 384), (512, 384), (512, 384), (512, 384), (512, 384), (512, 384), (512, 384), (512, 384), (512, 384), (512, 384), (510, 384), (509, 385), (508, 385), (506, 386), (505, 386), (503, 387), (501, 387), (498, 388), (498, 388), (496, 388), (494, 389), (491, 391), (488, 391), (487, 391), (486, 391), (485, 391), (485, 391), (485, 391), (485, 391), (482, 392), (481, 393), (477, 394), (475, 395), (474, 396), (474, 396), (474, 397), (474, 397), (471, 401), (470, 401), (470, 401), (469, 403), (465, 405), (462, 406), (457, 408), (454, 408), (439, 408), (429, 408), (420, 408), (410, 408), (388, 408), (376, 408), (364, 407), (351, 405), (330, 403), (320, 403), (310, 403), (299, 403), (271, 398), (255, 396)]",177.32665236641319,"[3, 9, 6, 2, 5, 4, 8, 1, 7]","(0, 0.25)",DOT007C,DOT,C,Chinese,Fri Oct 19 17:13:58 2018,Mouse
2,3,3,0,35,3,3,1,1392,202,1190,139,0,500,200,8000,"[(512, 384), (512, 384), (512, 384), (512, 384), (512, 384), (512, 384), (512, 384), (512, 384), (512, 384), (512, 384), (512, 384), (512, 384), (512, 384), (512, 384), (512, 384), (512, 384), (512, 384), (512, 384), (512, 384), (512, 384), (511, 384), (510, 383), (510, 383), (510, 383), (510, 383), (510, 383), (510, 383), (509, 383), (508, 383), (507, 383), (507, 383), (505, 383), (504, 383), (502, 384), (502, 384), (498, 385), (497, 387), (495, 387), (493, 388), (486, 391), (480, 395), (479, 397), (475, 399), (472, 401), (469, 403), (468, 404), (467, 404), (465, 405), (465, 405), (465, 405), (465, 405), (464, 406), (464, 406), (464, 406), (463, 406), (463, 407), (462, 407), (462, 408), (461, 409), (460, 410), (460, 410), (460, 410), (460, 410), (460, 410), (460, 410), (460, 410), (460, 410), (460, 410), (460, 410), (460, 410), (460, 410), (460, 410), (460, 410), (460, 410), (460, 410), (460, 410), (460, 410), (460, 410), (460, 410), (460, 410), (460, 410), (460, 410), (460, 410), (460, 410), (460, 410), (460, 410), (459, 410), (459, 410), (459, 410), (459, 410), (459, 410), (459, 410), (459, 410), (459, 410), (459, 410), (459, 410), (459, 410), (459, 410), (459, 410), (459, 410), (459, 410), (459, 410), (459, 410), (459, 410), (459, 409), (459, 408), (459, 408), (460, 407), (460, 407), (462, 406), (462, 406), (464, 405), (464, 405), (464, 404), (465, 404), (465, 404), (465, 404), (465, 404), (465, 404), (465, 404), (466, 404), (467, 404), (469, 404), (474, 404), (478, 404), (484, 404), (489, 404), (503, 407), (512, 409), (522, 410), (534, 411), (557, 417), (572, 422), (589, 427), (611, 433), (653, 444), (678, 452), (703, 458), (720, 464), (760, 472)]",19.536654938128386,"[3, 9, 6, 2, 5, 4, 8, 1, 7]","(0, 0.25)",DOT007C,DOT,C,Chinese,Fri Oct 19 17:13:58 2018,Mouse
2,3,3,0,36,2,2,1,723,13,710,139,0,500,200,8000,"[(511, 384), (510, 383), (510, 381), (510, 380), (508, 375), (508, 374), (508, 373), (508, 370), (507, 367), (507, 365), (507, 364), (507, 364), (507, 362), (507, 361), (507, 360), (507, 359), (507, 357), (507, 357), (507, 355), (507, 354), (507, 354), (507, 354), (507, 354), (507, 353), (507, 351), (507, 350), (508, 347), (511, 343), (517, 333), (520, 326), (522, 322), (524, 317), (527, 310), (528, 309), (528, 309), (528, 309), (528, 309), (528, 309), (528, 309), (528, 309), (528, 309), (526, 309), (519, 313), (514, 316), (502, 323), (496, 327), (489, 331), (485, 333), (469, 342), (462, 343), (455, 348), (449, 351), (444, 352), (442, 353), (442, 353), (442, 353), (442, 353), (442, 353), (441, 355), (441, 357), (433, 371), (426, 381), (420, 389), (409, 399), (386, 421), (374, 432), (365, 442), (354, 454), (338, 483), (328, 501), (319, 520), (313, 535), (297, 561)]",140.5368823624837,"[3, 9, 6, 2, 5, 4, 8, 1, 7]","(0, 0.25)",DOT007C,DOT,C,Chinese,Fri Oct 19 17:13:58 2018,Mouse
2,3,3,0,37,2,2,1,312,32,280,138,0,500,200,8000,"[(512, 384), (512, 384), (512, 384), (511, 384), (511, 384), (510, 385), (510, 385), (510, 385), (508, 385), (507, 386), (503, 389), (496, 392), (483, 400), (477, 405), (469, 411), (462, 414), (451, 420), (445, 424), (441, 425), (439, 426), (435, 429), (434, 431), (432, 435), (428, 440), (418, 453), (411, 462), (402, 471), (390, 482), (355, 510), (339, 520), (323, 534), (306, 545)]",141.990474343059,"[3, 9, 6, 2, 5, 4, 8, 1, 7]","(0, 0.25)",DOT007C,DOT,C,Chinese,Fri Oct 19 17:13:58 2018,Mouse
2,3,3,0,38,4,4,1,604,14,590,137,0,500,200,8000,"[(510, 384), (507, 382), (505, 380), (503, 379), (498, 377), (498, 376), (497, 375), (497, 375), (497, 375), (497, 375), (497, 375), (497, 375), (497, 375), (497, 375), (497, 375), (497, 375), (497, 375), (497, 375), (497, 375), (497, 375), (497, 375), (497, 375), (497, 374), (497, 373), (497, 370), (497, 370), (497, 370), (497, 369), (496, 368), (496, 368), (496, 367), (496, 367), (495, 367), (495, 367), (495, 367), (495, 367), (495, 366), (495, 366), (495, 366), (495, 364), (495, 361), (495, 360), (494, 357), (492, 352), (491, 345), (491, 341), (488, 337), (483, 332), (475, 319), (467, 311), (459, 303), (454, 297), (440, 281), (433, 272), (427, 262), (416, 250), (402, 232), (392, 224), (380, 218), (369, 213), (341, 198)]",227.4059705166453,"[3, 9, 6, 2, 5, 4, 8, 1, 7]","(0, 0.25)",DOT007C,DOT,C,Chinese,Fri Oct 19 17:13:58 2018,Mouse
2,3,3,0,39,9,7,0,-1614,634,980,136,0,500,200,8000,"[(512, 384), (512, 384), (512, 384), (512, 384), (512, 384), (512, 384), (512, 384), (512, 384), (512, 384), (512, 384), (512, 384), (512, 384), (512, 384), (512, 384), (512, 384), (512, 384), (512, 384), (512, 384), (512, 384), (512, 384), (512, 384), (512, 384), (512, 384), (512, 384), (512, 384), (512, 384), (512, 384), (512, 384), (512, 384), (512, 384), (512, 384), (512, 384), (512, 384), (512, 384), (512, 384), (512, 384), (512, 384), (512, 384), (512, 384), (512, 384), (512, 384), (512, 384), (512, 384), (512, 384), (512, 384), (512, 384), (512, 384), (512, 384), (512, 384), (512, 384), (512, 384), (512, 384), (512, 384), (512, 384), (512, 384), (512, 384), (512, 384), (512, 384), (512, 384), (512, 384), (512, 384), (512, 384), (512, 384), (512, 385), (512, 385), (512, 385), (512, 385), (512, 385), (512, 385), (512, 385), (512, 385), (512, 385), (512, 385), (512, 385), (512, 385), (512, 385), (512, 385), (512, 385), (512, 385), (512, 385), (512, 385), (512, 385), (512, 385), (512, 385), (512, 385), (512, 385), (512, 385), (512, 385), (512, 385), (512, 385), (512, 385), (512, 385), (512, 385), (512, 385), (512, 385), (512, 385), (512, 385), (512, 385), (512, 385), (512, 385), (512, 385), (512, 385), (512, 385), (512, 385), (512, 385), (512, 385), (512, 385), (512, 385), (512, 385), (512, 385), (512, 385), (512, 385), (512, 385), (512, 385), (512, 385), (512, 385), (512, 385), (512, 385), (512, 385), (512, 385), (512, 385), (512, 385), (512, 385), (512, 385), (512, 385), (512, 385), (512, 385), (512, 385), (512, 385), (512, 385), (512, 385), (512, 385), (512, 385), (512, 385), (513, 385), (524, 381), (531, 378), (538, 376), (549, 371), (572, 366), (586, 361), (598, 359), (610, 354), (635, 341), (648, 336), (661, 327), (671, 324), (688, 312), (695, 308), (701, 305), (706, 303), (714, 299), (718, 297), (722, 296), (723, 294), (728, 291), (732, 288), (734, 287), (736, 285), (740, 282), (740, 282), (741, 281)]",335.78265885471393,"[3, 9, 6, 2, 5, 4, 8, 1, 7]","(0, 0.25)",DOT007C,DOT,C,Chinese,Fri Oct 19 17:13:58 2018,Mouse
2,3,3,0,40,7,5,0,-471,261,210,137,0,500,200,8000,"[(512, 384), (512, 384), (512, 384), (512, 384), (512, 384), (512, 384), (512, 384), (512, 384), (512, 384), (512, 384), (512, 384), (512, 384), (512, 384), (512, 384), (512, 384), (512, 384), (512, 384), (512, 384), (512, 384), (512, 384), (512, 384), (512, 384), (512, 384), (512, 384), (512, 384), (512, 384), (511, 384), (511, 384), (509, 384), (509, 384), (506, 385), (506, 386), (504, 387), (501, 387), (488, 387), (481, 387), (471, 387), (460, 387), (439, 387), (426, 387), (415, 387), (402, 387), (377, 387), (361, 387), (346, 387), (323, 387), (276, 387), (248, 387)]",179.3489396197705,"[3, 9, 6, 2, 5, 4, 8, 1, 7]","(0, 0.25)",DOT007C,DOT,C,Chinese,Fri Oct 19 17:13:58 2018,Mouse
2,3,3,0,41,7,7,1,472,382,90,138,0,500,200,8000,"[(512, 384), (512, 384), (512, 384), (512, 384), (512, 384), (512, 384), (512, 384), (512, 384), (512, 384), (512, 384), (512, 384), (512, 384), (512, 384), (512, 384), (512, 384), (512, 384), (512, 384), (512, 384), (512, 384), (512, 384), (512, 384), (512, 384), (512, 384), (512, 384), (512, 384), (512, 384), (512, 384), (512, 384), (512, 384), (512, 384), (512, 384), (512, 384), (512, 384), (512, 384), (512, 384), (512, 384), (512, 384), (512, 384), (516, 382), (528, 379), (538, 378), (547, 378), (559, 378), (589, 378), (614, 378), (642, 376), (688, 369), (761, 358)]",354.0389102174214,"[3, 9, 6, 2, 5, 4, 8, 1, 7]","(0, 0.25)",DOT007C,DOT,C,Chinese,Fri Oct 19 17:13:58 2018,Mouse
2,3,3,0,42,4,4,1,1433,23,1410,138,0,500,200,8000,"[(512, 384), (512, 384), (511, 384), (511, 384), (510, 384), (510, 384), (510, 384), (509, 384), (509, 384), (509, 384), (509, 384), (508, 384), (507, 385), (506, 386), (506, 386), (504, 386), (502, 386), (501, 387), (501, 387), (500, 387), (498, 388), (498, 388), (498, 389), (498, 389), (497, 389), (497, 389), (496, 390), (496, 390), (494, 392), (492, 393), (490, 395), (489, 396), (486, 398), (485, 399), (483, 400), (483, 400), (480, 403), (478, 403), (478, 404), (478, 405), (476, 406), (475, 407), (475, 408), (475, 408), (474, 410), (473, 411), (473, 411), (473, 411), (473, 411), (473, 412), (473, 412), (473, 412), (473, 412), (473, 412), (473, 414), (473, 414), (473, 414), (473, 414), (472, 415), (472, 415), (472, 415), (472, 415), (472, 415), (472, 415), (472, 415), (472, 417), (472, 417), (472, 417), (472, 417), (472, 417), (472, 417), (472, 417), (472, 417), (472, 417), (472, 417), (472, 417), (472, 417), (472, 417), (472, 417), (472, 417), (472, 417), (472, 417), (472, 417), (472, 417), (472, 417), (472, 417), (472, 417), (472, 417), (472, 417), (472, 417), (472, 417), (472, 417), (472, 417), (472, 417), (472, 417), (472, 417), (472, 417), (472, 417), (472, 417), (472, 417), (472, 417), (472, 417), (472, 417), (472, 417), (472, 417), (472, 417), (472, 417), (472, 417), (472, 417), (472, 417), (472, 417), (472, 417), (472, 417), (472, 417), (472, 417), (472, 417), (472, 414), (472, 412), (472, 412), (473, 410), (473, 407), (473, 404), (473, 401), (473, 397), (473, 391), (473, 389), (473, 388), (473, 385), (473, 381), (472, 375), (471, 370), (468, 364), (462, 352), (456, 345), (450, 337), (441, 330), (422, 307), (409, 296), (397, 285), (381, 269), (356, 248), (342, 237), (330, 228), (318, 222)]",219.86362150757225,"[3, 9, 6, 2, 5, 4, 8, 1, 7]","(0, 0.25)",DOT007C,DOT,C,Chinese,Fri Oct 19 17:13:58 2018,Mouse
2,3,3,0,43,9,5,0,-542,252,290,137,0,500,200,8000,"[(512, 384), (512, 384), (512, 384), (512, 384), (512, 384), (512, 384), (512, 384), (512, 384), (512, 384), (512, 384), (512, 384), (512, 384), (512, 384), (512, 384), (512, 384), (512, 384), (512, 384), (512, 384), (512, 384), (512, 384), (512, 384), (512, 384), (512, 384), (512, 384), (512, 384), (508, 384), (506, 384), (505, 384), (503, 384), (500, 384), (500, 384), (499, 384), (498, 384), (497, 384), (497, 384), (497, 384), (497, 384), (497, 384), (497, 384), (497, 384), (495, 384), (490, 385), (485, 385), (478, 385), (468, 385), (448, 385), (434, 385), (419, 385), (403, 385), (361, 385), (338, 385), (316, 385), (296, 385), (264, 387), (250, 388)]",179.12532322887867,"[3, 9, 6, 2, 5, 4, 8, 1, 7]","(0, 0.25)",DOT007C,DOT,C,Chinese,Fri Oct 19 17:13:58 2018,Mouse
2,3,3,0,44,8,4,0,-924,594,330,138,0,500,200,8000,"[(512, 384), (512, 384), (512, 384), (512, 384), (512, 384), (512, 384), (512, 384), (512, 384), (512, 384), (512, 384), (512, 384), (512, 384), (512, 384), (512, 384), (512, 384), (512, 384), (512, 384), (512, 384), (512, 384), (512, 384), (512, 384), (512, 384), (512, 384), (512, 384), (512, 384), (512, 384), (512, 384), (512, 384), (512, 384), (512, 384), (512, 384), (512, 384), (512, 384), (512, 384), (512, 384), (512, 384), (512, 384), (512, 384), (512, 384), (512, 384), (512, 384), (512, 384), (512, 384), (512, 384), (512, 384), (512, 384), (512, 384), (512, 384), (512, 384), (512, 384), (512, 384), (512, 384), (512, 384), (512, 384), (512, 384), (512, 384), (512, 384), (512, 384), (512, 384), (511, 385), (511, 385), (511, 385), (509, 385), (506, 385), (503, 385), (496, 382), (486, 377), (480, 372), (472, 368), (463, 365), (447, 351), (438, 344), (434, 338), (430, 332), (425, 318), (422, 312), (419, 306), (416, 302), (410, 293), (407, 290), (403, 289), (402, 288), (399, 287), (398, 286), (395, 283), (389, 278), (378, 268), (369, 261), (360, 254), (350, 247), (330, 232), (320, 226), (311, 221)]",219.04016088928694,"[3, 9, 6, 2, 5, 4, 8, 1, 7]","(0, 0.25)",DOT007C,DOT,C,Chinese,Fri Oct 19 17:13:58 2018,Mouse
2,3,3,0,45,3,3,1,1021,332,689,139,0,500,200,8000,"[(512, 384), (512, 384), (512, 384), (512, 384), (512, 384), (512, 384), (512, 384), (512, 384), (512, 384), (512, 384), (512, 384), (512, 384), (512, 384), (512, 384), (512, 384), (512, 384), (512, 384), (512, 384), (512, 384), (512, 384), (512, 384), (512, 384), (512, 384), (512, 384), (512, 384), (512, 384), (512, 384), (512, 384), (512, 384), (512, 384), (512, 384), (512, 384), (512, 384), (511, 384), (506, 386), (504, 387), (504, 387), (502, 388), (500, 389), (500, 389), (498, 390), (497, 391), (496, 392), (496, 392), (495, 394), (495, 394), (494, 397), (493, 397), (493, 399), (493, 400), (491, 402), (491, 404), (491, 404), (491, 404), (491, 404), (491, 404), (491, 404), (491, 404), (491, 404), (491, 404), (491, 404), (491, 404), (491, 404), (491, 404), (491, 404), (491, 404), (491, 404), (491, 404), (491, 404), (491, 404), (491, 404), (491, 404), (491, 404), (491, 404), (491, 404), (491, 404), (491, 404), (493, 404), (493, 404), (493, 404), (493, 404), (493, 404), (494, 404), (496, 405), (496, 405), (497, 405), (501, 406), (504, 407), (509, 408), (513, 410), (531, 418), (542, 424), (552, 427), (563, 432), (587, 443), (600, 448), (614, 450), (626, 455), (657, 463), (674, 469), (694, 476), (720, 487), (775, 507)]",25.064580341423593,"[3, 9, 6, 2, 5, 4, 8, 1, 7]","(0, 0.25)",DOT007C,DOT,C,Chinese,Fri Oct 19 17:13:58 2018,Mouse
2,3,3,0,46,2,2,1,752,12,740,139,0,500,200,8000,"[(510, 384), (509, 384), (507, 384), (505, 384), (500, 382), (498, 381), (493, 378), (491, 377), (486, 375), (485, 374), (484, 374), (483, 373), (482, 372), (481, 371), (481, 369), (480, 367), (479, 362), (478, 359), (477, 354), (476, 350), (474, 339), (473, 335), (473, 329), (473, 322), (473, 316), (471, 313), (471, 312), (471, 312), (471, 312), (471, 312), (471, 312), (471, 312), (470, 311), (470, 311), (470, 311), (470, 311), (470, 311), (470, 311), (470, 311), (470, 311), (470, 311), (470, 311), (470, 311), (470, 311), (470, 311), (470, 311), (470, 311), (470, 311), (470, 311), (470, 311), (470, 311), (470, 311), (470, 311), (469, 311), (469, 311), (469, 311), (469, 311), (469, 311), (469, 311), (469, 311), (468, 311), (467, 311), (467, 312), (464, 317), (461, 327), (456, 335), (446, 347), (430, 370), (397, 411), (380, 431), (363, 452), (344, 468), (322, 492), (312, 502), (303, 511), (295, 521)]",147.73429079534762,"[3, 9, 6, 2, 5, 4, 8, 1, 7]","(0, 0.25)",DOT007C,DOT,C,Chinese,Fri Oct 19 17:13:58 2018,Mouse
2,3,3,0,47,7,5,0,-522,212,310,138,0,500,200,8000,"[(512, 384), (512, 384), (512, 384), (512, 384), (512, 384), (512, 384), (512, 384), (512, 384), (512, 384), (512, 384), (512, 384), (512, 384), (512, 384), (512, 384), (512, 384), (512, 384), (512, 384), (512, 384), (512, 384), (512, 384), (512, 384), (510, 383), (509, 383), (509, 383), (508, 383), (508, 383), (508, 383), (508, 383), (506, 383), (506, 383), (505, 383), (503, 382), (502, 382), (499, 382), (498, 382), (496, 382), (495, 382), (491, 381), (487, 380), (484, 380), (481, 380), (473, 380), (469, 380), (464, 380), (457, 380), (442, 380), (431, 380), (416, 380), (399, 380), (349, 380), (310, 380), (274, 380), (238, 380)]",180.8363753254224,"[3, 9, 6, 2, 5, 4, 8, 1, 7]","(0, 0.25)",DOT007C,DOT,C,Chinese,Fri Oct 19 17:13:58 2018,Mouse
2,3,3,0,48,9,8,0,-1943,623,1320,139,0,500,200,8000,"[(512, 384), (512, 384), (512, 384), (512, 384), (512, 384), (512, 384), (512, 384), (512, 384), (512, 384), (512, 384), (512, 384), (512, 384), (512, 384), (512, 384), (512, 384), (512, 384), (512, 384), (512, 384), (512, 384), (512, 384), (512, 384), (512, 384), (512, 384), (512, 384), (512, 384), (512, 384), (512, 384), (512, 384), (512, 384), (512, 384), (512, 384), (512, 384), (512, 384), (512, 384), (512, 384), (512, 384), (512, 384), (512, 384), (512, 384), (512, 384), (512, 384), (512, 384), (512, 384), (512, 384), (512, 384), (512, 384), (512, 384), (512, 384), (512, 384), (512, 384), (512, 384), (512, 384), (512, 384), (512, 384), (512, 384), (512, 384), (512, 384), (512, 384), (512, 384), (512, 384), (512, 384), (512, 384), (514, 384), (515, 384), (516, 386), (518, 388), (519, 390), (520, 393), (520, 393), (520, 393), (520, 393), (521, 394), (521, 394), (521, 394), (521, 394), (521, 394), (521, 394), (521, 394), (521, 394), (521, 394), (521, 394), (521, 394), (521, 394), (521, 394), (521, 394), (521, 394), (521, 394), (521, 394), (521, 394), (521, 394), (521, 394), (521, 394), (521, 394), (521, 394), (521, 394), (521, 394), (521, 394), (521, 394), (521, 394), (521, 393), (521, 392), (521, 392), (521, 391), (521, 391), (521, 391), (521, 391), (521, 390), (521, 390), (521, 390), (521, 390), (521, 390), (521, 390), (521, 390), (521, 390), (521, 390), (521, 390), (521, 390), (521, 390), (521, 390), (521, 390), (521, 390), (521, 390), (521, 390), (521, 390), (521, 390), (521, 390), (521, 390), (521, 390), (521, 390), (521, 390), (521, 390), (521, 390), (521, 390), (521, 390), (521, 390), (521, 390), (521, 390), (521, 390), (521, 390), (521, 390), (521, 390), (521, 390), (521, 390), (521, 390), (521, 390), (521, 390), (521, 390), (521, 390), (521, 390), (521, 390), (521, 390), (521, 390), (521, 390), (521, 390), (521, 390), (521, 390), (521, 390), (521, 390), (521, 390), (521, 390), (521, 390), (521, 390), (521, 390), (521, 390), (521, 390), (521, 390), (521, 390), (521, 390), (521, 390), (521, 390), (521, 390), (521, 390), (521, 390), (521, 390), (521, 390), (521, 390), (521, 390), (521, 390), (521, 390), (521, 390), (521, 390), (521, 390), (521, 390), (521, 390), (521, 390), (521, 390), (521, 390), (521, 390), (521, 390), (521, 387), (521, 366), (518, 329), (494, 219), (484, 159), (469, 96)]",261.5081515377522,"[3, 9, 6, 2, 5, 4, 8, 1, 7]","(0, 0.25)",DOT007C,DOT,C,Chinese,Fri Oct 19 17:13:58 2018,Mouse
2,3,3,0,49,6,5,0,-792,632,160,140,0,500,200,8000,"[(512, 384), (512, 384), (512, 384), (512, 384), (512, 384), (512, 384), (512, 384), (512, 384), (512, 384), (512, 384), (512, 384), (512, 384), (512, 384), (512, 384), (512, 384), (512, 384), (512, 384), (512, 384), (512, 384), (512, 384), (512, 384), (512, 384), (512, 384), (512, 384), (512, 384), (512, 384), (512, 384), (512, 384), (512, 384), (512, 384), (512, 384), (512, 384), (512, 384), (512, 384), (512, 384), (512, 384), (512, 384), (512, 384), (512, 384), (512, 384), (512, 384), (512, 384), (512, 384), (512, 384), (512, 384), (512, 384), (512, 384), (512, 384), (512, 384), (512, 384), (512, 384), (512, 384), (512, 384), (512, 384), (512, 384), (512, 384), (512, 384), (512, 384), (512, 384), (512, 384), (512, 384), (512, 384), (512, 384), (512, 385), (512, 385), (510, 386), (508, 387), (506, 387), (504, 388), (501, 389), (493, 392), (483, 394), (475, 395), (460, 395), (424, 395), (401, 395), (371, 395), (337, 395), (281, 395), (251, 395)]",177.5866635671501,"[3, 9, 6, 2, 5, 4, 8, 1, 7]","(0, 0.25)",DOT007C,DOT,C,Chinese,Fri Oct 19 17:13:58 2018,Mouse
2,3,3,0,50,1,1,1,612,342,270,141,0,500,200,8000,"[(512, 384), (512, 384), (512, 384), (512, 384), (512, 384), (512, 384), (512, 384), (512, 384), (512, 384), (512, 384), (512, 384), (512, 384), (512, 384), (512, 384), (512, 384), (512, 384), (512, 384), (512, 384), (512, 384), (512, 384), (512, 384), (512, 384), (512, 384), (512, 384), (512, 384), (512, 384), (512, 384), (512, 384), (512, 384), (512, 384), (512, 384), (512, 384), (512, 384), (512, 384), (512, 383), (513, 376), (518, 371), (524, 363), (532, 356), (550, 338), (558, 329), (565, 319), (575, 306), (585, 289), (591, 280), (593, 276), (596, 271), (597, 266), (599, 262), (599, 260), (600, 256), (601, 245), (601, 234), (602, 224), (604, 214), (606, 198), (608, 190), (610, 186), (612, 179), (617, 167), (620, 162), (621, 158)]",295.7480544398535,"[3, 9, 6, 2, 5, 4, 8, 1, 7]","(0, 0.25)",DOT007C,DOT,C,Chinese,Fri Oct 19 17:13:58 2018,Mouse
2,3,3,0,51,8,7,0,-867,27,840,141,0,500,200,8000,"[(512, 384), (512, 384), (512, 385), (512, 385), (512, 385), (512, 385), (512, 385), (512, 385), (512, 385), (512, 385), (512, 385), (512, 385), (512, 385), (512, 385), (512, 385), (512, 385), (512, 385), (512, 385), (512, 385), (512, 385), (512, 385), (512, 385), (512, 385), (512, 385), (511, 385), (511, 385), (511, 385), (511, 385), (511, 385), (511, 385), (511, 385), (511, 385), (511, 385), (511, 385), (511, 385), (511, 385), (511, 385), (511, 385), (511, 385), (511, 385), (511, 385), (511, 385), (511, 385), (511, 385), (511, 385), (511, 385), (511, 385), (511, 385), (511, 385), (511, 385), (511, 385), (511, 385), (511, 385), (511, 385), (511, 385), (511, 385), (511, 385), (511, 385), (511, 385), (511, 385), (511, 385), (511, 385), (513, 385), (513, 385), (518, 383), (521, 381), (529, 378), (534, 377), (553, 372), (561, 369), (572, 367), (579, 364), (597, 356), (606, 352), (616, 347), (627, 343), (652, 336), (667, 333), (680, 329), (694, 325), (715, 320), (722, 318), (729, 317), (736, 314), (747, 312), (750, 310), (752, 309)]",342.64597536373867,"[3, 9, 6, 2, 5, 4, 8, 1, 7]","(0, 0.25)",DOT007C,DOT,C,Chinese,Fri Oct 19 17:13:58 2018,Mouse
2,3,3,0,52,2,2,1,454,34,420,142,0,500,200,8000,"[(512, 384), (512, 384), (512, 384), (510, 384), (510, 384), (510, 384), (510, 384), (510, 384), (509, 384), (509, 384), (509, 384), (509, 384), (509, 384), (509, 385), (509, 385), (508, 386), (507, 386), (507, 386), (506, 387), (506, 387), (506, 387), (505, 388), (504, 389), (502, 391), (502, 391), (499, 393), (497, 395), (495, 398), (492, 400), (483, 407), (477, 410), (468, 414), (456, 421), (433, 436), (423, 442), (413, 450), (403, 455), (383, 467), (374, 472), (365, 478), (359, 483), (342, 497), (336, 503), (328, 511), (323, 519), (310, 534)]",143.40337109056082,"[3, 9, 6, 2, 5, 4, 8, 1, 7]","(0, 0.25)",DOT007C,DOT,C,Chinese,Fri Oct 19 17:13:58 2018,Mouse
2,3,3,0,53,4,4,1,1163,153,1010,142,0,500,200,8000,"[(512, 384), (512, 384), (512, 384), (512, 384), (512, 384), (512, 384), (512, 384), (512, 384), (512, 384), (512, 384), (512, 384), (512, 384), (512, 384), (512, 384), (512, 384), (511, 385), (511, 385), (511, 385), (510, 385), (510, 385), (510, 385), (510, 385), (510, 385), (509, 385), (509, 385), (509, 385), (508, 385), (508, 385), (507, 385), (507, 385), (506, 385), (506, 385), (505, 385), (505, 385), (504, 385), (504, 385), (503, 385), (503, 385), (502, 385), (502, 385), (501, 385), (500, 385), (500, 385), (499, 384), (497, 384), (496, 384), (495, 384), (493, 383), (492, 382), (492, 382), (491, 382), (489, 382), (488, 382), (488, 382), (487, 382), (487, 382), (486, 382), (486, 382), (486, 382), (486, 382), (486, 382), (486, 382), (486, 382), (486, 382), (486, 382), (486, 382), (486, 382), (486, 382), (486, 382), (486, 382), (486, 382), (486, 382), (486, 382), (486, 382), (486, 382), (486, 382), (486, 382), (486, 382), (486, 382), (486, 382), (486, 382), (486, 382), (485, 382), (485, 382), (485, 382), (485, 382), (485, 382), (484, 382), (484, 382), (484, 382), (484, 382), (484, 382), (484, 382), (484, 382), (482, 382), (482, 382), (479, 382), (478, 382), (476, 382), (473, 380), (467, 378), (461, 376), (457, 376), (448, 372), (433, 366), (425, 361), (414, 355), (404, 347), (386, 334), (378, 327), (369, 319), (361, 311), (347, 291), (339, 281), (334, 268), (323, 251), (309, 226)]",217.8945185223198,"[3, 9, 6, 2, 5, 4, 8, 1, 7]","(0, 0.25)",DOT007C,DOT,C,Chinese,Fri Oct 19 17:13:58 2018,Mouse
2,3,3,0,54,6,6,1,592,122,470,141,0,500,200,8000,"[(512, 384), (512, 384), (512, 384), (512, 384), (512, 384), (512, 384), (512, 384), (512, 384), (512, 384), (512, 384), (512, 384), (512, 384), (511, 384), (511, 384), (511, 384), (511, 384), (511, 384), (511, 384), (511, 384), (511, 384), (511, 384), (511, 384), (511, 384), (511, 384), (511, 384), (511, 384), (511, 384), (511, 384), (511, 384), (511, 384), (511, 384), (511, 384), (511, 384), (511, 384), (511, 384), (511, 384), (511, 384), (511, 384), (511, 384), (511, 384), (508, 384), (508, 384), (508, 384), (508, 385), (508, 385), (507, 386), (507, 392), (507, 403), (505, 428), (502, 443), (500, 464), (495, 478), (489, 508), (487, 520), (484, 536), (482, 554), (482, 586), (482, 603), (482, 620), (482, 633)]",96.86999230821426,"[3, 9, 6, 2, 5, 4, 8, 1, 7]","(0, 0.25)",DOT007C,DOT,C,Chinese,Fri Oct 19 17:13:58 2018,Mouse
2,3,3,0,55,6,6,1,612,452,160,140,0,500,200,8000,"[(512, 384), (512, 384), (512, 384), (512, 384), (512, 384), (512, 384), (512, 384), (512, 384), (512, 384), (512, 384), (512, 384), (512, 384), (512, 384), (512, 384), (512, 384), (512, 384), (512, 384), (512, 384), (512, 384), (512, 384), (512, 384), (512, 384), (512, 384), (512, 384), (512, 384), (512, 384), (512, 384), (512, 384), (512, 384), (512, 384), (512, 384), (512, 384), (512, 384), (512, 384), (512, 384), (512, 384), (512, 384), (512, 384), (512, 384), (512, 384), (512, 384), (512, 384), (512, 384), (512, 384), (512, 384), (510, 388), (510, 392), (510, 406), (510, 424), (515, 456), (515, 473), (515, 490), (515, 504), (515, 534), (515, 548), (515, 559), (515, 572), (515, 595), (513, 605), (510, 616), (507, 627), (499, 653)]",92.76678840116952,"[3, 9, 6, 2, 5, 4, 8, 1, 7]","(0, 0.25)",DOT007C,DOT,C,Chinese,Fri Oct 19 17:13:58 2018,Mouse
2,3,3,0,56,6,6,1,332,202,130,139,0,500,200,8000,"[(512, 384), (512, 384), (512, 384), (512, 384), (512, 384), (512, 384), (512, 384), (512, 384), (512, 384), (512, 384), (512, 384), (512, 384), (512, 384), (512, 384), (512, 384), (512, 384), (512, 384), (512, 384), (512, 384), (512, 384), (504, 389), (499, 396), (494, 404), (487, 414), (479, 438), (476, 452), (473, 465), (471, 483), (471, 517), (471, 542), (471, 561), (471, 581), (471, 620), (471, 637)]",99.2050625791943,"[3, 9, 6, 2, 5, 4, 8, 1, 7]","(0, 0.25)",DOT007C,DOT,C,Chinese,Fri Oct 19 17:13:58 2018,Mouse
2,3,3,0,57,9,5,0,-1766,1696,70,138,0,500,200,8000,"[(512, 384), (512, 384), (512, 384), (512, 384), (512, 384), (512, 384), (512, 384), (512, 384), (512, 384), (512, 384), (512, 384), (512, 384), (512, 384), (512, 384), (512, 384), (512, 384), (512, 384), (512, 384), (512, 384), (512, 384), (512, 384), (512, 384), (512, 384), (512, 384), (512, 384), (512, 384), (512, 384), (512, 384), (512, 384), (512, 384), (512, 384), (512, 384), (512, 384), (512, 384), (512, 384), (512, 384), (512, 384), (512, 384), (512, 384), (512, 384), (512, 384), (512, 384), (512, 384), (512, 384), (512, 384), (512, 384), (512, 384), (512, 384), (512, 384), (512, 384), (512, 384), (512, 384), (512, 384), (512, 384), (512, 384), (512, 384), (512, 384), (512, 384), (512, 384), (512, 384), (512, 384), (512, 384), (512, 384), (512, 384), (512, 384), (512, 384), (512, 384), (512, 384), (512, 384), (512, 384), (512, 384), (512, 384), (512, 384), (512, 384), (512, 384), (512, 384), (512, 384), (512, 384), (512, 384), (512, 384), (512, 384), (512, 384), (512, 384), (512, 384), (512, 384), (512, 384), (512, 384), (512, 384), (512, 384), (512, 384), (512, 384), (512, 384), (512, 384), (512, 384), (512, 384), (512, 384), (512, 384), (512, 384), (512, 384), (512, 384), (512, 384), (512, 384), (512, 384), (512, 384), (512, 384), (512, 384), (512, 384), (512, 384), (512, 384), (512, 384), (512, 384), (512, 384), (512, 384), (512, 384), (512, 384), (512, 384), (512, 384), (512, 384), (512, 384), (512, 384), (512, 384), (512, 384), (512, 384), (512, 384), (512, 384), (512, 384), (512, 384), (512, 384), (512, 384), (512, 384), (512, 384), (512, 384), (512, 384), (512, 384), (512, 384), (512, 384), (512, 384), (512, 384), (512, 384), (512, 384), (512, 384), (512, 384), (512, 384), (512, 384), (512, 384), (512, 384), (512, 384), (512, 384), (512, 384), (512, 384), (512, 384), (512, 384), (512, 384), (512, 384), (512, 384), (512, 384), (512, 384), (512, 384), (512, 384), (512, 384), (512, 384), (512, 384), (512, 384), (512, 384), (512, 384), (512, 384), (512, 384), (512, 384), (512, 384), (510, 384), (498, 384), (490, 384), (473, 384), (445, 384), (343, 384), (284, 384), (212, 382)]",180.38196620472903,"[3, 9, 6, 2, 5, 4, 8, 1, 7]","(0, 0.25)",DOT007C,DOT,C,Chinese,Fri Oct 19 17:13:58 2018,Mouse
2,3,3,0,58,4,4,1,712,12,700,139,0,500,200,8000,"[(512, 384), (514, 384), (514, 384), (514, 384), (514, 384), (514, 384), (514, 384), (514, 384), (514, 384), (514, 384), (514, 384), (514, 384), (514, 384), (514, 384), (514, 384), (514, 384), (514, 384), (514, 384), (514, 384), (514, 384), (514, 384), (515, 384), (515, 384), (515, 384), (515, 384), (515, 384), (515, 384), (515, 384), (515, 384), (515, 384), (515, 384), (515, 384), (515, 384), (515, 384), (515, 384), (515, 384), (515, 384), (515, 384), (515, 384), (515, 384), (515, 384), (515, 384), (515, 384), (515, 384), (515, 384), (515, 384), (516, 381), (516, 378), (513, 373), (512, 368), (503, 348), (500, 336), (495, 325), (489, 314), (479, 298), (475, 292), (470, 287), (468, 285), (459, 276), (453, 271), (445, 266), (438, 262), (425, 255), (415, 250), (407, 248), (397, 245), (378, 240), (369, 238), (359, 233), (349, 229), (330, 218), (322, 212)]",222.15338308418387,"[3, 9, 6, 2, 5, 4, 8, 1, 7]","(0, 0.25)",DOT007C,DOT,C,Chinese,Fri Oct 19 17:13:58 2018,Mouse
2,3,3,0,59,2,2,1,485,155,330,139,0,500,200,8000,"[(512, 384), (512, 384), (512, 384), (512, 384), (512, 384), (512, 384), (512, 384), (512, 384), (512, 384), (512, 384), (512, 384), (512, 384), (512, 384), (512, 384), (512, 384), (512, 385), (512, 385), (511, 386), (511, 386), (511, 386), (511, 386), (511, 386), (510, 386), (508, 387), (505, 388), (502, 391), (492, 397), (484, 403), (477, 410), (468, 415), (449, 426), (438, 432), (429, 437), (420, 443), (407, 449), (402, 453), (397, 457), (391, 462), (380, 475), (375, 481), (370, 489), (366, 495), (355, 507), (351, 513), (346, 518), (341, 523), (328, 533), (322, 539), (316, 543)]",140.95018936918098,"[3, 9, 6, 2, 5, 4, 8, 1, 7]","(0, 0.25)",DOT007C,DOT,C,Chinese,Fri Oct 19 17:13:58 2018,Mouse
2,3,3,0,60,9,7,0,-822,232,590,138,0,500,200,8000,"[(512, 384), (512, 384), (512, 384), (512, 384), (512, 384), (512, 384), (512, 384), (512, 384), (512, 384), (512, 384), (512, 384), (512, 384), (512, 384), (512, 384), (512, 384), (512, 384), (512, 384), (512, 384), (512, 384), (512, 384), (512, 384), (512, 384), (512, 384), (513, 384), (513, 384), (514, 384), (515, 384), (515, 384), (515, 384), (515, 384), (516, 384), (516, 384), (516, 384), (516, 384), (516, 384), (516, 384), (516, 384), (516, 384), (518, 383), (518, 383), (518, 383), (518, 383), (520, 383), (520, 383), (520, 383), (520, 383), (521, 382), (522, 381), (522, 381), (522, 381), (522, 381), (522, 381), (522, 381), (523, 381), (524, 380), (524, 380), (524, 380), (524, 380), (525, 380), (526, 379), (527, 379), (528, 378), (531, 377), (532, 376), (532, 375), (535, 374), (536, 373), (537, 373), (539, 372), (540, 370), (544, 369), (546, 368), (549, 366), (552, 364), (561, 360), (568, 356), (581, 351), (595, 345), (642, 326), (669, 313), (692, 302), (710, 295), (749, 276)]",335.50142580856624,"[3, 9, 6, 2, 5, 4, 8, 1, 7]","(0, 0.25)",DOT007C,DOT,C,Chinese,Fri Oct 19 17:13:58 2018,Mouse
2,3,3,0,61,8,8,1,912,72,840,139,0,500,200,8000,"[(512, 384), (512, 384), (512, 384), (512, 384), (512, 384), (512, 384), (512, 384), (511, 385), (510, 385), (510, 385), (510, 385), (510, 385), (509, 385), (509, 385), (509, 385), (509, 385), (509, 385), (509, 385), (509, 385), (509, 385), (508, 385), (507, 386), (507, 386), (507, 386), (506, 387), (504, 387), (503, 387), (503, 387), (503, 387), (503, 387), (502, 387), (502, 387), (501, 388), (501, 388), (501, 388), (501, 388), (501, 388), (501, 388), (501, 388), (501, 388), (501, 388), (501, 388), (501, 388), (501, 388), (501, 388), (501, 388), (501, 388), (501, 388), (500, 388), (500, 388), (500, 388), (500, 388), (500, 388), (500, 388), (500, 388), (500, 388), (500, 388), (500, 388), (500, 388), (500, 388), (500, 388), (499, 388), (499, 388), (499, 388), (498, 388), (498, 388), (498, 388), (497, 388), (497, 385), (497, 384), (497, 382), (497, 378), (497, 356), (497, 344), (497, 329), (497, 316), (495, 287), (493, 275), (491, 261), (490, 249), (485, 224), (485, 216), (482, 205), (481, 198), (480, 184), (477, 178), (477, 173), (474, 165), (470, 154), (469, 146), (466, 139), (465, 131)]",259.4760883579527,"[3, 9, 6, 2, 5, 4, 8, 1, 7]","(0, 0.25)",DOT007C,DOT,C,Chinese,Fri Oct 19 17:13:58 2018,Mouse
2,3,3,0,62,2,2,1,362,202,160,139,0,500,200,8000,"[(512, 384), (512, 384), (512, 384), (512, 384), (512, 384), (512, 384), (512, 384), (512, 384), (512, 384), (512, 384), (512, 384), (512, 384), (512, 384), (512, 384), (512, 384), (512, 384), (512, 384), (512, 384), (512, 384), (512, 384), (511, 385), (510, 385), (510, 385), (509, 386), (507, 387), (498, 402), (489, 412), (480, 425), (466, 441), (437, 476), (423, 492), (407, 508), (393, 523), (372, 548), (363, 557), (354, 565), (345, 574)]",131.31376975721457,"[3, 9, 6, 2, 5, 4, 8, 1, 7]","(0, 0.25)",DOT007C,DOT,C,Chinese,Fri Oct 19 17:13:58 2018,Mouse
2,3,3,0,63,4,4,1,1243,483,760,138,0,500,200,8000,"[(512, 384), (512, 384), (512, 384), (512, 384), (512, 384), (512, 384), (512, 384), (512, 384), (512, 384), (512, 384), (512, 384), (512, 384), (512, 384), (512, 384), (512, 384), (512, 384), (512, 384), (512, 384), (512, 384), (512, 384), (512, 384), (512, 384), (512, 384), (512, 384), (512, 384), (512, 384), (512, 384), (512, 384), (512, 384), (512, 384), (512, 384), (512, 384), (512, 384), (512, 384), (512, 384), (512, 384), (512, 384), (512, 384), (512, 384), (512, 384), (512, 384), (512, 384), (512, 384), (512, 384), (512, 384), (512, 384), (512, 384), (512, 384), (511, 382), (510, 382), (506, 381), (506, 380), (505, 380), (505, 380), (505, 380), (505, 380), (505, 380), (505, 380), (505, 380), (505, 380), (505, 380), (505, 380), (505, 380), (505, 380), (505, 380), (505, 380), (505, 380), (505, 380), (505, 380), (505, 380), (505, 380), (505, 380), (505, 380), (505, 380), (505, 380), (505, 380), (505, 380), (505, 380), (505, 380), (505, 380), (505, 380), (505, 380), (505, 380), (505, 380), (503, 379), (503, 377), (500, 374), (500, 373), (496, 369), (493, 364), (490, 358), (483, 350), (471, 332), (462, 323), (451, 311), (446, 300), (428, 280), (418, 266), (406, 249), (398, 237), (384, 220), (380, 213), (374, 208), (367, 204), (361, 201), (360, 200), (359, 200), (359, 200), (359, 200), (358, 200), (358, 200), (358, 200), (356, 200), (355, 200), (355, 200), (354, 200), (352, 200), (351, 200), (351, 200), (351, 200), (349, 200), (348, 199), (348, 199), (346, 199), (341, 197)]",227.55900231769945,"[3, 9, 6, 2, 5, 4, 8, 1, 7]","(0, 0.25)",DOT007C,DOT,C,Chinese,Fri Oct 19 17:13:58 2018,Mouse
2,3,3,0,64,7,7,1,1382,12,1370,137,0,500,200,8000,"[(512, 385), (512, 386), (511, 387), (511, 387), (511, 387), (511, 387), (511, 387), (511, 387), (511, 387), (511, 387), (511, 387), (511, 387), (511, 387), (511, 387), (511, 387), (511, 387), (511, 387), (511, 387), (511, 387), (511, 387), (511, 387), (511, 387), (511, 387), (511, 387), (511, 387), (511, 387), (511, 387), (511, 387), (511, 387), (511, 387), (511, 387), (511, 387), (511, 387), (511, 387), (511, 387), (511, 387), (511, 387), (511, 387), (511, 387), (511, 387), (511, 387), (511, 387), (511, 387), (511, 387), (511, 387), (511, 387), (511, 387), (511, 387), (511, 387), (511, 387), (513, 389), (513, 389), (513, 391), (513, 392), (513, 393), (513, 394), (513, 395), (513, 395), (513, 395), (513, 395), (514, 395), (514, 395), (514, 395), (514, 395), (514, 395), (514, 395), (514, 395), (514, 395), (514, 395), (514, 395), (514, 395), (514, 395), (515, 396), (515, 396), (515, 396), (515, 396), (515, 396), (515, 396), (515, 396), (515, 396), (515, 396), (515, 396), (515, 396), (515, 396), (515, 396), (515, 396), (515, 396), (515, 396), (515, 396), (515, 396), (515, 396), (515, 396), (515, 396), (515, 396), (515, 396), (515, 396), (515, 396), (515, 396), (515, 396), (515, 396), (516, 396), (516, 396), (517, 396), (517, 396), (519, 395), (519, 395), (520, 394), (520, 394), (523, 393), (525, 391), (528, 389), (533, 386), (549, 376), (559, 371), (572, 364), (584, 359), (609, 348), (621, 343), (629, 340), (638, 336), (647, 332), (648, 331), (648, 331), (649, 331), (651, 330), (653, 328), (657, 327), (663, 324), (672, 320), (679, 317), (683, 315), (688, 312), (697, 307), (703, 304), (709, 303), (716, 300), (733, 296), (743, 293), (752, 289)]",338.40468955103233,"[3, 9, 6, 2, 5, 4, 8, 1, 7]","(0, 0.25)",DOT007C,DOT,C,Chinese,Fri Oct 19 17:13:58 2018,Mouse
2,3,3,0,65,5,5,1,603,103,500,136,0,500,200,8000,"[(512, 384), (512, 384), (512, 384), (512, 384), (512, 384), (512, 384), (512, 384), (512, 384), (512, 384), (512, 384), (511, 384), (508, 384), (506, 384), (505, 384), (504, 384), (503, 383), (501, 383), (501, 383), (497, 382), (495, 381), (493, 381), (490, 379), (477, 374), (472, 373), (464, 373), (456, 372), (438, 370), (428, 370), (421, 370), (413, 371), (398, 375), (389, 377), (386, 377), (380, 380), (369, 385), (365, 386), (360, 388), (359, 389), (359, 389), (359, 389), (359, 389), (359, 389), (358, 390), (358, 390), (358, 390), (358, 390), (358, 390), (358, 390), (358, 390), (358, 390), (358, 390), (358, 390), (358, 390), (358, 390), (356, 388), (350, 384), (342, 383), (331, 383), (306, 383), (282, 383), (245, 383)]",180.21458993112938,"[3, 9, 6, 2, 5, 4, 8, 1, 7]","(0, 0.25)",DOT007C,DOT,C,Chinese,Fri Oct 19 17:13:58 2018,Mouse
2,3,3,0,66,1,1,1,275,15,260,135,0,500,200,8000,"[(512, 384), (517, 355), (521, 336), (524, 323), (528, 313), (529, 306), (532, 303), (532, 302), (532, 301), (532, 301), (533, 300), (533, 300), (534, 297), (536, 295), (538, 294), (540, 292), (542, 291), (548, 285), (553, 281), (557, 276), (562, 271), (575, 258), (584, 250), (593, 243), (601, 235), (628, 205), (636, 187), (651, 164)]",302.2854418143989,"[3, 9, 6, 2, 5, 4, 8, 1, 7]","(0, 0.25)",DOT007C,DOT,C,Chinese,Fri Oct 19 17:13:58 2018,Mouse
2,3,3,0,67,6,4,0,-712,22,690,134,0,500,200,8000,"[(512, 384), (512, 384), (510, 384), (507, 385), (505, 386), (500, 388), (494, 388), (491, 389), (487, 389), (480, 389), (466, 389), (460, 389), (452, 389), (444, 389), (429, 389), (422, 389), (418, 389), (416, 389), (414, 389), (414, 389), (414, 389), (414, 389), (414, 389), (414, 389), (414, 389), (414, 389), (414, 389), (414, 389), (414, 389), (414, 389), (414, 389), (414, 389), (414, 389), (414, 389), (414, 389), (414, 389), (414, 389), (414, 389), (414, 389), (414, 389), (414, 389), (414, 389), (413, 389), (413, 389), (413, 389), (412, 389), (412, 389), (412, 389), (412, 389), (412, 389), (412, 389), (412, 389), (412, 389), (412, 389), (412, 389), (412, 389), (412, 389), (410, 389), (406, 384), (403, 380), (399, 377), (395, 371), (379, 351), (372, 344), (364, 335), (355, 324), (335, 307), (326, 298), (317, 289), (309, 279), (295, 264), (289, 257)]",209.66180385949465,"[3, 9, 6, 2, 5, 4, 8, 1, 7]","(0, 0.25)",DOT007C,DOT,C,Chinese,Fri Oct 19 17:13:58 2018,Mouse
2,3,3,0,68,4,4,1,540,230,310,135,0,500,200,8000,"[(512, 384), (512, 384), (512, 384), (512, 384), (512, 384), (512, 384), (512, 384), (512, 384), (512, 384), (512, 384), (512, 384), (512, 384), (512, 384), (512, 384), (512, 384), (512, 384), (512, 384), (512, 384), (512, 384), (512, 384), (512, 384), (512, 384), (510, 384), (509, 384), (508, 384), (508, 384), (507, 385), (507, 385), (507, 385), (507, 385), (507, 385), (505, 385), (504, 385), (502, 383), (499, 377), (495, 372), (491, 367), (488, 364), (478, 351), (474, 346), (469, 341), (464, 335), (457, 327), (451, 320), (444, 313), (438, 305), (422, 285), (413, 275), (402, 265), (390, 254), (365, 233), (352, 224), (340, 216), (331, 208)]",224.19759056536103,"[3, 9, 6, 2, 5, 4, 8, 1, 7]","(0, 0.25)",DOT007C,DOT,C,Chinese,Fri Oct 19 17:13:58 2018,Mouse
2,3,3,0,69,8,5,0,-572,462,110,135,0,500,200,8000,"[(512, 384), (512, 384), (512, 384), (512, 384), (512, 384), (512, 384), (512, 384), (512, 384), (512, 384), (512, 384), (512, 384), (512, 384), (512, 384), (512, 384), (512, 384), (512, 384), (512, 384), (512, 384), (512, 384), (512, 384), (512, 384), (512, 384), (512, 384), (512, 384), (512, 384), (512, 384), (512, 384), (512, 384), (512, 384), (512, 384), (512, 384), (512, 384), (512, 384), (512, 384), (512, 384), (512, 384), (512, 384), (512, 384), (512, 384), (512, 384), (512, 384), (512, 384), (512, 384), (512, 384), (512, 384), (512, 384), (509, 384), (505, 384), (499, 384), (487, 388), (479, 388), (465, 389), (449, 389), (399, 389), (361, 395), (324, 397), (290, 398), (220, 400)]",176.8636416316674,"[3, 9, 6, 2, 5, 4, 8, 1, 7]","(0, 0.25)",DOT007C,DOT,C,Chinese,Fri Oct 19 17:13:58 2018,Mouse
2,3,3,0,70,5,4,0,-834,514,320,136,0,500,200,8000,"[(512, 384), (512, 384), (512, 384), (512, 384), (512, 384), (512, 384), (512, 384), (512, 384), (512, 384), (512, 384), (512, 384), (512, 384), (512, 384), (512, 384), (512, 384), (512, 384), (512, 384), (512, 384), (512, 384), (512, 384), (512, 384), (512, 384), (512, 384), (512, 384), (512, 384), (512, 384), (512, 384), (512, 384), (512, 384), (512, 384), (512, 384), (512, 384), (512, 384), (512, 384), (512, 384), (512, 384), (512, 384), (512, 384), (512, 384), (512, 384), (512, 384), (512, 384), (512, 384), (512, 384), (512, 384), (512, 384), (512, 384), (512, 384), (512, 384), (512, 384), (512, 384), (506, 380), (502, 375), (497, 370), (493, 361), (484, 340), (480, 332), (474, 324), (470, 315), (464, 306), (464, 304), (463, 303), (462, 302), (462, 302), (462, 302), (462, 302), (462, 302), (462, 302), (461, 302), (461, 302), (460, 302), (459, 302), (459, 302), (457, 302), (456, 302), (455, 302), (452, 300), (446, 293), (439, 282), (416, 251), (406, 237), (390, 217), (377, 204), (345, 180)]",230.69530203043993,"[3, 9, 6, 2, 5, 4, 8, 1, 7]","(0, 0.25)",DOT007C,DOT,C,Chinese,Fri Oct 19 17:13:58 2018,Mouse
2,3,3,0,71,4,6,0,-733,543,190,137,0,500,200,8000,"[(512, 384), (512, 384), (512, 384), (512, 384), (512, 384), (512, 384), (512, 384), (512, 384), (512, 384), (512, 384), (512, 384), (512, 384), (512, 384), (512, 384), (512, 384), (512, 384), (512, 384), (512, 384), (512, 384), (512, 384), (512, 384), (512, 384), (512, 384), (512, 384), (512, 384), (512, 384), (512, 384), (512, 384), (512, 384), (512, 384), (512, 384), (512, 384), (512, 384), (512, 384), (512, 384), (512, 384), (512, 384), (512, 384), (512, 384), (512, 384), (512, 384), (512, 384), (512, 384), (512, 384), (512, 384), (512, 384), (512, 384), (512, 384), (512, 384), (512, 384), (512, 384), (512, 384), (512, 384), (512, 384), (512, 387), (512, 387), (512, 393), (511, 398), (510, 404), (507, 410), (503, 427), (499, 436), (496, 448), (495, 459), (488, 487), (484, 506), (480, 519), (477, 531), (468, 555), (466, 565), (462, 574), (459, 586), (453, 612), (450, 633)]",103.98208868300107,"[3, 9, 6, 2, 5, 4, 8, 1, 7]","(0, 0.25)",DOT007C,DOT,C,Chinese,Fri Oct 19 17:13:58 2018,Mouse
2,3,3,0,72,9,7,0,-2752,712,2040,138,0,500,200,8000,"[(512, 384), (512, 384), (512, 384), (512, 384), (512, 384), (512, 384), (512, 384), (512, 384), (512, 384), (512, 384), (512, 384), (512, 384), (512, 384), (512, 384), (512, 384), (512, 384), (512, 384), (512, 384), (512, 384), (512, 384), (512, 384), (512, 384), (512, 384), (512, 384), (512, 384), (512, 384), (512, 384), (512, 384), (512, 384), (512, 384), (512, 384), (512, 384), (512, 384), (512, 384), (512, 384), (512, 384), (512, 384), (512, 384), (512, 384), (512, 384), (512, 384), (512, 384), (512, 384), (512, 384), (512, 384), (512, 384), (512, 384), (512, 384), (512, 384), (512, 384), (512, 384), (512, 384), (512, 384), (512, 384), (512, 384), (512, 384), (512, 384), (512, 384), (512, 384), (512, 384), (512, 384), (512, 384), (512, 384), (512, 384), (512, 384), (512, 384), (512, 384), (512, 384), (512, 384), (512, 384), (512, 384), (512, 380), (512, 376), (512, 372), (512, 369), (512, 365), (512, 365), (512, 365), (512, 365), (512, 365), (512, 365), (512, 365), (512, 365), (512, 365), (512, 365), (512, 365), (512, 365), (512, 365), (512, 365), (512, 365), (512, 365), (512, 365), (512, 365), (512, 365), (512, 365), (512, 365), (512, 365), (512, 365), (512, 365), (512, 365), (512, 365), (512, 365), (512, 365), (512, 365), (512, 365), (512, 365), (512, 365), (512, 365), (512, 365), (512, 365), (512, 365), (512, 365), (512, 365), (512, 365), (512, 365), (512, 365), (512, 365), (512, 365), (512, 365), (512, 365), (512, 365), (512, 365), (512, 365), (512, 365), (512, 365), (512, 365), (512, 365), (512, 365), (512, 365), (512, 365), (512, 365), (512, 365), (512, 365), (512, 365), (512, 365), (512, 365), (512, 365), (512, 365), (512, 365), (512, 365), (512, 365), (512, 365), (512, 365), (512, 365), (512, 365), (512, 365), (512, 365), (512, 365), (512, 365), (512, 365), (512, 365), (512, 365), (512, 365), (512, 365), (512, 365), (512, 365), (512, 365), (512, 365), (512, 365), (512, 365), (512, 365), (512, 365), (512, 365), (512, 365), (512, 365), (512, 365), (512, 365), (512, 365), (512, 365), (512, 365), (512, 365), (512, 365), (512, 365), (512, 365), (512, 365), (512, 365), (512, 365), (512, 365), (512, 365), (512, 365), (512, 365), (512, 365), (512, 365), (512, 365), (512, 365), (512, 365), (512, 365), (512, 365), (512, 365), (512, 365), (512, 365), (512, 365), (512, 365), (512, 365), (512, 365), (512, 365), (512, 365), (512, 365), (512, 365), (512, 365), (512, 365), (512, 365), (512, 365), (512, 365), (512, 365), (512, 365), (512, 365), (512, 365), (512, 365), (512, 365), (512, 365), (512, 365), (512, 365), (512, 365), (512, 365), (512, 365), (512, 365), (512, 365), (512, 365), (512, 365), (512, 365), (512, 365), (512, 365), (512, 365), (512, 365), (512, 365), (512, 365), (512, 365), (512, 365), (512, 365), (512, 365), (512, 365), (512, 365), (512, 365), (512, 365), (512, 365), (512, 365), (512, 365), (512, 365), (512, 365), (512, 365), (512, 365), (512, 365), (512, 365), (512, 365), (512, 365), (512, 365), (512, 365), (512, 365), (512, 365), (512, 365), (512, 365), (512, 365), (512, 365), (512, 365), (512, 365), (512, 365), (512, 365), (512, 365), (512, 365), (512, 365), (512, 365), (512, 365), (512, 365), (512, 365), (512, 365), (512, 365), (512, 365), (512, 365), (512, 365), (512, 365), (515, 358), (538, 345), (581, 323), (646, 297), (751, 245)]",329.8181472508808,"[3, 9, 6, 2, 5, 4, 8, 1, 7]","(0, 0.25)",DOT007C,DOT,C,Chinese,Fri Oct 19 17:13:58 2018,Mouse
2,3,3,0,73,7,5,0,-492,162,330,139,0,500,200,8000,"[(512, 384), (512, 384), (512, 384), (512, 384), (512, 384), (512, 384), (512, 384), (512, 384), (512, 384), (512, 384), (512, 384), (512, 384), (512, 384), (512, 384), (512, 384), (512, 384), (511, 385), (510, 386), (510, 386), (510, 386), (510, 386), (510, 386), (510, 386), (509, 386), (508, 386), (506, 387), (502, 388), (496, 388), (479, 388), (475, 388), (472, 388), (471, 388), (470, 388), (469, 388), (468, 388), (466, 388), (460, 388), (456, 388), (448, 388), (441, 388), (425, 388), (414, 388), (404, 388), (389, 388), (356, 388), (336, 388), (317, 388), (294, 388), (263, 388), (249, 388)]",179.12864848232164,"[3, 9, 6, 2, 5, 4, 8, 1, 7]","(0, 0.25)",DOT007C,DOT,C,Chinese,Fri Oct 19 17:13:58 2018,Mouse
2,3,3,0,74,1,1,1,431,191,240,140,0,500,200,8000,"[(512, 384), (512, 384), (512, 384), (512, 384), (512, 384), (512, 384), (512, 384), (512, 384), (512, 384), (512, 384), (512, 384), (512, 384), (512, 384), (512, 384), (512, 384), (512, 384), (512, 384), (512, 384), (512, 384), (516, 383), (518, 382), (522, 380), (528, 378), (543, 371), (550, 368), (559, 364), (566, 360), (583, 349), (592, 342), (602, 334), (611, 325), (630, 301), (638, 290), (645, 280), (653, 268), (663, 249), (667, 242), (671, 234), (672, 230), (675, 217), (676, 211), (676, 204), (676, 196), (675, 186)]",309.4623154115672,"[3, 9, 6, 2, 5, 4, 8, 1, 7]","(0, 0.25)",DOT007C,DOT,C,Chinese,Fri Oct 19 17:13:58 2018,Mouse
2,3,3,0,75,9,9,1,902,152,750,140,0,500,200,8000,"[(512, 384), (512, 384), (512, 384), (512, 384), (512, 384), (512, 384), (512, 384), (512, 384), (512, 384), (512, 384), (512, 384), (512, 384), (512, 384), (512, 384), (512, 384), (511, 384), (510, 385), (509, 386), (509, 386), (506, 387), (506, 387), (505, 388), (504, 388), (504, 388), (503, 388), (503, 388), (503, 388), (503, 388), (503, 388), (503, 388), (503, 388), (503, 388), (503, 388), (503, 388), (503, 388), (503, 388), (503, 388), (502, 389), (501, 392), (498, 398), (496, 403), (495, 405), (494, 406), (493, 407), (493, 408), (493, 408), (493, 408), (493, 408), (493, 408), (493, 408), (493, 408), (493, 408), (493, 408), (493, 408), (493, 408), (492, 408), (492, 409), (492, 411), (492, 413), (492, 413), (492, 415), (492, 416), (492, 416), (492, 416), (492, 416), (492, 416), (492, 416), (492, 416), (492, 418), (492, 418), (492, 418), (492, 419), (492, 422), (493, 425), (493, 429), (495, 432), (496, 439), (497, 443), (499, 448), (501, 454), (505, 467), (506, 474), (511, 484), (513, 495), (518, 517), (522, 528), (526, 540), (530, 550), (551, 586), (567, 609), (585, 632)]",73.59795240148082,"[3, 9, 6, 2, 5, 4, 8, 1, 7]","(0, 0.25)",DOT007C,DOT,C,Chinese,Fri Oct 19 17:13:58 2018,Mouse
2,3,3,0,76,6,7,0,-1566,816,750,139,0,500,200,8000,"[(512, 384), (512, 384), (512, 384), (512, 384), (512, 384), (512, 384), (512, 384), (512, 384), (512, 384), (512, 384), (512, 384), (512, 384), (512, 384), (512, 384), (512, 384), (512, 384), (512, 384), (512, 384), (512, 384), (512, 384), (512, 384), (512, 384), (512, 384), (512, 384), (512, 384), (512, 384), (512, 384), (512, 384), (512, 384), (512, 384), (512, 384), (512, 384), (512, 384), (512, 384), (512, 384), (512, 384), (512, 384), (512, 384), (512, 384), (512, 384), (512, 384), (512, 384), (512, 384), (512, 384), (512, 384), (512, 384), (512, 384), (512, 384), (512, 384), (512, 384), (512, 384), (512, 384), (512, 384), (512, 384), (512, 384), (512, 384), (512, 384), (512, 384), (512, 384), (512, 384), (512, 384), (512, 384), (512, 384), (512, 384), (512, 384), (512, 384), (512, 384), (512, 384), (512, 384), (512, 384), (512, 384), (512, 384), (512, 384), (512, 384), (512, 384), (512, 384), (512, 384), (512, 384), (512, 384), (512, 384), (512, 384), (516, 384), (518, 383), (522, 380), (524, 379), (532, 375), (537, 372), (540, 370), (546, 366), (558, 361), (565, 358), (571, 357), (576, 356), (586, 352), (589, 351), (592, 351), (596, 349), (599, 348), (602, 347), (604, 345), (606, 345), (617, 340), (621, 337), (627, 334), (634, 329), (645, 322), (648, 319), (653, 315), (655, 314), (658, 311), (658, 311), (658, 311), (658, 311), (658, 311), (658, 311), (658, 311), (658, 311), (658, 311), (658, 311), (658, 311), (658, 311), (658, 311), (658, 311), (658, 311), (658, 311), (658, 311), (658, 311), (658, 311), (658, 311), (658, 311), (658, 311), (658, 311), (658, 311), (658, 311), (658, 311), (658, 311), (658, 311), (658, 311), (658, 311), (658, 311), (658, 311), (658, 311), (658, 311), (658, 311), (658, 311), (658, 311), (658, 311), (658, 311), (658, 311), (659, 310), (660, 310), (662, 309), (668, 308), (693, 303), (716, 299), (742, 291), (764, 285)]",338.55226367289464,"[3, 9, 6, 2, 5, 4, 8, 1, 7]","(0, 0.25)",DOT007C,DOT,C,Chinese,Fri Oct 19 17:13:58 2018,Mouse
2,3,3,0,77,4,4,1,632,292,340,140,0,500,200,8000,"[(512, 384), (512, 384), (512, 384), (512, 384), (512, 384), (512, 384), (512, 384), (512, 384), (512, 384), (512, 384), (512, 384), (512, 384), (512, 384), (512, 384), (512, 384), (512, 384), (512, 384), (512, 384), (512, 384), (512, 384), (512, 384), (512, 384), (512, 384), (512, 384), (512, 384), (512, 384), (512, 384), (512, 384), (512, 384), (507, 384), (499, 384), (492, 384), (488, 384), (480, 384), (477, 384), (471, 384), (463, 384), (453, 384), (452, 384), (450, 384), (449, 384), (447, 384), (447, 384), (446, 384), (445, 384), (443, 384), (443, 383), (441, 383), (439, 382), (434, 380), (432, 379), (428, 376), (426, 375), (420, 370), (417, 368), (415, 366), (409, 363), (398, 356), (391, 350), (379, 342), (369, 334), (330, 301), (302, 280), (277, 263)]",207.24364965934592,"[3, 9, 6, 2, 5, 4, 8, 1, 7]","(0, 0.25)",DOT007C,DOT,C,Chinese,Fri Oct 19 17:13:58 2018,Mouse
2,3,3,0,78,4,4,1,415,295,120,140,0,500,200,8000,"[(512, 384), (512, 384), (512, 384), (512, 384), (512, 384), (512, 384), (512, 384), (512, 384), (512, 384), (512, 384), (512, 384), (512, 384), (512, 384), (512, 384), (512, 384), (512, 384), (512, 384), (512, 384), (512, 384), (512, 384), (512, 384), (512, 384), (512, 384), (512, 384), (512, 384), (512, 384), (512, 384), (512, 384), (512, 384), (496, 379), (477, 374), (454, 363), (438, 357), (411, 344), (396, 335), (379, 324), (367, 314), (340, 290), (332, 280), (322, 266), (317, 259), (303, 237)]",215.12060942049087,"[3, 9, 6, 2, 5, 4, 8, 1, 7]","(0, 0.25)",DOT007C,DOT,C,Chinese,Fri Oct 19 17:13:58 2018,Mouse
2,3,3,0,79,1,1,1,452,142,310,139,0,500,200,8000,"[(512, 384), (512, 384), (512, 384), (512, 384), (512, 384), (512, 384), (512, 384), (512, 384), (512, 384), (512, 384), (512, 384), (512, 384), (512, 384), (512, 384), (513, 385), (513, 385), (515, 383), (516, 383), (516, 383), (517, 382), (519, 380), (520, 379), (523, 377), (530, 371), (533, 368), (540, 362), (548, 354), (569, 334), (577, 324), (586, 314), (594, 303), (602, 292), (615, 270), (617, 262), (621, 254), (624, 245), (627, 240), (629, 235), (629, 232), (634, 219), (635, 212), (636, 205), (640, 196), (646, 181), (649, 175), (651, 170)]",303.0050419348171,"[3, 9, 6, 2, 5, 4, 8, 1, 7]","(0, 0.25)",DOT007C,DOT,C,Chinese,Fri Oct 19 17:13:58 2018,Mouse
2,3,3,0,80,3,3,1,911,131,780,138,0,500,200,8000,"[(512, 384), (512, 384), (512, 384), (512, 384), (512, 384), (512, 384), (512, 384), (512, 384), (512, 384), (512, 384), (512, 384), (512, 384), (512, 384), (511, 384), (511, 384), (511, 384), (511, 384), (511, 384), (511, 384), (510, 384), (510, 384), (509, 384), (508, 384), (507, 386), (507, 386), (507, 386), (507, 386), (507, 386), (506, 386), (506, 386), (505, 386), (504, 387), (504, 387), (504, 387), (504, 387), (504, 387), (504, 387), (504, 387), (504, 387), (504, 387), (504, 387), (504, 387), (504, 387), (504, 387), (504, 387), (504, 387), (504, 387), (504, 387), (504, 387), (504, 387), (504, 387), (504, 387), (504, 387), (504, 387), (504, 387), (504, 387), (504, 387), (504, 387), (504, 387), (504, 387), (504, 387), (504, 387), (504, 387), (504, 387), (504, 387), (504, 387), (504, 387), (504, 387), (504, 387), (504, 387), (504, 387), (504, 387), (504, 387), (504, 387), (504, 387), (504, 387), (504, 387), (504, 387), (504, 387), (504, 387), (504, 389), (504, 389), (504, 389), (509, 389), (513, 390), (524, 395), (546, 400), (621, 420), (665, 432), (701, 441), (737, 452), (771, 462)]",16.760110832392805,"[3, 9, 6, 2, 5, 4, 8, 1, 7]","(0, 0.25)",DOT007C,DOT,C,Chinese,Fri Oct 19 17:13:58 2018,Mouse
2,3,3,0,81,3,2,0,-400,70,330,137,0,500,200,8000,"[(512, 384), (512, 384), (512, 384), (512, 384), (512, 384), (512, 384), (511, 384), (511, 384), (511, 384), (511, 384), (509, 384), (507, 384), (506, 384), (506, 384), (506, 384), (504, 384), (503, 384), (503, 384), (503, 384), (499, 384), (497, 384), (493, 384), (487, 384), (474, 386), (465, 388), (455, 391), (449, 396), (432, 408), (426, 413), (417, 418), (407, 425), (388, 440), (378, 446), (370, 452), (360, 461), (342, 473), (331, 480), (321, 487), (310, 494), (287, 508)]",151.14035243231015,"[3, 9, 6, 2, 5, 4, 8, 1, 7]","(0, 0.25)",DOT007C,DOT,C,Chinese,Fri Oct 19 17:13:58 2018,Mouse
2,3,3,0,82,8,8,1,823,343,480,138,0,500,200,8000,"[(512, 384), (512, 384), (512, 384), (512, 384), (512, 384), (512, 384), (512, 384), (512, 384), (512, 384), (512, 384), (512, 384), (512, 384), (512, 384), (512, 384), (512, 384), (512, 384), (512, 384), (512, 384), (512, 384), (512, 384), (512, 384), (512, 384), (512, 384), (512, 384), (512, 384), (512, 384), (512, 384), (512, 384), (512, 384), (512, 384), (512, 384), (512, 384), (512, 384), (512, 384), (512, 383), (512, 381), (511, 380), (511, 379), (510, 377), (510, 377), (509, 373), (508, 372), (508, 371), (508, 370), (505, 367), (505, 364), (505, 363), (504, 361), (502, 356), (502, 355), (501, 353), (501, 352), (500, 350), (500, 349), (500, 348), (499, 347), (498, 344), (498, 341), (498, 339), (497, 337), (495, 334), (495, 331), (495, 330), (494, 328), (493, 323), (491, 319), (490, 314), (489, 310), (486, 294), (485, 287), (483, 279), (481, 270), (479, 252), (478, 243), (476, 237), (474, 231), (473, 212), (471, 200), (468, 189), (467, 178), (464, 155), (463, 144), (462, 134)]",258.69006752597977,"[3, 9, 6, 2, 5, 4, 8, 1, 7]","(0, 0.25)",DOT007C,DOT,C,Chinese,Fri Oct 19 17:13:58 2018,Mouse
2,3,3,0,83,2,2,1,462,12,450,138,0,500,200,8000,"[(512, 384), (511, 384), (511, 384), (511, 384), (510, 384), (510, 384), (510, 384), (510, 384), (509, 384), (509, 384), (508, 384), (508, 384), (507, 384), (506, 385), (505, 386), (505, 386), (505, 386), (505, 386), (504, 386), (504, 386), (504, 386), (504, 386), (503, 388), (502, 389), (502, 391), (500, 392), (497, 397), (497, 397), (496, 399), (494, 402), (489, 409), (486, 412), (481, 415), (473, 421), (460, 429), (451, 434), (441, 441), (431, 448), (410, 461), (401, 468), (391, 474), (384, 478), (362, 490), (355, 497), (345, 503), (331, 511), (298, 532)]",145.33270051592177,"[3, 9, 6, 2, 5, 4, 8, 1, 7]","(0, 0.25)",DOT007C,DOT,C,Chinese,Fri Oct 19 17:13:58 2018,Mouse
2,3,3,0,84,7,5,0,-1002,82,920,137,0,500,200,8000,"[(512, 384), (512, 384), (512, 384), (512, 384), (512, 384), (512, 384), (512, 384), (512, 384), (511, 384), (511, 384), (511, 384), (511, 384), (510, 384), (510, 384), (510, 384), (510, 384), (509, 384), (509, 384), (508, 384), (508, 384), (508, 384), (507, 384), (507, 384), (507, 384), (507, 384), (507, 384), (507, 384), (507, 384), (507, 384), (507, 384), (507, 384), (507, 384), (507, 384), (507, 384), (507, 384), (507, 384), (507, 383), (506, 382), (506, 382), (505, 381), (505, 381), (504, 379), (504, 379), (503, 378), (503, 378), (502, 378), (501, 377), (499, 376), (497, 374), (494, 374), (492, 374), (490, 372), (487, 371), (486, 371), (486, 371), (486, 371), (486, 371), (486, 371), (486, 371), (486, 371), (485, 370), (485, 370), (485, 370), (485, 370), (485, 370), (485, 370), (485, 370), (485, 370), (485, 370), (484, 370), (484, 370), (483, 370), (483, 370), (483, 370), (483, 370), (482, 370), (481, 370), (480, 370), (480, 370), (479, 370), (478, 370), (477, 370), (476, 370), (471, 370), (467, 370), (465, 370), (461, 370), (457, 370), (443, 370), (432, 370), (421, 370), (395, 370), (382, 370), (367, 370), (353, 370), (330, 374), (318, 374), (305, 376), (293, 378), (282, 380), (258, 383)]",180.22557276963403,"[3, 9, 6, 2, 5, 4, 8, 1, 7]","(0, 0.25)",DOT007C,DOT,C,Chinese,Fri Oct 19 17:13:58 2018,Mouse
2,3,3,0,85,3,1,0,-472,212,260,138,0,500,200,8000,"[(512, 384), (512, 384), (512, 384), (512, 384), (512, 384), (512, 384), (512, 384), (512, 384), (512, 384), (512, 384), (512, 384), (512, 384), (512, 384), (512, 384), (512, 384), (512, 384), (512, 384), (512, 384), (512, 384), (512, 384), (512, 384), (511, 383), (511, 382), (511, 379), (511, 377), (511, 376), (511, 373), (511, 365), (511, 362), (511, 360), (511, 357), (513, 348), (515, 342), (518, 337), (519, 332), (526, 316), (530, 307), (535, 299), (540, 292), (550, 276), (555, 267), (558, 260), (563, 252), (573, 235), (579, 224), (585, 213), (595, 196), (618, 153)]",294.6491813773836,"[3, 9, 6, 2, 5, 4, 8, 1, 7]","(0, 0.25)",DOT007C,DOT,C,Chinese,Fri Oct 19 17:13:58 2018,Mouse
2,3,3,0,86,1,1,1,1191,41,1150,139,0,500,200,8000,"[(512, 384), (512, 384), (512, 384), (512, 384), (511, 384), (511, 384), (511, 384), (511, 384), (510, 385), (510, 385), (510, 385), (510, 385), (509, 385), (506, 387), (506, 387), (505, 387), (504, 388), (504, 388), (502, 388), (502, 388), (502, 388), (502, 388), (502, 388), (502, 388), (502, 388), (502, 388), (502, 388), (502, 388), (502, 388), (501, 388), (501, 388), (501, 389), (501, 389), (501, 389), (502, 389), (519, 391), (539, 391), (596, 382), (616, 375), (631, 368), (640, 362), (652, 348), (657, 336), (662, 325), (665, 315), (670, 298), (674, 291), (675, 281), (676, 273), (676, 258), (676, 251), (676, 243), (676, 238), (674, 231), (673, 227), (672, 223), (668, 217), (665, 212), (664, 210), (663, 209), (662, 208), (661, 207), (661, 207), (661, 206), (661, 206), (661, 206), (661, 206), (661, 206), (661, 206), (661, 206), (661, 206), (661, 206), (661, 206), (661, 206), (661, 206), (661, 206), (661, 206), (661, 204), (661, 204), (662, 203), (663, 202), (665, 198), (666, 197), (666, 196), (666, 195), (668, 193), (669, 192), (669, 192), (669, 191), (669, 190), (669, 190), (669, 190), (669, 190), (669, 190), (669, 190), (669, 190), (669, 190), (669, 190), (669, 190), (669, 190), (669, 190), (669, 190), (669, 190), (669, 190), (669, 190), (669, 190), (669, 190), (669, 190), (669, 190), (669, 190), (669, 190), (669, 190), (669, 190), (669, 190), (669, 190), (669, 190), (669, 190), (669, 190), (669, 190), (670, 190)]",309.16050768848254,"[3, 9, 6, 2, 5, 4, 8, 1, 7]","(0, 0.25)",DOT007C,DOT,C,Chinese,Fri Oct 19 17:13:58 2018,Mouse
2,3,3,0,87,7,7,1,2210,19,2191,139,0,500,200,8000,"[(513, 383), (510, 383), (510, 383), (510, 383), (509, 382), (509, 382), (509, 382), (509, 382), (509, 382), (509, 374), (509, 371), (509, 369), (509, 366), (509, 361), (509, 359), (509, 359), (509, 358), (510, 356), (510, 356), (510, 356), (510, 355), (510, 355), (510, 355), (510, 355), (510, 355), (510, 355), (510, 355), (510, 355), (510, 355), (510, 355), (510, 355), (510, 357), (510, 357), (511, 361), (511, 361), (511, 361), (511, 361), (511, 361), (511, 361), (511, 361), (511, 361), (511, 361), (511, 361), (511, 361), (511, 361), (511, 361), (511, 361), (511, 361), (511, 361), (511, 361), (511, 361), (511, 361), (511, 361), (511, 361), (511, 361), (511, 361), (511, 361), (511, 361), (511, 361), (511, 361), (510, 361), (505, 361), (501, 361), (494, 361), (486, 364), (469, 371), (462, 374), (455, 377), (451, 379), (441, 382), (438, 382), (436, 382), (433, 382), (431, 382), (430, 382), (427, 382), (426, 382), (422, 383), (422, 383), (422, 383), (422, 383), (422, 384), (422, 386), (423, 386), (423, 387), (424, 389), (424, 391), (424, 393), (424, 397), (424, 406), (424, 413), (424, 418), (424, 424), (427, 438), (429, 444), (430, 450), (432, 457), (435, 467), (437, 472), (437, 473), (438, 476), (438, 476), (438, 476), (438, 476), (438, 476), (439, 478), (439, 478), (441, 478), (442, 479), (443, 479), (444, 479), (444, 479), (445, 480), (445, 480), (445, 480), (446, 480), (446, 480), (449, 481), (450, 481), (451, 482), (451, 482), (452, 482), (453, 483), (453, 483), (453, 483), (454, 483), (455, 483), (456, 483), (456, 483), (457, 483), (457, 483), (457, 483), (457, 483), (458, 483), (458, 483), (458, 483), (458, 483), (458, 483), (458, 483), (459, 483), (459, 483), (459, 483), (459, 483), (459, 482), (459, 478), (458, 464), (450, 447), (442, 422), (431, 395), (426, 367), (424, 359), (422, 353), (422, 348), (420, 340), (420, 338), (419, 335), (416, 329), (408, 312), (405, 303), (402, 297), (401, 295), (400, 293), (400, 291), (400, 291), (400, 290), (399, 289), (399, 289), (399, 287), (399, 287), (399, 287), (399, 287), (399, 287), (399, 287), (399, 287), (399, 287), (399, 287), (399, 287), (399, 287), (399, 287), (399, 287), (399, 287), (399, 287), (399, 287), (399, 287), (399, 287), (399, 287), (403, 287), (408, 287), (411, 287), (420, 287), (424, 287), (433, 287), (438, 287), (452, 287), (458, 286), (464, 282), (467, 282), (477, 280), (481, 280), (489, 278), (493, 278), (501, 278), (507, 278), (511, 278), (517, 278), (528, 278), (534, 279), (539, 280), (544, 280), (554, 282), (558, 283), (564, 283), (572, 283), (588, 287), (597, 288), (607, 289), (621, 289), (657, 290), (682, 290), (716, 290), (746, 290)]",338.1142079833268,"[3, 9, 6, 2, 5, 4, 8, 1, 7]","(0, 0.25)",DOT007C,DOT,C,Chinese,Fri Oct 19 17:13:58 2018,Mouse
2,3,3,0,88,4,4,1,622,92,530,138,0,500,200,8000,"[(512, 384), (512, 384), (512, 384), (512, 384), (512, 384), (512, 384), (512, 384), (512, 384), (512, 384), (501, 372), (491, 368), (485, 361), (479, 355), (465, 337), (461, 327), (458, 321), (456, 315), (453, 308), (453, 307), (453, 306), (453, 306), (453, 304), (453, 304), (453, 304), (453, 304), (453, 304), (452, 304), (452, 304), (452, 304), (452, 304), (452, 304), (451, 304), (450, 304), (449, 304), (447, 304), (445, 304), (443, 304), (439, 304), (436, 304), (435, 304), (431, 304), (429, 304), (427, 304), (426, 304), (426, 304), (425, 304), (425, 304), (424, 304), (423, 304), (421, 304), (420, 303), (419, 303), (418, 302), (415, 299), (413, 295), (411, 290), (406, 279), (393, 258), (384, 245), (373, 232), (362, 224), (340, 211), (330, 205)]",224.52386874835813,"[3, 9, 6, 2, 5, 4, 8, 1, 7]","(0, 0.25)",DOT007C,DOT,C,Chinese,Fri Oct 19 17:13:58 2018,Mouse
2,3,3,0,89,6,5,0,-422,72,350,137,0,500,200,8000,"[(512, 384), (512, 384), (512, 384), (512, 384), (512, 384), (512, 384), (512, 384), (512, 385), (512, 385), (511, 385), (511, 385), (510, 385), (509, 385), (509, 385), (509, 386), (509, 386), (508, 386), (508, 386), (507, 386), (506, 386), (504, 386), (503, 386), (500, 386), (497, 386), (495, 386), (491, 386), (485, 387), (482, 387), (477, 387), (473, 387), (468, 387), (458, 387), (453, 387), (445, 387), (439, 387), (424, 387), (416, 387), (405, 387), (382, 387), (368, 387), (348, 387), (325, 387), (253, 387)]",179.33637199998677,"[3, 9, 6, 2, 5, 4, 8, 1, 7]","(0, 0.25)",DOT007C,DOT,C,Chinese,Fri Oct 19 17:13:58 2018,Mouse
