NativeLangNumber,LanuageNumber,SessionNumber,Block,TrialNum,ConditionNumber,Response,Accuracy,RT,MovementOnsetTime,TimeInMotion,SignalContrast,SignalContrastNumber,StimDisplayTime,MaskTime,MaxResponseTime,MousePositionXY,MouseAngle,WheelOrder,NoiseMuSigma,ParticipantID,LanuageTested,SessionTested,NativeLanuage,Date,ResponseDevice
2,3,3,0,1,1,1,1,688,548,140,153,0,500,200,8000,"[(512, 384), (512, 384), (512, 384), (512, 384), (512, 384), (512, 384), (512, 384), (512, 384), (512, 384), (512, 384), (512, 384), (512, 384), (512, 384), (512, 384), (512, 384), (512, 384), (512, 384), (512, 384), (512, 384), (512, 384), (512, 384), (512, 384), (512, 384), (512, 384), (512, 384), (512, 384), (512, 384), (512, 384), (512, 384), (512, 384), (512, 384), (512, 384), (512, 384), (512, 384), (512, 384), (512, 384), (512, 384), (512, 384), (512, 384), (512, 384), (512, 384), (512, 384), (512, 384), (512, 384), (512, 384), (512, 384), (512, 384), (512, 384), (512, 384), (512, 384), (512, 384), (512, 384), (512, 384), (512, 384), (512, 390), (516, 397), (517, 407), (517, 418), (517, 441), (517, 455), (515, 478), (513, 485), (505, 513), (498, 532), (494, 548), (489, 568), (475, 605), (466, 624), (457, 644)]",101.94417718844633,"[2, 8, 1, 7, 6, 5, 9, 4, 3]","(0, 0.25)",DOT001C,DOT,C,Chinese,Tue Aug 28 15:46:58 2018,Mouse
2,3,3,0,2,2,2,1,462,422,40,153,0,500,200,8000,"[(512, 384), (512, 384), (512, 384), (512, 384), (512, 384), (512, 384), (512, 384), (512, 384), (512, 384), (512, 384), (512, 384), (512, 384), (512, 384), (512, 384), (512, 384), (512, 384), (512, 384), (512, 384), (512, 384), (512, 384), (512, 384), (512, 384), (512, 384), (512, 384), (512, 384), (512, 384), (512, 384), (512, 384), (512, 384), (512, 384), (512, 384), (512, 384), (512, 384), (512, 384), (512, 384), (512, 384), (512, 384), (512, 384), (512, 384), (512, 384), (512, 384), (512, 384), (574, 426), (618, 454), (667, 474), (728, 495), (851, 522)]",22.15023792835078,"[2, 8, 1, 7, 6, 5, 9, 4, 3]","(0, 0.25)",DOT001C,DOT,C,Chinese,Tue Aug 28 15:46:58 2018,Mouse
2,3,3,0,3,3,3,1,321,201,120,152,0,500,200,8000,"[(512, 384), (512, 384), (512, 384), (512, 384), (512, 384), (512, 384), (512, 384), (512, 384), (512, 384), (512, 384), (512, 384), (512, 384), (512, 384), (512, 384), (512, 384), (512, 384), (512, 384), (512, 384), (512, 384), (512, 384), (520, 380), (529, 378), (539, 373), (550, 367), (576, 358), (592, 354), (612, 347), (627, 341), (668, 326), (683, 320), (704, 309), (721, 303), (752, 289)]",338.40468955103233,"[2, 8, 1, 7, 6, 5, 9, 4, 3]","(0, 0.25)",DOT001C,DOT,C,Chinese,Tue Aug 28 15:46:58 2018,Mouse
2,3,3,0,4,5,5,1,402,272,130,151,0,500,200,8000,"[(512, 384), (512, 384), (512, 384), (512, 384), (512, 384), (512, 384), (512, 384), (512, 384), (512, 384), (512, 384), (512, 384), (512, 384), (512, 384), (512, 384), (512, 384), (512, 384), (512, 384), (512, 384), (512, 384), (512, 384), (512, 384), (512, 384), (512, 384), (512, 384), (512, 384), (512, 384), (512, 384), (511, 382), (503, 368), (500, 362), (493, 352), (489, 346), (477, 329), (469, 320), (463, 313), (452, 297), (423, 255), (407, 235), (394, 215), (378, 195), (351, 167)]",233.42696902148066,"[2, 8, 1, 7, 6, 5, 9, 4, 3]","(0, 0.25)",DOT001C,DOT,C,Chinese,Tue Aug 28 15:46:58 2018,Mouse
2,3,3,0,5,3,3,1,364,294,70,150,0,500,200,8000,"[(512, 384), (512, 384), (512, 384), (512, 384), (512, 384), (512, 384), (512, 384), (512, 384), (512, 384), (512, 384), (512, 384), (512, 384), (512, 384), (512, 384), (512, 384), (512, 384), (512, 384), (512, 384), (512, 384), (512, 384), (512, 384), (512, 384), (512, 384), (512, 384), (512, 384), (512, 384), (512, 384), (512, 384), (512, 384), (516, 384), (528, 382), (568, 375), (605, 370), (637, 366), (673, 359), (756, 348), (794, 341)]",351.3301913429835,"[2, 8, 1, 7, 6, 5, 9, 4, 3]","(0, 0.25)",DOT001C,DOT,C,Chinese,Tue Aug 28 15:46:58 2018,Mouse
2,3,3,0,6,1,1,1,353,243,110,149,0,500,200,8000,"[(512, 384), (512, 384), (512, 384), (512, 384), (512, 384), (512, 384), (512, 384), (512, 384), (512, 384), (512, 384), (512, 384), (512, 384), (512, 384), (512, 384), (512, 384), (512, 384), (512, 384), (512, 384), (512, 384), (512, 384), (512, 384), (512, 384), (512, 384), (512, 384), (511, 385), (508, 395), (508, 403), (502, 435), (500, 449), (498, 466), (492, 485), (479, 531), (473, 558), (464, 599), (459, 626), (446, 684)]",102.40741852740075,"[2, 8, 1, 7, 6, 5, 9, 4, 3]","(0, 0.25)",DOT001C,DOT,C,Chinese,Tue Aug 28 15:46:58 2018,Mouse
2,3,3,0,7,1,1,1,320,170,150,148,0,500,200,8000,"[(512, 384), (512, 384), (512, 384), (512, 384), (512, 384), (512, 384), (512, 384), (512, 384), (512, 384), (512, 384), (512, 384), (512, 384), (512, 384), (512, 384), (512, 384), (512, 384), (511, 386), (511, 393), (511, 399), (511, 418), (511, 429), (511, 439), (511, 452), (509, 479), (504, 492), (499, 504), (497, 520), (485, 554), (479, 574), (475, 595), (469, 618), (459, 652)]",101.18653902621237,"[2, 8, 1, 7, 6, 5, 9, 4, 3]","(0, 0.25)",DOT001C,DOT,C,Chinese,Tue Aug 28 15:46:58 2018,Mouse
2,3,3,0,8,3,3,1,402,282,120,147,0,500,200,8000,"[(512, 384), (512, 384), (512, 384), (512, 384), (512, 384), (512, 384), (512, 384), (512, 384), (512, 384), (512, 384), (512, 384), (512, 384), (512, 384), (512, 384), (512, 384), (512, 384), (512, 384), (512, 384), (512, 384), (512, 384), (512, 384), (512, 384), (512, 384), (512, 384), (512, 384), (512, 384), (512, 384), (512, 384), (515, 384), (519, 384), (525, 380), (533, 379), (549, 374), (558, 371), (568, 368), (588, 362), (624, 352), (645, 343), (667, 336), (689, 325), (758, 292)]",339.4950205240369,"[2, 8, 1, 7, 6, 5, 9, 4, 3]","(0, 0.25)",DOT001C,DOT,C,Chinese,Tue Aug 28 15:46:58 2018,Mouse
2,3,3,0,9,5,5,1,365,205,160,146,0,500,200,8000,"[(512, 384), (512, 384), (512, 384), (512, 384), (512, 384), (512, 384), (512, 384), (512, 384), (512, 384), (512, 384), (512, 384), (512, 384), (512, 384), (512, 384), (512, 384), (512, 384), (512, 384), (512, 384), (512, 384), (512, 384), (507, 383), (499, 380), (492, 376), (474, 371), (465, 368), (455, 365), (446, 360), (428, 353), (419, 348), (408, 344), (398, 338), (371, 323), (357, 313), (339, 303), (325, 294), (292, 273), (275, 264)]",206.8544213405186,"[2, 8, 1, 7, 6, 5, 9, 4, 3]","(0, 0.25)",DOT001C,DOT,C,Chinese,Tue Aug 28 15:46:58 2018,Mouse
2,3,3,0,10,6,6,1,292,42,250,145,0,500,200,8000,"[(512, 384), (512, 384), (512, 384), (512, 384), (511, 385), (511, 385), (511, 385), (511, 385), (509, 385), (504, 385), (497, 385), (479, 385), (470, 385), (464, 385), (454, 385), (439, 385), (434, 385), (424, 385), (420, 385), (406, 385), (399, 385), (391, 385), (384, 385), (359, 383), (346, 380), (329, 380), (316, 380), (286, 380), (269, 380), (247, 380)]",180.86477628229096,"[2, 8, 1, 7, 6, 5, 9, 4, 3]","(0, 0.25)",DOT001C,DOT,C,Chinese,Tue Aug 28 15:46:58 2018,Mouse
2,3,3,0,11,8,8,1,612,222,390,144,0,500,200,8000,"[(512, 384), (512, 384), (512, 384), (512, 384), (512, 384), (512, 384), (512, 384), (512, 384), (512, 384), (512, 384), (512, 384), (512, 384), (512, 384), (512, 384), (512, 384), (512, 384), (512, 384), (512, 384), (512, 384), (512, 384), (512, 384), (512, 384), (511, 384), (511, 384), (511, 384), (511, 384), (511, 384), (511, 384), (511, 384), (511, 384), (511, 384), (511, 384), (511, 384), (511, 384), (511, 384), (511, 384), (511, 384), (511, 384), (511, 384), (511, 384), (511, 384), (511, 384), (511, 384), (511, 384), (511, 384), (511, 384), (511, 384), (511, 384), (511, 384), (510, 387), (519, 403), (525, 410), (531, 419), (541, 431), (559, 452), (572, 469), (586, 489), (603, 510), (631, 549), (643, 568), (651, 589), (662, 610)]",56.42710159394514,"[2, 8, 1, 7, 6, 5, 9, 4, 3]","(0, 0.25)",DOT001C,DOT,C,Chinese,Tue Aug 28 15:46:58 2018,Mouse
2,3,3,0,12,6,6,1,374,304,70,143,0,500,200,8000,"[(512, 384), (512, 384), (512, 384), (512, 384), (512, 384), (512, 384), (512, 384), (512, 384), (512, 384), (512, 384), (512, 384), (512, 384), (512, 384), (512, 384), (512, 384), (512, 384), (512, 384), (512, 384), (512, 384), (512, 384), (512, 384), (512, 384), (512, 384), (512, 384), (512, 384), (512, 384), (512, 384), (512, 384), (512, 384), (512, 384), (506, 384), (494, 384), (453, 384), (428, 384), (403, 384), (366, 384), (289, 384), (241, 382)]",180.4228394046705,"[2, 8, 1, 7, 6, 5, 9, 4, 3]","(0, 0.25)",DOT001C,DOT,C,Chinese,Tue Aug 28 15:46:58 2018,Mouse
2,3,3,0,13,7,7,1,563,473,90,142,0,500,200,8000,"[(512, 384), (512, 384), (512, 384), (512, 384), (512, 384), (512, 384), (512, 384), (512, 384), (512, 384), (512, 384), (512, 384), (512, 384), (512, 384), (512, 384), (512, 384), (512, 384), (512, 384), (512, 384), (512, 384), (512, 384), (512, 384), (512, 384), (512, 384), (512, 384), (512, 384), (512, 384), (512, 384), (512, 384), (512, 384), (512, 384), (512, 384), (512, 384), (512, 384), (512, 384), (512, 384), (512, 384), (512, 384), (512, 384), (512, 384), (512, 384), (512, 384), (512, 384), (512, 384), (512, 384), (512, 384), (512, 384), (512, 384), (506, 392), (494, 403), (484, 410), (470, 419), (432, 452), (411, 469), (388, 489), (369, 508), (333, 541), (316, 559)]",138.23970029610214,"[2, 8, 1, 7, 6, 5, 9, 4, 3]","(0, 0.25)",DOT001C,DOT,C,Chinese,Tue Aug 28 15:46:58 2018,Mouse
2,3,3,0,14,3,3,1,552,452,100,141,0,500,200,8000,"[(512, 384), (512, 384), (512, 384), (512, 384), (512, 384), (512, 384), (512, 384), (512, 384), (512, 384), (512, 384), (512, 384), (512, 384), (512, 384), (512, 384), (512, 384), (512, 384), (512, 384), (512, 384), (512, 384), (512, 384), (512, 384), (512, 384), (512, 384), (512, 384), (512, 384), (512, 384), (512, 384), (512, 384), (512, 384), (512, 384), (512, 384), (512, 384), (512, 384), (512, 384), (512, 384), (512, 384), (512, 384), (512, 384), (512, 384), (512, 384), (512, 384), (512, 384), (512, 384), (512, 384), (512, 384), (515, 384), (523, 384), (547, 381), (560, 378), (576, 376), (592, 372), (640, 365), (667, 360), (690, 352), (718, 344), (777, 324)]",347.2424678391233,"[2, 8, 1, 7, 6, 5, 9, 4, 3]","(0, 0.25)",DOT001C,DOT,C,Chinese,Tue Aug 28 15:46:58 2018,Mouse
2,3,3,0,15,3,3,1,479,249,230,140,0,500,200,8000,"[(512, 384), (512, 384), (512, 384), (512, 384), (512, 384), (512, 384), (512, 384), (512, 384), (512, 384), (512, 384), (512, 384), (512, 384), (512, 384), (512, 384), (512, 384), (512, 384), (512, 384), (512, 384), (512, 384), (512, 384), (512, 384), (512, 384), (512, 384), (512, 384), (513, 384), (519, 384), (538, 384), (546, 384), (556, 384), (565, 384), (583, 384), (592, 380), (598, 380), (605, 379), (616, 374), (622, 371), (627, 370), (633, 367), (644, 362), (651, 360), (661, 356), (668, 354), (689, 345), (702, 340), (712, 336), (721, 332), (743, 321), (753, 316)]",344.2431797632418,"[2, 8, 1, 7, 6, 5, 9, 4, 3]","(0, 0.25)",DOT001C,DOT,C,Chinese,Tue Aug 28 15:46:58 2018,Mouse
2,3,3,0,16,4,4,1,991,381,610,139,0,500,200,8000,"[(512, 384), (512, 384), (512, 384), (512, 384), (512, 384), (512, 384), (512, 384), (512, 384), (512, 384), (512, 384), (512, 384), (512, 384), (512, 384), (512, 384), (512, 384), (512, 384), (512, 384), (512, 384), (512, 384), (512, 384), (512, 384), (512, 384), (512, 384), (512, 384), (512, 384), (512, 384), (512, 384), (512, 384), (512, 384), (512, 384), (512, 384), (512, 384), (512, 384), (512, 384), (512, 384), (512, 384), (512, 384), (512, 384), (512, 383), (495, 376), (486, 372), (476, 368), (467, 364), (447, 356), (437, 351), (432, 349), (429, 348), (428, 347), (428, 347), (428, 347), (428, 347), (428, 347), (428, 347), (428, 347), (428, 347), (428, 347), (428, 347), (428, 347), (428, 347), (428, 347), (428, 347), (428, 347), (428, 347), (428, 347), (428, 347), (428, 347), (428, 347), (432, 344), (440, 342), (452, 338), (464, 332), (492, 321), (508, 316), (518, 313), (531, 307), (555, 297), (562, 291), (571, 286), (578, 279), (587, 268), (590, 261), (591, 257), (593, 251), (597, 244), (598, 242), (599, 240), (601, 236), (605, 230), (606, 226), (607, 223), (610, 217), (614, 211), (615, 208), (618, 202), (621, 197), (629, 186), (632, 180), (635, 177), (638, 172), (645, 161)]",300.8123809806824,"[2, 8, 1, 7, 6, 5, 9, 4, 3]","(0, 0.25)",DOT001C,DOT,C,Chinese,Tue Aug 28 15:46:58 2018,Mouse
2,3,3,0,17,1,5,0,-582,322,260,138,0,500,200,8000,"[(512, 384), (512, 384), (512, 384), (512, 384), (512, 384), (512, 384), (512, 384), (512, 384), (512, 384), (512, 384), (512, 384), (512, 384), (512, 384), (512, 384), (512, 384), (512, 384), (512, 384), (512, 384), (512, 384), (512, 384), (512, 384), (512, 384), (512, 384), (512, 384), (512, 384), (512, 384), (512, 384), (512, 384), (512, 384), (512, 384), (512, 384), (512, 384), (499, 378), (489, 375), (478, 369), (466, 364), (443, 351), (430, 344), (417, 337), (407, 331), (387, 318), (378, 313), (371, 309), (364, 304), (350, 291), (346, 286), (343, 282), (341, 278), (336, 271), (333, 267), (329, 262), (326, 259), (323, 254), (322, 253), (319, 250), (318, 248), (315, 242), (313, 239), (310, 234)]",216.59662890943918,"[2, 8, 1, 7, 6, 5, 9, 4, 3]","(0, 0.25)",DOT001C,DOT,C,Chinese,Tue Aug 28 15:46:58 2018,Mouse
2,3,3,0,18,7,7,1,692,502,190,139,0,500,200,8000,"[(512, 384), (512, 384), (512, 384), (512, 384), (512, 384), (512, 384), (512, 384), (512, 384), (512, 384), (512, 384), (512, 384), (512, 384), (512, 384), (512, 384), (512, 384), (512, 384), (512, 384), (512, 384), (512, 384), (512, 384), (512, 384), (512, 384), (512, 384), (512, 384), (512, 384), (512, 384), (512, 384), (512, 384), (512, 384), (512, 384), (512, 384), (512, 384), (512, 384), (512, 384), (512, 384), (512, 384), (512, 384), (512, 384), (512, 384), (512, 384), (512, 384), (512, 384), (512, 384), (512, 384), (512, 384), (512, 384), (512, 384), (512, 384), (512, 384), (512, 384), (501, 399), (493, 407), (484, 418), (474, 431), (450, 452), (435, 464), (425, 473), (416, 481), (398, 493), (389, 498), (383, 504), (377, 508), (363, 517), (356, 522), (351, 524), (344, 528), (333, 532), (327, 536), (323, 538), (317, 542)]",140.98365758301807,"[2, 8, 1, 7, 6, 5, 9, 4, 3]","(0, 0.25)",DOT001C,DOT,C,Chinese,Tue Aug 28 15:46:58 2018,Mouse
2,3,3,0,19,3,3,1,765,485,280,139,0,500,200,8000,"[(512, 384), (512, 384), (512, 384), (512, 384), (512, 384), (512, 384), (512, 384), (512, 384), (512, 384), (512, 384), (512, 384), (512, 384), (512, 384), (512, 384), (512, 384), (512, 384), (512, 384), (512, 384), (512, 384), (512, 384), (512, 384), (512, 384), (512, 384), (512, 384), (512, 384), (512, 384), (512, 384), (512, 384), (512, 384), (512, 384), (512, 384), (512, 384), (512, 384), (512, 384), (512, 384), (512, 384), (512, 384), (512, 384), (512, 384), (512, 384), (512, 384), (512, 384), (512, 384), (512, 384), (512, 384), (512, 384), (512, 384), (512, 384), (512, 383), (519, 379), (530, 376), (548, 371), (584, 362), (604, 356), (632, 348), (657, 342), (695, 332), (708, 327), (720, 325), (727, 322), (731, 321), (731, 321), (731, 321), (731, 321), (731, 321), (731, 321), (731, 321), (731, 321), (731, 321), (731, 320), (731, 320), (731, 320), (731, 318), (736, 315), (741, 313), (745, 310), (768, 303)]",342.4423031551513,"[2, 8, 1, 7, 6, 5, 9, 4, 3]","(0, 0.25)",DOT001C,DOT,C,Chinese,Tue Aug 28 15:46:58 2018,Mouse
2,3,3,0,20,5,5,1,712,302,410,138,0,500,200,8000,"[(512, 384), (512, 384), (512, 384), (512, 384), (512, 384), (512, 384), (512, 384), (512, 384), (512, 384), (512, 384), (512, 384), (512, 384), (512, 384), (512, 384), (512, 384), (512, 384), (512, 384), (512, 384), (512, 384), (512, 384), (512, 384), (512, 384), (512, 384), (512, 384), (512, 384), (512, 384), (512, 384), (512, 384), (512, 384), (512, 384), (510, 385), (509, 385), (506, 386), (502, 386), (495, 386), (489, 386), (481, 386), (478, 386), (475, 386), (475, 386), (475, 386), (475, 386), (475, 386), (475, 386), (475, 386), (475, 386), (475, 386), (475, 386), (475, 386), (475, 386), (475, 386), (475, 386), (475, 386), (475, 386), (475, 386), (475, 386), (475, 386), (475, 386), (474, 386), (469, 382), (457, 366), (450, 358), (444, 352), (435, 341), (413, 320), (393, 303), (380, 291), (365, 279), (342, 258), (332, 249), (318, 238), (309, 229)]",217.36342778451115,"[2, 8, 1, 7, 6, 5, 9, 4, 3]","(0, 0.25)",DOT001C,DOT,C,Chinese,Tue Aug 28 15:46:58 2018,Mouse
2,3,3,0,21,1,5,0,-342,252,90,137,0,500,200,8000,"[(512, 384), (512, 384), (512, 384), (512, 384), (512, 384), (512, 384), (512, 384), (512, 384), (512, 384), (512, 384), (512, 384), (512, 384), (512, 384), (512, 384), (512, 384), (512, 384), (512, 384), (512, 384), (512, 384), (512, 384), (512, 384), (512, 384), (512, 384), (512, 384), (512, 384), (508, 381), (500, 366), (488, 354), (479, 342), (453, 313), (432, 296), (412, 280), (384, 261), (335, 229), (312, 215)]",220.1978099099457,"[2, 8, 1, 7, 6, 5, 9, 4, 3]","(0, 0.25)",DOT001C,DOT,C,Chinese,Tue Aug 28 15:46:58 2018,Mouse
2,3,3,0,22,7,7,1,570,430,140,138,0,500,200,8000,"[(512, 384), (512, 384), (512, 384), (512, 384), (512, 384), (512, 384), (512, 384), (512, 384), (512, 384), (512, 384), (512, 384), (512, 384), (512, 384), (512, 384), (512, 384), (512, 384), (512, 384), (512, 384), (512, 384), (512, 384), (512, 384), (512, 384), (512, 384), (512, 384), (512, 384), (512, 384), (512, 384), (512, 384), (512, 384), (512, 384), (512, 384), (512, 384), (512, 384), (512, 384), (512, 384), (512, 384), (512, 384), (512, 384), (512, 384), (512, 384), (512, 384), (512, 384), (508, 388), (504, 393), (497, 402), (490, 408), (469, 424), (458, 432), (442, 444), (428, 455), (401, 476), (384, 489), (372, 497), (360, 507), (333, 530), (321, 540), (309, 552)]",140.3893117599734,"[2, 8, 1, 7, 6, 5, 9, 4, 3]","(0, 0.25)",DOT001C,DOT,C,Chinese,Tue Aug 28 15:46:58 2018,Mouse
2,3,3,0,23,3,3,1,612,462,150,138,0,500,200,8000,"[(512, 384), (512, 384), (512, 384), (512, 384), (512, 384), (512, 384), (512, 384), (512, 384), (512, 384), (512, 384), (512, 384), (512, 384), (512, 384), (512, 384), (512, 384), (512, 384), (512, 384), (512, 384), (512, 384), (512, 384), (512, 384), (512, 384), (512, 384), (512, 384), (512, 384), (512, 384), (512, 384), (512, 384), (512, 384), (512, 384), (512, 384), (512, 384), (512, 384), (512, 384), (512, 384), (512, 384), (512, 384), (512, 384), (512, 384), (512, 384), (512, 384), (512, 384), (512, 384), (512, 384), (512, 384), (512, 384), (512, 383), (512, 382), (514, 381), (518, 379), (531, 375), (538, 373), (548, 367), (560, 362), (597, 347), (621, 341), (647, 333), (675, 325), (717, 312), (728, 308), (744, 304), (758, 300)]",341.1468412355809,"[2, 8, 1, 7, 6, 5, 9, 4, 3]","(0, 0.25)",DOT001C,DOT,C,Chinese,Tue Aug 28 15:46:58 2018,Mouse
2,3,3,0,24,3,3,1,404,134,270,137,0,500,200,8000,"[(512, 384), (512, 384), (512, 384), (512, 384), (512, 384), (512, 384), (512, 384), (512, 384), (512, 384), (512, 384), (512, 384), (512, 384), (512, 384), (515, 384), (519, 384), (523, 384), (536, 384), (543, 384), (548, 384), (556, 384), (572, 384), (577, 383), (583, 382), (589, 382), (598, 380), (602, 378), (607, 376), (613, 373), (621, 371), (627, 368), (635, 366), (644, 361), (659, 357), (668, 355), (678, 352), (689, 349), (710, 344), (723, 339), (735, 336), (746, 333), (771, 327)]",347.5883614107734,"[2, 8, 1, 7, 6, 5, 9, 4, 3]","(0, 0.25)",DOT001C,DOT,C,Chinese,Tue Aug 28 15:46:58 2018,Mouse
2,3,3,0,25,3,3,1,263,43,220,136,0,500,200,8000,"[(513, 384), (513, 384), (513, 384), (513, 384), (516, 382), (521, 380), (524, 379), (528, 378), (540, 374), (547, 373), (555, 370), (562, 368), (580, 363), (590, 360), (597, 358), (605, 354), (623, 347), (634, 344), (647, 340), (661, 337), (687, 331), (699, 329), (712, 327), (721, 326), (741, 319), (751, 316), (761, 313)]",344.08499973522464,"[2, 8, 1, 7, 6, 5, 9, 4, 3]","(0, 0.25)",DOT001C,DOT,C,Chinese,Tue Aug 28 15:46:58 2018,Mouse
2,3,3,0,26,4,5,0,-492,282,210,135,0,500,200,8000,"[(512, 384), (512, 384), (512, 384), (512, 384), (512, 384), (512, 384), (512, 384), (512, 384), (512, 384), (512, 384), (512, 384), (512, 384), (512, 384), (512, 384), (512, 384), (512, 384), (512, 384), (512, 384), (512, 384), (512, 384), (512, 384), (512, 384), (512, 384), (512, 384), (512, 384), (512, 384), (512, 384), (512, 384), (510, 382), (504, 377), (488, 367), (482, 363), (474, 358), (463, 352), (442, 339), (431, 329), (420, 321), (410, 314), (396, 303), (393, 299), (390, 297), (388, 293), (377, 277), (370, 268), (364, 258), (356, 244), (343, 228), (338, 223), (329, 216), (323, 211)]",222.46923698236458,"[2, 8, 1, 7, 6, 5, 9, 4, 3]","(0, 0.25)",DOT001C,DOT,C,Chinese,Tue Aug 28 15:46:58 2018,Mouse
2,3,3,0,27,8,9,0,-862,512,350,136,0,500,200,8000,"[(512, 384), (512, 384), (512, 384), (512, 384), (512, 384), (512, 384), (512, 384), (512, 384), (512, 384), (512, 384), (512, 384), (512, 384), (512, 384), (512, 384), (512, 384), (512, 384), (512, 384), (512, 384), (512, 384), (512, 384), (512, 384), (512, 384), (512, 384), (512, 384), (512, 384), (512, 384), (512, 384), (512, 384), (512, 384), (512, 384), (512, 384), (512, 384), (512, 384), (512, 384), (512, 384), (512, 384), (512, 384), (512, 384), (512, 384), (512, 384), (512, 384), (512, 384), (512, 384), (512, 384), (512, 384), (512, 384), (512, 384), (512, 384), (512, 384), (512, 384), (512, 384), (519, 393), (524, 400), (534, 413), (537, 418), (539, 422), (542, 424), (544, 427), (544, 427), (544, 427), (544, 427), (545, 428), (545, 429), (545, 430), (545, 430), (545, 430), (545, 430), (545, 430), (545, 430), (545, 430), (545, 430), (545, 430), (545, 430), (545, 430), (545, 430), (545, 430), (545, 405), (545, 391), (543, 376), (534, 348), (526, 317), (509, 254), (503, 232), (501, 208), (489, 156), (483, 137), (480, 123)]",263.01011495599903,"[2, 8, 1, 7, 6, 5, 9, 4, 3]","(0, 0.25)",DOT001C,DOT,C,Chinese,Tue Aug 28 15:46:58 2018,Mouse
2,3,3,0,28,2,3,0,-390,310,80,137,0,500,200,8000,"[(512, 384), (512, 384), (512, 384), (512, 384), (512, 384), (512, 384), (512, 384), (512, 384), (512, 384), (512, 384), (512, 384), (512, 384), (512, 384), (512, 384), (512, 384), (512, 384), (512, 384), (512, 384), (512, 384), (512, 384), (512, 384), (512, 384), (512, 384), (512, 384), (512, 384), (512, 384), (512, 384), (512, 384), (512, 384), (512, 384), (512, 385), (518, 385), (530, 384), (542, 382), (573, 372), (597, 366), (640, 360), (678, 353), (762, 342)]",350.4633642415406,"[2, 8, 1, 7, 6, 5, 9, 4, 3]","(0, 0.25)",DOT001C,DOT,C,Chinese,Tue Aug 28 15:46:58 2018,Mouse
2,3,3,0,29,8,9,0,-412,312,100,138,0,500,200,8000,"[(512, 384), (512, 384), (512, 384), (512, 384), (512, 384), (512, 384), (512, 384), (512, 384), (512, 384), (512, 384), (512, 384), (512, 384), (512, 384), (512, 384), (512, 384), (512, 384), (512, 384), (512, 384), (512, 384), (512, 384), (512, 384), (512, 384), (512, 384), (512, 384), (512, 384), (512, 384), (512, 384), (512, 384), (512, 384), (512, 384), (512, 384), (512, 379), (512, 348), (512, 331), (512, 309), (512, 292), (515, 254), (515, 229), (515, 195), (515, 176), (515, 147), (515, 130)]",270.6766903402793,"[2, 8, 1, 7, 6, 5, 9, 4, 3]","(0, 0.25)",DOT001C,DOT,C,Chinese,Tue Aug 28 15:46:58 2018,Mouse
2,3,3,0,30,3,3,1,432,292,140,139,0,500,200,8000,"[(512, 384), (512, 384), (512, 384), (512, 384), (512, 384), (512, 384), (512, 384), (512, 384), (512, 384), (512, 384), (512, 384), (512, 384), (512, 384), (512, 384), (512, 384), (512, 384), (512, 384), (512, 384), (512, 384), (512, 384), (512, 384), (512, 384), (512, 384), (512, 384), (512, 384), (512, 384), (512, 384), (512, 384), (512, 384), (515, 381), (521, 378), (539, 373), (547, 370), (558, 368), (566, 364), (592, 359), (609, 354), (621, 352), (635, 347), (665, 339), (680, 338), (695, 335), (716, 333), (760, 329)]",347.495656755422,"[2, 8, 1, 7, 6, 5, 9, 4, 3]","(0, 0.25)",DOT001C,DOT,C,Chinese,Tue Aug 28 15:46:58 2018,Mouse
2,3,3,0,31,3,3,1,192,112,80,139,0,500,200,8000,"[(512, 384), (512, 384), (512, 384), (512, 384), (512, 384), (512, 384), (512, 384), (512, 384), (512, 384), (512, 384), (512, 384), (517, 380), (540, 370), (558, 362), (581, 354), (609, 344), (675, 328), (704, 318), (737, 310), (762, 302)]",341.8405095332132,"[2, 8, 1, 7, 6, 5, 9, 4, 3]","(0, 0.25)",DOT001C,DOT,C,Chinese,Tue Aug 28 15:46:58 2018,Mouse
2,3,3,0,32,2,2,1,2093,123,1970,138,0,500,200,8000,"[(512, 384), (512, 384), (512, 384), (512, 384), (512, 384), (512, 384), (512, 384), (512, 384), (512, 384), (512, 384), (512, 384), (512, 384), (513, 384), (517, 384), (520, 384), (523, 384), (525, 383), (527, 383), (531, 381), (534, 380), (536, 380), (542, 379), (544, 379), (546, 379), (546, 379), (548, 379), (548, 379), (549, 379), (549, 379), (549, 379), (549, 379), (549, 379), (549, 379), (549, 379), (549, 379), (549, 379), (549, 379), (549, 379), (549, 379), (549, 379), (549, 379), (549, 379), (549, 379), (549, 379), (549, 379), (549, 379), (549, 379), (549, 379), (549, 379), (549, 379), (549, 379), (549, 379), (549, 379), (549, 379), (549, 379), (549, 379), (549, 379), (549, 379), (549, 379), (549, 379), (549, 379), (549, 379), (549, 379), (549, 379), (549, 379), (549, 379), (549, 379), (549, 379), (549, 379), (550, 379), (550, 379), (554, 379), (560, 378), (561, 375), (561, 375), (561, 375), (561, 375), (561, 375), (561, 375), (561, 375), (561, 375), (561, 375), (561, 375), (561, 375), (561, 375), (561, 375), (561, 375), (561, 375), (561, 375), (561, 375), (561, 375), (561, 375), (561, 375), (561, 375), (561, 375), (561, 375), (561, 375), (561, 375), (561, 375), (561, 375), (561, 375), (561, 375), (561, 375), (561, 375), (561, 375), (561, 375), (561, 375), (561, 375), (561, 375), (561, 375), (561, 375), (561, 375), (561, 375), (561, 375), (561, 375), (561, 375), (561, 375), (561, 375), (562, 375), (563, 375), (563, 376), (563, 376), (563, 376), (563, 376), (563, 376), (563, 376), (563, 376), (563, 376), (563, 376), (563, 376), (563, 376), (563, 376), (563, 376), (563, 376), (563, 376), (563, 376), (563, 376), (563, 376), (563, 376), (563, 376), (563, 376), (563, 376), (563, 376), (563, 376), (563, 376), (563, 376), (563, 376), (563, 376), (563, 376), (563, 376), (563, 376), (563, 376), (563, 376), (563, 376), (563, 376), (563, 376), (563, 376), (563, 376), (563, 376), (563, 376), (563, 376), (563, 376), (563, 376), (563, 376), (563, 376), (563, 376), (563, 376), (563, 376), (563, 376), (563, 376), (563, 376), (563, 376), (563, 376), (563, 376), (563, 376), (563, 376), (563, 376), (563, 376), (563, 376), (563, 376), (563, 376), (563, 376), (563, 376), (563, 376), (563, 376), (563, 376), (563, 376), (563, 376), (563, 376), (563, 376), (563, 376), (563, 376), (563, 376), (563, 376), (563, 376), (563, 376), (563, 376), (563, 376), (563, 376), (563, 376), (563, 376), (573, 384), (583, 388), (595, 393), (611, 398), (658, 410), (685, 415), (717, 420), (738, 423), (792, 432)]",9.727578551401603,"[2, 8, 1, 7, 6, 5, 9, 4, 3]","(0, 0.25)",DOT001C,DOT,C,Chinese,Tue Aug 28 15:46:58 2018,Mouse
2,3,3,0,33,4,5,0,-444,384,60,137,0,500,200,8000,"[(512, 384), (512, 384), (512, 384), (512, 384), (512, 384), (512, 384), (512, 384), (512, 384), (512, 384), (512, 384), (512, 384), (512, 384), (512, 384), (512, 384), (512, 384), (512, 384), (512, 384), (512, 384), (512, 384), (512, 384), (512, 384), (512, 384), (512, 384), (512, 384), (512, 384), (512, 384), (512, 384), (512, 384), (512, 384), (512, 384), (512, 384), (512, 384), (512, 384), (512, 384), (512, 384), (512, 384), (512, 384), (512, 384), (489, 368), (465, 357), (440, 341), (412, 319), (341, 280), (311, 261), (286, 246)]",211.40905155215867,"[2, 8, 1, 7, 6, 5, 9, 4, 3]","(0, 0.25)",DOT001C,DOT,C,Chinese,Tue Aug 28 15:46:58 2018,Mouse
2,3,3,0,34,8,8,1,751,611,140,138,0,500,200,8000,"[(512, 384), (512, 384), (512, 384), (512, 384), (512, 384), (512, 384), (512, 384), (512, 384), (512, 384), (512, 384), (512, 384), (512, 384), (512, 384), (512, 384), (512, 384), (512, 384), (512, 384), (512, 384), (512, 384), (512, 384), (512, 384), (512, 384), (512, 384), (512, 384), (512, 384), (512, 384), (512, 384), (512, 384), (512, 384), (512, 384), (512, 384), (512, 384), (512, 384), (512, 384), (512, 384), (512, 384), (512, 384), (512, 384), (512, 384), (512, 384), (512, 384), (512, 384), (512, 384), (512, 384), (512, 384), (512, 384), (512, 384), (512, 384), (512, 384), (512, 384), (512, 384), (512, 384), (512, 384), (512, 384), (512, 384), (512, 384), (512, 384), (512, 384), (512, 384), (512, 384), (512, 384), (513, 391), (519, 402), (533, 433), (543, 451), (556, 472), (565, 493), (576, 523), (582, 539), (587, 552), (592, 563), (602, 584), (605, 594), (609, 603), (614, 612), (618, 626)]",66.34578664908976,"[2, 8, 1, 7, 6, 5, 9, 4, 3]","(0, 0.25)",DOT001C,DOT,C,Chinese,Tue Aug 28 15:46:58 2018,Mouse
2,3,3,0,35,5,5,1,837,627,210,138,0,500,200,8000,"[(512, 384), (512, 384), (512, 384), (512, 384), (512, 384), (512, 384), (512, 384), (512, 384), (512, 384), (512, 384), (512, 384), (512, 384), (512, 384), (512, 384), (512, 384), (512, 384), (512, 384), (512, 384), (512, 384), (512, 384), (512, 384), (512, 384), (512, 384), (512, 384), (512, 384), (512, 384), (512, 384), (512, 384), (512, 384), (512, 384), (512, 384), (512, 384), (512, 384), (512, 384), (512, 384), (512, 384), (512, 384), (512, 384), (512, 384), (512, 384), (512, 384), (512, 384), (512, 384), (512, 384), (512, 384), (512, 384), (512, 384), (512, 384), (512, 384), (512, 384), (512, 384), (512, 384), (512, 384), (512, 384), (512, 384), (512, 384), (512, 384), (512, 384), (512, 384), (512, 384), (512, 384), (512, 384), (509, 376), (490, 354), (481, 343), (472, 330), (454, 311), (426, 283), (416, 274), (408, 266), (398, 258), (387, 247), (382, 242), (378, 238), (375, 235), (368, 229), (365, 226), (361, 223), (359, 221), (352, 216), (350, 214), (344, 213), (343, 211), (334, 207)]",224.83860386487962,"[2, 8, 1, 7, 6, 5, 9, 4, 3]","(0, 0.25)",DOT001C,DOT,C,Chinese,Tue Aug 28 15:46:58 2018,Mouse
2,3,3,0,36,9,7,0,-1612,542,1070,137,0,500,200,8000,"[(512, 384), (512, 384), (512, 384), (512, 384), (512, 384), (512, 384), (512, 384), (512, 384), (512, 384), (512, 384), (512, 384), (512, 384), (512, 384), (512, 384), (512, 384), (512, 384), (512, 384), (512, 384), (512, 384), (512, 384), (512, 384), (512, 384), (512, 384), (512, 384), (512, 384), (512, 384), (512, 384), (512, 384), (512, 384), (512, 384), (512, 384), (512, 384), (512, 384), (512, 384), (512, 384), (512, 384), (512, 384), (512, 384), (512, 384), (512, 384), (512, 384), (512, 384), (512, 384), (512, 384), (512, 384), (512, 384), (512, 384), (512, 384), (512, 384), (512, 384), (512, 384), (512, 384), (512, 384), (512, 384), (511, 384), (511, 373), (511, 354), (511, 347), (511, 339), (510, 334), (509, 331), (509, 331), (508, 329), (508, 329), (508, 329), (508, 329), (508, 329), (508, 329), (508, 329), (508, 329), (508, 329), (508, 329), (508, 329), (508, 329), (508, 329), (508, 329), (508, 329), (508, 329), (508, 329), (508, 329), (508, 329), (508, 329), (508, 329), (508, 329), (508, 329), (508, 329), (508, 329), (508, 329), (508, 329), (508, 329), (508, 329), (508, 329), (508, 329), (508, 329), (508, 329), (508, 329), (508, 329), (508, 329), (508, 329), (508, 329), (508, 329), (508, 329), (508, 329), (508, 329), (508, 329), (508, 329), (508, 329), (508, 329), (508, 329), (508, 329), (508, 329), (508, 329), (508, 329), (508, 329), (508, 329), (508, 329), (508, 329), (508, 329), (508, 329), (508, 329), (508, 329), (508, 329), (508, 329), (508, 329), (508, 329), (508, 329), (508, 329), (508, 329), (508, 329), (508, 329), (508, 329), (508, 329), (508, 329), (508, 329), (508, 329), (508, 329), (508, 329), (508, 329), (508, 329), (508, 329), (508, 329), (508, 329), (508, 329), (508, 329), (508, 329), (508, 329), (508, 329), (508, 329), (508, 329), (508, 329), (508, 329), (508, 329), (508, 329), (508, 329), (508, 329), (506, 330), (482, 350), (453, 379), (423, 409), (388, 444), (320, 514), (290, 543)]",144.38914756133124,"[2, 8, 1, 7, 6, 5, 9, 4, 3]","(0, 0.25)",DOT001C,DOT,C,Chinese,Tue Aug 28 15:46:58 2018,Mouse
2,3,3,0,37,9,9,1,433,273,160,138,0,500,200,8000,"[(512, 384), (512, 384), (512, 384), (512, 384), (512, 384), (512, 384), (512, 384), (512, 384), (512, 384), (512, 384), (512, 384), (512, 384), (512, 384), (512, 384), (512, 384), (512, 384), (512, 384), (512, 384), (512, 384), (512, 384), (512, 384), (512, 384), (512, 384), (512, 384), (512, 384), (512, 384), (512, 384), (511, 384), (511, 377), (511, 369), (510, 362), (507, 347), (507, 335), (506, 323), (506, 311), (506, 285), (506, 268), (506, 253), (505, 232), (505, 196), (505, 181), (505, 166), (505, 154), (505, 127)]",268.4398003130713,"[2, 8, 1, 7, 6, 5, 9, 4, 3]","(0, 0.25)",DOT001C,DOT,C,Chinese,Tue Aug 28 15:46:58 2018,Mouse
2,3,3,0,38,2,5,0,-602,542,60,138,0,500,200,8000,"[(512, 384), (512, 384), (512, 384), (512, 384), (512, 384), (512, 384), (512, 384), (512, 384), (512, 384), (512, 384), (512, 384), (512, 384), (512, 384), (512, 384), (512, 384), (512, 384), (512, 384), (512, 384), (512, 384), (512, 384), (512, 384), (512, 384), (512, 384), (512, 384), (512, 384), (512, 384), (512, 384), (512, 384), (512, 384), (512, 384), (512, 384), (512, 384), (512, 384), (512, 384), (512, 384), (512, 384), (512, 384), (512, 384), (512, 384), (512, 384), (512, 384), (512, 384), (512, 384), (512, 384), (512, 384), (512, 384), (512, 384), (512, 384), (512, 384), (512, 384), (512, 384), (512, 384), (512, 384), (512, 384), (508, 377), (466, 351), (433, 331), (403, 311), (370, 291), (300, 256), (275, 239)]",211.45889291794853,"[2, 8, 1, 7, 6, 5, 9, 4, 3]","(0, 0.25)",DOT001C,DOT,C,Chinese,Tue Aug 28 15:46:58 2018,Mouse
2,3,3,0,39,4,5,0,-392,212,180,139,0,500,200,8000,"[(512, 384), (512, 384), (512, 384), (512, 384), (512, 384), (512, 384), (512, 384), (512, 384), (512, 384), (512, 384), (512, 384), (512, 384), (512, 384), (512, 384), (512, 384), (512, 384), (512, 384), (512, 384), (512, 384), (512, 384), (512, 384), (510, 385), (503, 377), (485, 352), (475, 338), (465, 326), (456, 316), (432, 291), (424, 282), (418, 275), (409, 268), (393, 252), (386, 247), (380, 242), (372, 237), (359, 228), (349, 223), (339, 220), (330, 216), (320, 212)]",221.85504253530198,"[2, 8, 1, 7, 6, 5, 9, 4, 3]","(0, 0.25)",DOT001C,DOT,C,Chinese,Tue Aug 28 15:46:58 2018,Mouse
2,3,3,0,40,6,7,0,-531,251,280,140,0,500,200,8000,"[(512, 384), (512, 384), (512, 384), (512, 384), (512, 384), (512, 384), (512, 384), (512, 384), (512, 384), (512, 384), (512, 384), (512, 384), (512, 384), (512, 384), (512, 384), (512, 384), (512, 384), (512, 384), (512, 384), (512, 384), (512, 384), (512, 384), (512, 384), (512, 384), (512, 384), (514, 380), (515, 379), (515, 377), (515, 376), (516, 376), (516, 376), (516, 376), (517, 376), (517, 376), (517, 376), (517, 376), (517, 376), (517, 376), (517, 376), (517, 376), (517, 376), (517, 378), (515, 379), (511, 381), (506, 385), (490, 399), (480, 406), (473, 413), (459, 423), (423, 446), (399, 461), (377, 473), (342, 492), (284, 527)]",147.90435175511269,"[2, 8, 1, 7, 6, 5, 9, 4, 3]","(0, 0.25)",DOT001C,DOT,C,Chinese,Tue Aug 28 15:46:58 2018,Mouse
2,3,3,0,41,8,9,0,-391,241,150,141,0,500,200,8000,"[(512, 384), (512, 384), (512, 384), (512, 384), (512, 384), (512, 384), (512, 384), (512, 384), (512, 384), (512, 384), (512, 384), (512, 384), (512, 384), (512, 384), (512, 384), (512, 384), (512, 384), (512, 384), (512, 384), (512, 384), (512, 384), (512, 384), (512, 384), (512, 384), (512, 374), (515, 364), (516, 353), (519, 341), (525, 315), (527, 301), (529, 287), (530, 273), (535, 240), (538, 222), (540, 206), (540, 193), (545, 161), (548, 150), (548, 140), (548, 135)]",278.22672246410815,"[2, 8, 1, 7, 6, 5, 9, 4, 3]","(0, 0.25)",DOT001C,DOT,C,Chinese,Tue Aug 28 15:46:58 2018,Mouse
2,3,3,0,42,7,7,1,612,452,160,142,0,500,200,8000,"[(512, 384), (512, 384), (512, 384), (512, 384), (512, 384), (512, 384), (512, 384), (512, 384), (512, 384), (512, 384), (512, 384), (512, 384), (512, 384), (512, 384), (512, 384), (512, 384), (512, 384), (512, 384), (512, 384), (512, 384), (512, 384), (512, 384), (512, 384), (512, 384), (512, 384), (512, 384), (512, 384), (512, 384), (512, 384), (512, 384), (512, 384), (512, 384), (512, 384), (512, 384), (512, 384), (512, 384), (512, 384), (512, 384), (512, 384), (512, 384), (512, 384), (512, 384), (512, 384), (512, 384), (512, 384), (504, 392), (500, 395), (494, 400), (488, 405), (472, 418), (464, 423), (455, 431), (446, 438), (427, 453), (418, 460), (404, 469), (394, 478), (366, 499), (349, 512), (337, 522), (327, 531), (309, 552)]",140.3893117599734,"[2, 8, 1, 7, 6, 5, 9, 4, 3]","(0, 0.25)",DOT001C,DOT,C,Chinese,Tue Aug 28 15:46:58 2018,Mouse
2,3,3,0,43,6,6,1,892,822,70,142,0,500,200,8000,"[(512, 384), (512, 384), (512, 384), (512, 384), (512, 384), (512, 384), (512, 384), (512, 384), (512, 384), (512, 384), (512, 384), (512, 384), (512, 384), (512, 384), (512, 384), (512, 384), (512, 384), (512, 384), (512, 384), (512, 384), (512, 384), (512, 384), (512, 384), (512, 384), (512, 384), (512, 384), (512, 384), (512, 384), (512, 384), (512, 384), (512, 384), (512, 384), (512, 384), (512, 384), (512, 384), (512, 384), (512, 384), (512, 384), (512, 384), (512, 384), (512, 384), (512, 384), (512, 384), (512, 384), (512, 384), (512, 384), (512, 384), (512, 384), (512, 384), (512, 384), (512, 384), (512, 384), (512, 384), (512, 384), (512, 384), (512, 384), (512, 384), (512, 384), (512, 384), (512, 384), (512, 384), (512, 384), (512, 384), (512, 384), (512, 384), (512, 384), (512, 384), (512, 384), (512, 384), (512, 384), (512, 384), (512, 384), (512, 384), (512, 384), (512, 384), (512, 384), (512, 384), (512, 384), (512, 384), (512, 384), (512, 384), (512, 384), (511, 385), (501, 385), (459, 385), (426, 385), (386, 382), (345, 382), (264, 382), (231, 382)]",180.40779225656576,"[2, 8, 1, 7, 6, 5, 9, 4, 3]","(0, 0.25)",DOT001C,DOT,C,Chinese,Tue Aug 28 15:46:58 2018,Mouse
2,3,3,0,44,5,5,1,372,302,70,141,0,500,200,8000,"[(512, 384), (512, 384), (512, 384), (512, 384), (512, 384), (512, 384), (512, 384), (512, 384), (512, 384), (512, 384), (512, 384), (512, 384), (512, 384), (512, 384), (512, 384), (512, 384), (512, 384), (512, 384), (512, 384), (512, 384), (512, 384), (512, 384), (512, 384), (512, 384), (512, 384), (512, 384), (512, 384), (512, 384), (512, 384), (512, 384), (490, 359), (471, 340), (453, 322), (428, 305), (372, 269), (345, 251), (328, 242), (306, 228)]",217.13597520450045,"[2, 8, 1, 7, 6, 5, 9, 4, 3]","(0, 0.25)",DOT001C,DOT,C,Chinese,Tue Aug 28 15:46:58 2018,Mouse
2,3,3,0,45,1,5,0,-412,152,260,140,0,500,200,8000,"[(512, 384), (512, 384), (512, 384), (512, 384), (512, 384), (512, 384), (512, 384), (512, 384), (512, 384), (512, 384), (512, 384), (512, 384), (512, 384), (512, 384), (512, 384), (512, 383), (512, 383), (512, 383), (512, 383), (511, 383), (510, 382), (508, 379), (506, 376), (505, 375), (503, 373), (500, 369), (497, 364), (495, 360), (491, 355), (482, 342), (475, 333), (470, 326), (463, 320), (450, 304), (444, 297), (435, 288), (425, 277), (402, 258), (384, 246), (365, 233), (347, 220), (311, 197)]",222.93352301435576,"[2, 8, 1, 7, 6, 5, 9, 4, 3]","(0, 0.25)",DOT001C,DOT,C,Chinese,Tue Aug 28 15:46:58 2018,Mouse
2,3,3,0,46,4,4,1,601,421,180,141,0,500,200,8000,"[(512, 384), (512, 384), (512, 384), (512, 384), (512, 384), (512, 384), (512, 384), (512, 384), (512, 384), (512, 384), (512, 384), (512, 384), (512, 384), (512, 384), (512, 384), (512, 384), (512, 384), (512, 384), (512, 384), (512, 384), (512, 384), (512, 384), (512, 384), (512, 384), (512, 384), (512, 384), (512, 384), (512, 384), (512, 384), (512, 384), (512, 384), (512, 384), (512, 384), (512, 384), (512, 384), (512, 384), (512, 384), (512, 384), (512, 384), (512, 384), (512, 384), (512, 384), (512, 383), (512, 380), (512, 378), (516, 370), (520, 365), (527, 356), (535, 349), (547, 336), (555, 326), (564, 312), (574, 298), (597, 264), (606, 248), (612, 237), (620, 220), (630, 196), (634, 185), (639, 177), (642, 169)]",301.1593045083444,"[2, 8, 1, 7, 6, 5, 9, 4, 3]","(0, 0.25)",DOT001C,DOT,C,Chinese,Tue Aug 28 15:46:58 2018,Mouse
2,3,3,0,47,9,9,1,371,281,90,141,0,500,200,8000,"[(512, 384), (512, 384), (512, 384), (512, 384), (512, 384), (512, 384), (512, 384), (512, 384), (512, 384), (512, 384), (512, 384), (512, 384), (512, 384), (512, 384), (512, 384), (512, 384), (512, 384), (512, 384), (512, 384), (512, 384), (512, 384), (512, 384), (512, 384), (512, 384), (512, 384), (512, 384), (512, 384), (512, 384), (509, 379), (505, 350), (502, 334), (500, 320), (494, 302), (477, 253), (465, 225), (453, 198), (448, 181), (438, 132)]",253.63508183011908,"[2, 8, 1, 7, 6, 5, 9, 4, 3]","(0, 0.25)",DOT001C,DOT,C,Chinese,Tue Aug 28 15:46:58 2018,Mouse
2,3,3,0,48,4,5,0,-356,96,260,140,0,500,200,8000,"[(512, 384), (512, 384), (512, 384), (512, 384), (512, 384), (512, 384), (512, 384), (512, 384), (512, 384), (511, 384), (511, 384), (511, 384), (511, 384), (511, 384), (511, 382), (510, 380), (509, 379), (507, 378), (502, 374), (495, 369), (490, 365), (483, 362), (476, 358), (461, 347), (451, 340), (444, 333), (436, 326), (416, 303), (404, 291), (395, 279), (387, 270), (360, 244), (351, 235), (342, 227), (335, 219), (320, 204)]",223.1523897340054,"[2, 8, 1, 7, 6, 5, 9, 4, 3]","(0, 0.25)",DOT001C,DOT,C,Chinese,Tue Aug 28 15:46:58 2018,Mouse
2,3,3,0,49,9,9,1,344,194,150,141,0,500,200,8000,"[(512, 384), (512, 384), (512, 384), (512, 384), (512, 384), (512, 384), (512, 384), (512, 384), (512, 384), (512, 384), (512, 384), (512, 384), (512, 384), (512, 384), (512, 384), (512, 384), (512, 384), (512, 384), (512, 384), (512, 380), (512, 374), (512, 366), (512, 343), (512, 328), (512, 311), (512, 299), (507, 266), (506, 251), (502, 237), (500, 219), (497, 203), (494, 171), (494, 154), (494, 135), (494, 92)]",266.4725319496259,"[2, 8, 1, 7, 6, 5, 9, 4, 3]","(0, 0.25)",DOT001C,DOT,C,Chinese,Tue Aug 28 15:46:58 2018,Mouse
2,3,3,0,50,9,9,1,293,43,250,141,0,500,200,8000,"[(512, 384), (512, 384), (512, 384), (512, 384), (512, 383), (512, 383), (512, 383), (512, 383), (512, 383), (512, 383), (512, 383), (512, 383), (512, 378), (512, 377), (512, 373), (512, 369), (512, 355), (512, 346), (512, 335), (511, 324), (506, 299), (504, 285), (499, 269), (498, 251), (493, 220), (490, 203), (488, 187), (486, 171), (484, 137), (480, 118)]",263.1402399944742,"[2, 8, 1, 7, 6, 5, 9, 4, 3]","(0, 0.25)",DOT001C,DOT,C,Chinese,Tue Aug 28 15:46:58 2018,Mouse
2,3,3,0,51,5,5,1,239,19,220,140,0,500,200,8000,"[(512, 381), (510, 379), (507, 375), (505, 371), (500, 368), (496, 364), (485, 355), (480, 352), (473, 346), (465, 341), (450, 328), (442, 323), (436, 317), (430, 311), (415, 297), (408, 292), (403, 286), (396, 279), (384, 264), (378, 255), (371, 246), (362, 232), (347, 212), (337, 198)]",226.74531474977638,"[2, 8, 1, 7, 6, 5, 9, 4, 3]","(0, 0.25)",DOT001C,DOT,C,Chinese,Tue Aug 28 15:46:58 2018,Mouse
2,3,3,0,52,9,9,1,315,255,60,139,0,500,200,8000,"[(512, 384), (512, 384), (512, 384), (512, 384), (512, 384), (512, 384), (512, 384), (512, 384), (512, 384), (512, 384), (512, 384), (512, 384), (512, 384), (512, 384), (512, 384), (512, 384), (512, 384), (512, 384), (512, 384), (512, 384), (512, 384), (512, 384), (512, 384), (512, 384), (512, 384), (513, 384), (522, 315), (525, 272), (527, 238), (527, 208), (529, 138), (529, 99)]",273.41359827477186,"[2, 8, 1, 7, 6, 5, 9, 4, 3]","(0, 0.25)",DOT001C,DOT,C,Chinese,Tue Aug 28 15:46:58 2018,Mouse
2,3,3,0,53,4,7,0,-823,713,110,138,0,500,200,8000,"[(512, 384), (512, 384), (512, 384), (512, 384), (512, 384), (512, 384), (512, 384), (512, 384), (512, 384), (512, 384), (512, 384), (512, 384), (512, 384), (512, 384), (512, 384), (512, 384), (512, 384), (512, 384), (512, 384), (512, 384), (512, 384), (512, 384), (512, 384), (512, 384), (512, 384), (512, 384), (512, 384), (512, 384), (512, 384), (512, 384), (512, 384), (512, 384), (512, 384), (512, 384), (512, 384), (512, 384), (512, 384), (512, 384), (512, 384), (512, 384), (512, 384), (512, 384), (512, 384), (512, 384), (512, 384), (512, 384), (512, 384), (512, 384), (512, 384), (512, 384), (512, 384), (512, 384), (512, 384), (512, 384), (512, 384), (512, 384), (512, 384), (512, 384), (512, 384), (512, 384), (512, 384), (512, 384), (512, 384), (512, 384), (512, 384), (512, 384), (512, 384), (512, 384), (512, 384), (512, 384), (512, 384), (510, 385), (499, 393), (489, 401), (478, 409), (448, 428), (422, 441), (392, 459), (370, 473), (335, 501), (325, 513), (319, 521), (308, 533)]",143.85590079949313,"[2, 8, 1, 7, 6, 5, 9, 4, 3]","(0, 0.25)",DOT001C,DOT,C,Chinese,Tue Aug 28 15:46:58 2018,Mouse
2,3,3,0,54,5,6,0,-412,362,50,139,0,500,200,8000,"[(512, 384), (512, 384), (512, 384), (512, 384), (512, 384), (512, 384), (512, 384), (512, 384), (512, 384), (512, 384), (512, 384), (512, 384), (512, 384), (512, 384), (512, 384), (512, 384), (512, 384), (512, 384), (512, 384), (512, 384), (512, 384), (512, 384), (512, 384), (512, 384), (512, 384), (512, 384), (512, 384), (512, 384), (512, 384), (512, 384), (512, 384), (512, 384), (512, 384), (512, 384), (512, 384), (512, 384), (510, 384), (487, 386), (460, 394), (423, 407), (362, 424), (237, 469)]",162.82409638425327,"[2, 8, 1, 7, 6, 5, 9, 4, 3]","(0, 0.25)",DOT001C,DOT,C,Chinese,Tue Aug 28 15:46:58 2018,Mouse
2,3,3,0,55,7,7,1,551,61,490,140,0,500,200,8000,"[(512, 384), (512, 384), (512, 384), (512, 384), (512, 384), (512, 384), (514, 384), (514, 384), (514, 384), (514, 384), (514, 384), (514, 384), (514, 384), (514, 384), (514, 384), (514, 384), (513, 384), (513, 384), (513, 384), (513, 384), (513, 384), (513, 384), (513, 384), (513, 384), (513, 384), (513, 384), (513, 384), (513, 384), (513, 384), (513, 384), (513, 384), (513, 384), (513, 384), (513, 384), (513, 384), (513, 384), (513, 384), (513, 384), (513, 384), (513, 384), (513, 384), (513, 384), (513, 384), (513, 384), (513, 384), (512, 384), (511, 387), (498, 403), (487, 412), (473, 424), (458, 436), (420, 468), (396, 490), (379, 505), (361, 519), (325, 551)]",138.23361212488788,"[2, 8, 1, 7, 6, 5, 9, 4, 3]","(0, 0.25)",DOT001C,DOT,C,Chinese,Tue Aug 28 15:46:58 2018,Mouse
2,3,3,0,56,6,6,1,523,463,60,140,0,500,200,8000,"[(512, 384), (512, 384), (512, 384), (512, 384), (512, 384), (512, 384), (512, 384), (512, 384), (512, 384), (512, 384), (512, 384), (512, 384), (512, 384), (512, 384), (512, 384), (512, 384), (512, 384), (512, 384), (512, 384), (512, 384), (512, 384), (512, 384), (512, 384), (512, 384), (512, 384), (512, 384), (512, 384), (512, 384), (512, 384), (512, 384), (512, 384), (512, 384), (512, 384), (512, 384), (512, 384), (512, 384), (512, 384), (512, 384), (512, 384), (512, 384), (512, 384), (512, 384), (512, 384), (512, 384), (512, 384), (512, 384), (506, 383), (487, 383), (412, 383), (370, 383), (334, 383), (301, 383), (209, 381)]",180.56726640985792,"[2, 8, 1, 7, 6, 5, 9, 4, 3]","(0, 0.25)",DOT001C,DOT,C,Chinese,Tue Aug 28 15:46:58 2018,Mouse
2,3,3,0,57,2,2,1,552,302,250,139,0,500,200,8000,"[(512, 384), (512, 384), (512, 384), (512, 384), (512, 384), (512, 384), (512, 384), (512, 384), (512, 384), (512, 384), (512, 384), (512, 384), (512, 384), (512, 384), (512, 384), (512, 384), (512, 384), (512, 384), (512, 384), (512, 384), (512, 384), (512, 384), (512, 384), (512, 384), (512, 384), (512, 384), (512, 384), (512, 384), (512, 384), (512, 384), (513, 384), (513, 384), (513, 384), (513, 384), (513, 384), (513, 384), (513, 384), (513, 384), (513, 384), (513, 384), (513, 384), (513, 384), (513, 384), (513, 384), (513, 385), (513, 385), (513, 385), (513, 385), (528, 392), (547, 403), (576, 415), (605, 429), (673, 456), (707, 468), (741, 481), (770, 493)]",22.903115601558188,"[2, 8, 1, 7, 6, 5, 9, 4, 3]","(0, 0.25)",DOT001C,DOT,C,Chinese,Tue Aug 28 15:46:58 2018,Mouse
2,3,3,0,58,4,5,0,-372,262,110,138,0,500,200,8000,"[(512, 384), (512, 384), (512, 384), (512, 384), (512, 384), (512, 384), (512, 384), (512, 384), (512, 384), (512, 384), (512, 384), (512, 384), (512, 384), (512, 384), (512, 384), (512, 384), (512, 384), (512, 384), (512, 384), (512, 384), (512, 384), (512, 384), (512, 384), (512, 384), (512, 384), (512, 384), (512, 377), (509, 371), (503, 364), (488, 348), (480, 339), (466, 326), (447, 314), (412, 284), (386, 264), (362, 244), (336, 221), (280, 181)]",221.18592516570965,"[2, 8, 1, 7, 6, 5, 9, 4, 3]","(0, 0.25)",DOT001C,DOT,C,Chinese,Tue Aug 28 15:46:58 2018,Mouse
2,3,3,0,59,6,6,1,341,281,60,139,0,500,200,8000,"[(512, 384), (512, 384), (512, 384), (512, 384), (512, 384), (512, 384), (512, 384), (512, 384), (512, 384), (512, 384), (512, 384), (512, 384), (512, 384), (512, 384), (512, 384), (512, 384), (512, 384), (512, 384), (512, 384), (512, 384), (512, 384), (512, 384), (512, 384), (512, 384), (512, 384), (512, 384), (512, 384), (512, 384), (509, 384), (471, 386), (437, 388), (410, 392), (376, 392), (296, 392), (249, 392)]",178.25769983385737,"[2, 8, 1, 7, 6, 5, 9, 4, 3]","(0, 0.25)",DOT001C,DOT,C,Chinese,Tue Aug 28 15:46:58 2018,Mouse
2,3,3,0,60,9,9,1,344,174,170,139,0,500,200,8000,"[(512, 384), (512, 384), (512, 384), (512, 384), (512, 384), (512, 384), (512, 384), (512, 384), (512, 384), (512, 384), (512, 384), (512, 384), (512, 384), (512, 384), (512, 384), (512, 384), (512, 384), (512, 383), (509, 378), (508, 375), (508, 373), (505, 368), (503, 362), (500, 356), (497, 349), (494, 339), (488, 314), (487, 303), (484, 287), (482, 267), (475, 221), (472, 198), (468, 176), (467, 159), (459, 103)]",259.3188025568431,"[2, 8, 1, 7, 6, 5, 9, 4, 3]","(0, 0.25)",DOT001C,DOT,C,Chinese,Tue Aug 28 15:46:58 2018,Mouse
2,3,3,0,61,5,5,1,276,186,90,138,0,500,200,8000,"[(512, 384), (512, 384), (512, 384), (512, 384), (512, 384), (512, 384), (512, 384), (512, 384), (512, 384), (512, 384), (512, 384), (512, 384), (512, 384), (512, 384), (512, 384), (512, 384), (512, 384), (512, 384), (505, 379), (495, 367), (483, 354), (473, 344), (447, 320), (426, 302), (405, 285), (387, 268), (344, 237), (322, 221)]",220.62611950459188,"[2, 8, 1, 7, 6, 5, 9, 4, 3]","(0, 0.25)",DOT001C,DOT,C,Chinese,Tue Aug 28 15:46:58 2018,Mouse
2,3,3,0,62,9,9,1,432,332,100,137,0,500,200,8000,"[(512, 384), (512, 384), (512, 384), (512, 384), (512, 384), (512, 384), (512, 384), (512, 384), (512, 384), (512, 384), (512, 384), (512, 384), (512, 384), (512, 384), (512, 384), (512, 384), (512, 384), (512, 384), (512, 384), (512, 384), (512, 384), (512, 384), (512, 384), (512, 384), (512, 384), (512, 384), (512, 384), (512, 384), (512, 384), (512, 384), (512, 384), (512, 384), (512, 384), (507, 381), (503, 377), (501, 348), (501, 335), (501, 316), (505, 281), (505, 225), (508, 194), (510, 165), (510, 148), (511, 103)]",269.7961012895332,"[2, 8, 1, 7, 6, 5, 9, 4, 3]","(0, 0.25)",DOT001C,DOT,C,Chinese,Tue Aug 28 15:46:58 2018,Mouse
2,3,3,0,63,1,5,0,-363,283,80,136,0,500,200,8000,"[(512, 384), (512, 384), (512, 384), (512, 384), (512, 384), (512, 384), (512, 384), (512, 384), (512, 384), (512, 384), (512, 384), (512, 384), (512, 384), (512, 384), (512, 384), (512, 384), (512, 384), (512, 384), (512, 384), (512, 384), (512, 384), (512, 384), (512, 384), (512, 384), (512, 384), (512, 384), (512, 384), (512, 384), (488, 359), (470, 342), (453, 324), (437, 308), (392, 267), (377, 251), (360, 233), (344, 217), (310, 182)]",225.0,"[2, 8, 1, 7, 6, 5, 9, 4, 3]","(0, 0.25)",DOT001C,DOT,C,Chinese,Tue Aug 28 15:46:58 2018,Mouse
2,3,3,0,64,7,7,1,602,522,80,137,0,500,200,8000,"[(512, 384), (512, 384), (512, 384), (512, 384), (512, 384), (512, 384), (512, 384), (512, 384), (512, 384), (512, 384), (512, 384), (512, 384), (512, 384), (512, 384), (512, 384), (512, 384), (512, 384), (512, 384), (512, 384), (512, 384), (512, 384), (512, 384), (512, 384), (512, 384), (512, 384), (512, 384), (512, 384), (512, 384), (512, 384), (512, 384), (512, 384), (512, 384), (512, 384), (512, 384), (512, 384), (512, 384), (512, 384), (512, 384), (512, 384), (512, 384), (512, 384), (512, 384), (512, 384), (512, 384), (512, 384), (512, 384), (512, 384), (512, 384), (512, 384), (512, 384), (512, 384), (512, 384), (507, 396), (499, 406), (486, 420), (473, 437), (423, 482), (389, 511), (360, 534), (332, 555), (288, 595)]",136.7117781790526,"[2, 8, 1, 7, 6, 5, 9, 4, 3]","(0, 0.25)",DOT001C,DOT,C,Chinese,Tue Aug 28 15:46:58 2018,Mouse
2,3,3,0,65,8,7,0,-362,302,60,137,0,500,200,8000,"[(512, 384), (512, 384), (512, 384), (512, 384), (512, 384), (512, 384), (512, 384), (512, 384), (512, 384), (512, 384), (512, 384), (512, 384), (512, 384), (512, 384), (512, 384), (512, 384), (512, 384), (512, 384), (512, 384), (512, 384), (512, 384), (512, 384), (512, 384), (512, 384), (512, 384), (512, 384), (512, 384), (512, 384), (512, 384), (512, 384), (511, 385), (502, 397), (467, 424), (441, 449), (417, 471), (383, 495), (320, 549)]",139.32506043473845,"[2, 8, 1, 7, 6, 5, 9, 4, 3]","(0, 0.25)",DOT001C,DOT,C,Chinese,Tue Aug 28 15:46:58 2018,Mouse
2,3,3,0,66,2,2,1,564,434,130,138,0,500,200,8000,"[(512, 384), (512, 384), (512, 384), (512, 384), (512, 384), (512, 384), (512, 384), (512, 384), (512, 384), (512, 384), (512, 384), (512, 384), (512, 384), (512, 384), (512, 384), (512, 384), (512, 384), (512, 384), (512, 384), (512, 384), (512, 384), (512, 384), (512, 384), (512, 384), (512, 384), (512, 384), (512, 384), (512, 384), (512, 384), (512, 384), (512, 384), (512, 384), (512, 384), (512, 384), (512, 384), (512, 384), (512, 384), (512, 384), (512, 384), (512, 384), (512, 384), (512, 384), (512, 384), (515, 384), (521, 386), (524, 387), (532, 391), (544, 394), (583, 408), (605, 419), (621, 422), (635, 427), (672, 438), (695, 446), (709, 449), (727, 454), (770, 469)]",18.23484796180134,"[2, 8, 1, 7, 6, 5, 9, 4, 3]","(0, 0.25)",DOT001C,DOT,C,Chinese,Tue Aug 28 15:46:58 2018,Mouse
2,3,3,0,67,6,6,1,542,422,120,138,0,500,200,8000,"[(512, 384), (512, 384), (512, 384), (512, 384), (512, 384), (512, 384), (512, 384), (512, 384), (512, 384), (512, 384), (512, 384), (512, 384), (512, 384), (512, 384), (512, 384), (512, 384), (512, 384), (512, 384), (512, 384), (512, 384), (512, 384), (512, 384), (512, 384), (512, 384), (512, 384), (512, 384), (512, 384), (512, 384), (512, 384), (512, 384), (512, 384), (512, 384), (512, 384), (512, 384), (512, 384), (512, 384), (512, 384), (512, 384), (512, 384), (512, 384), (512, 384), (512, 384), (511, 384), (511, 384), (511, 384), (510, 384), (510, 384), (501, 384), (482, 384), (465, 384), (440, 384), (365, 384), (323, 384), (271, 384), (232, 384)]",180.0,"[2, 8, 1, 7, 6, 5, 9, 4, 3]","(0, 0.25)",DOT001C,DOT,C,Chinese,Tue Aug 28 15:46:58 2018,Mouse
2,3,3,0,68,1,5,0,-602,352,250,137,0,500,200,8000,"[(512, 384), (512, 384), (512, 384), (512, 384), (512, 384), (512, 384), (512, 384), (512, 384), (512, 384), (512, 384), (512, 384), (512, 384), (512, 384), (512, 384), (512, 384), (512, 384), (512, 384), (512, 384), (512, 384), (512, 384), (512, 384), (512, 384), (512, 384), (512, 384), (512, 384), (512, 384), (512, 384), (512, 384), (512, 384), (512, 384), (512, 384), (512, 384), (512, 384), (512, 384), (512, 384), (510, 384), (509, 384), (508, 384), (506, 383), (503, 376), (499, 366), (490, 352), (489, 350), (487, 345), (485, 342), (479, 336), (476, 332), (472, 327), (468, 320), (455, 305), (448, 296), (440, 286), (433, 278), (409, 253), (403, 246), (397, 240), (389, 231), (373, 216), (367, 209), (357, 200), (348, 193)]",229.3493337347181,"[2, 8, 1, 7, 6, 5, 9, 4, 3]","(0, 0.25)",DOT001C,DOT,C,Chinese,Tue Aug 28 15:46:58 2018,Mouse
2,3,3,0,69,6,6,1,575,525,50,138,0,500,200,8000,"[(512, 384), (512, 384), (512, 384), (512, 384), (512, 384), (512, 384), (512, 384), (512, 384), (512, 384), (512, 384), (512, 384), (512, 384), (512, 384), (512, 384), (512, 384), (512, 384), (512, 384), (512, 384), (512, 384), (512, 384), (512, 384), (512, 384), (512, 384), (512, 384), (512, 384), (512, 384), (512, 384), (512, 384), (512, 384), (512, 384), (512, 384), (512, 384), (512, 384), (512, 384), (512, 384), (512, 384), (512, 384), (512, 384), (512, 384), (512, 384), (512, 384), (512, 384), (512, 384), (512, 384), (512, 384), (512, 384), (512, 384), (512, 384), (512, 384), (512, 384), (512, 384), (512, 384), (495, 389), (465, 395), (424, 401), (379, 407), (281, 412), (228, 412)]",174.36931724236476,"[2, 8, 1, 7, 6, 5, 9, 4, 3]","(0, 0.25)",DOT001C,DOT,C,Chinese,Tue Aug 28 15:46:58 2018,Mouse
2,3,3,0,70,9,9,1,392,32,360,138,0,500,200,8000,"[(512, 384), (512, 384), (512, 384), (511, 384), (511, 384), (511, 384), (511, 384), (511, 384), (511, 384), (511, 384), (511, 384), (511, 384), (511, 384), (511, 384), (511, 384), (511, 384), (511, 384), (511, 384), (511, 384), (511, 384), (511, 384), (511, 384), (511, 379), (510, 369), (508, 362), (507, 353), (506, 344), (503, 324), (500, 312), (497, 299), (495, 286), (487, 257), (484, 239), (483, 224), (479, 212), (476, 187), (472, 173), (471, 162), (470, 153), (464, 128)]",259.38034472384487,"[2, 8, 1, 7, 6, 5, 9, 4, 3]","(0, 0.25)",DOT001C,DOT,C,Chinese,Tue Aug 28 15:46:58 2018,Mouse
2,3,3,0,71,3,2,0,-572,422,150,137,0,500,200,8000,"[(512, 384), (512, 384), (512, 384), (512, 384), (512, 384), (512, 384), (512, 384), (512, 384), (512, 384), (512, 384), (512, 384), (512, 384), (512, 384), (512, 384), (512, 384), (512, 384), (512, 384), (512, 384), (512, 384), (512, 384), (512, 384), (512, 384), (512, 384), (512, 384), (512, 384), (512, 384), (512, 384), (512, 384), (512, 384), (512, 384), (512, 384), (512, 384), (512, 384), (512, 384), (512, 384), (512, 384), (512, 384), (512, 384), (512, 384), (512, 384), (512, 384), (512, 384), (513, 384), (517, 384), (525, 384), (536, 386), (550, 391), (565, 395), (591, 401), (608, 404), (631, 411), (651, 417), (675, 424), (688, 427), (700, 431), (714, 434), (742, 442), (757, 447)]",14.420773127510985,"[2, 8, 1, 7, 6, 5, 9, 4, 3]","(0, 0.25)",DOT001C,DOT,C,Chinese,Tue Aug 28 15:46:58 2018,Mouse
2,3,3,0,72,8,7,0,-1205,995,210,138,0,500,200,8000,"[(512, 384), (512, 384), (512, 384), (512, 384), (512, 384), (512, 384), (512, 384), (512, 384), (512, 384), (512, 384), (512, 384), (512, 384), (512, 384), (512, 384), (512, 384), (512, 384), (512, 384), (512, 384), (512, 384), (512, 384), (512, 384), (512, 384), (512, 384), (512, 384), (512, 384), (512, 384), (512, 384), (512, 384), (512, 384), (512, 384), (512, 384), (512, 384), (512, 384), (512, 384), (512, 384), (512, 384), (512, 384), (512, 384), (512, 384), (512, 384), (512, 384), (512, 384), (512, 384), (512, 384), (512, 384), (512, 384), (512, 384), (512, 384), (512, 384), (512, 384), (512, 384), (512, 384), (512, 384), (512, 384), (512, 384), (512, 384), (512, 384), (512, 384), (512, 384), (512, 384), (512, 384), (512, 384), (512, 384), (512, 384), (512, 384), (512, 384), (512, 384), (512, 384), (512, 384), (512, 384), (512, 384), (512, 384), (512, 384), (512, 384), (512, 384), (512, 384), (512, 384), (512, 384), (512, 384), (512, 384), (512, 384), (512, 384), (512, 384), (512, 384), (512, 384), (512, 384), (512, 384), (512, 384), (512, 384), (512, 384), (512, 384), (512, 384), (512, 384), (512, 384), (512, 384), (512, 384), (512, 384), (512, 384), (512, 384), (505, 388), (497, 392), (489, 395), (471, 404), (460, 408), (451, 412), (440, 418), (420, 433), (411, 440), (403, 447), (396, 455), (381, 472), (374, 478), (369, 484), (364, 492), (359, 500), (349, 512), (345, 518), (341, 524), (331, 538), (327, 544), (321, 551)]",138.8353190971333,"[2, 8, 1, 7, 6, 5, 9, 4, 3]","(0, 0.25)",DOT001C,DOT,C,Chinese,Tue Aug 28 15:46:58 2018,Mouse
2,3,3,0,73,7,7,1,644,224,420,139,0,500,200,8000,"[(512, 384), (512, 384), (512, 384), (512, 384), (512, 384), (512, 384), (512, 384), (512, 384), (512, 384), (512, 384), (512, 384), (512, 384), (512, 384), (512, 384), (512, 384), (512, 384), (512, 384), (512, 384), (512, 384), (512, 384), (512, 384), (512, 384), (510, 384), (504, 382), (493, 380), (471, 379), (454, 376), (439, 375), (428, 373), (409, 373), (403, 373), (400, 373), (400, 372), (399, 372), (399, 372), (399, 372), (399, 372), (399, 372), (399, 372), (399, 372), (399, 372), (399, 372), (399, 372), (399, 372), (399, 372), (399, 372), (399, 372), (399, 372), (399, 372), (399, 372), (399, 372), (399, 372), (399, 372), (399, 372), (399, 372), (399, 372), (395, 376), (388, 391), (384, 400), (378, 410), (367, 427), (333, 473), (317, 495), (301, 515), (286, 536)]",146.0765497341683,"[2, 8, 1, 7, 6, 5, 9, 4, 3]","(0, 0.25)",DOT001C,DOT,C,Chinese,Tue Aug 28 15:46:58 2018,Mouse
2,3,3,0,74,2,2,1,491,391,100,139,0,500,200,8000,"[(512, 384), (512, 384), (512, 384), (512, 384), (512, 384), (512, 384), (512, 384), (512, 384), (512, 384), (512, 384), (512, 384), (512, 384), (512, 384), (512, 384), (512, 384), (512, 384), (512, 384), (512, 384), (512, 384), (512, 384), (512, 384), (512, 384), (512, 384), (512, 384), (512, 384), (512, 384), (512, 384), (512, 384), (512, 384), (512, 384), (512, 384), (512, 384), (512, 384), (512, 384), (512, 384), (512, 384), (512, 384), (512, 384), (512, 384), (512, 387), (519, 389), (544, 397), (569, 405), (591, 410), (615, 414), (694, 431), (721, 434), (736, 435), (753, 439), (801, 447)]",12.297692873660024,"[2, 8, 1, 7, 6, 5, 9, 4, 3]","(0, 0.25)",DOT001C,DOT,C,Chinese,Tue Aug 28 15:46:58 2018,Mouse
2,3,3,0,75,9,9,1,363,303,60,138,0,500,200,8000,"[(512, 384), (512, 384), (512, 384), (512, 384), (512, 384), (512, 384), (512, 384), (512, 384), (512, 384), (512, 384), (512, 384), (512, 384), (512, 384), (512, 384), (512, 384), (512, 384), (512, 384), (512, 384), (512, 384), (512, 384), (512, 384), (512, 384), (512, 384), (512, 384), (512, 384), (512, 384), (512, 384), (512, 384), (512, 384), (512, 384), (512, 376), (510, 354), (503, 311), (496, 281), (489, 238), (478, 202), (449, 115)]",256.8188539283402,"[2, 8, 1, 7, 6, 5, 9, 4, 3]","(0, 0.25)",DOT001C,DOT,C,Chinese,Tue Aug 28 15:46:58 2018,Mouse
2,3,3,0,76,9,7,0,-842,552,290,137,0,500,200,8000,"[(512, 384), (512, 384), (512, 384), (512, 384), (512, 384), (512, 384), (512, 384), (512, 384), (512, 384), (512, 384), (512, 384), (512, 384), (512, 384), (512, 384), (512, 384), (512, 384), (512, 384), (512, 384), (512, 384), (512, 384), (512, 384), (512, 384), (512, 384), (512, 384), (512, 384), (512, 384), (512, 384), (512, 384), (512, 384), (512, 384), (512, 384), (512, 384), (512, 384), (512, 384), (512, 384), (512, 384), (512, 384), (512, 384), (512, 384), (512, 384), (512, 384), (512, 384), (512, 384), (512, 384), (512, 384), (512, 384), (512, 384), (512, 384), (512, 384), (512, 384), (512, 384), (512, 384), (512, 384), (512, 384), (512, 384), (510, 385), (488, 388), (478, 389), (466, 389), (457, 389), (450, 389), (449, 389), (449, 389), (449, 389), (449, 389), (449, 389), (449, 389), (449, 389), (449, 389), (449, 389), (449, 389), (449, 389), (449, 389), (448, 390), (448, 392), (446, 397), (437, 418), (429, 437), (417, 456), (408, 470), (388, 505), (375, 523), (364, 539), (349, 557), (311, 599)]",133.0725041133281,"[2, 8, 1, 7, 6, 5, 9, 4, 3]","(0, 0.25)",DOT001C,DOT,C,Chinese,Tue Aug 28 15:46:58 2018,Mouse
2,3,3,0,77,8,8,1,451,371,80,138,0,500,200,8000,"[(512, 384), (512, 384), (512, 384), (512, 384), (512, 384), (512, 384), (512, 384), (512, 384), (512, 384), (512, 384), (512, 384), (512, 384), (512, 384), (512, 384), (512, 384), (512, 384), (512, 384), (512, 384), (512, 384), (512, 384), (512, 384), (512, 384), (512, 384), (512, 384), (512, 384), (512, 384), (512, 384), (512, 384), (512, 384), (512, 384), (512, 384), (512, 384), (512, 384), (512, 384), (512, 384), (512, 384), (512, 384), (512, 386), (514, 401), (526, 423), (554, 472), (571, 497), (584, 516), (600, 539), (629, 583), (652, 612)]",58.44861505168652,"[2, 8, 1, 7, 6, 5, 9, 4, 3]","(0, 0.25)",DOT001C,DOT,C,Chinese,Tue Aug 28 15:46:58 2018,Mouse
2,3,3,0,78,1,4,0,-821,781,40,138,0,500,200,8000,"[(512, 384), (512, 384), (512, 384), (512, 384), (512, 384), (512, 384), (512, 384), (512, 384), (512, 384), (512, 384), (512, 384), (512, 384), (512, 384), (512, 384), (512, 384), (512, 384), (512, 384), (512, 384), (512, 384), (512, 384), (512, 384), (512, 384), (512, 384), (512, 384), (512, 384), (512, 384), (512, 384), (512, 384), (512, 384), (512, 384), (512, 384), (512, 384), (512, 384), (512, 384), (512, 384), (512, 384), (512, 384), (512, 384), (512, 384), (512, 384), (512, 384), (512, 384), (512, 384), (512, 384), (512, 384), (512, 384), (512, 384), (512, 384), (512, 384), (512, 384), (512, 384), (512, 384), (512, 384), (512, 384), (512, 384), (512, 384), (512, 384), (512, 384), (512, 384), (512, 384), (512, 384), (512, 384), (512, 384), (512, 384), (512, 384), (512, 384), (512, 384), (512, 384), (512, 384), (512, 384), (512, 384), (512, 384), (512, 384), (512, 384), (512, 384), (512, 384), (512, 384), (512, 384), (518, 369), (567, 290), (598, 238), (631, 188), (663, 148)]",302.61235324684975,"[2, 8, 1, 7, 6, 5, 9, 4, 3]","(0, 0.25)",DOT001C,DOT,C,Chinese,Tue Aug 28 15:46:58 2018,Mouse
2,3,3,0,79,9,9,1,316,276,40,139,0,500,200,8000,"[(512, 384), (512, 384), (512, 384), (512, 384), (512, 384), (512, 384), (512, 384), (512, 384), (512, 384), (512, 384), (512, 384), (512, 384), (512, 384), (512, 384), (512, 384), (512, 384), (512, 384), (512, 384), (512, 384), (512, 384), (512, 384), (512, 384), (512, 384), (512, 384), (512, 384), (512, 384), (512, 384), (512, 350), (514, 297), (524, 247), (528, 191), (542, 72)]",275.4923245571274,"[2, 8, 1, 7, 6, 5, 9, 4, 3]","(0, 0.25)",DOT001C,DOT,C,Chinese,Tue Aug 28 15:46:58 2018,Mouse
2,3,3,0,80,8,8,1,672,592,80,139,0,500,200,8000,"[(512, 384), (512, 384), (512, 384), (512, 384), (512, 384), (512, 384), (512, 384), (512, 384), (512, 384), (512, 384), (512, 384), (512, 384), (512, 384), (512, 384), (512, 384), (512, 384), (512, 384), (512, 384), (512, 384), (512, 384), (512, 384), (512, 384), (512, 384), (512, 384), (512, 384), (512, 384), (512, 384), (512, 384), (512, 384), (512, 384), (512, 384), (512, 384), (512, 384), (512, 384), (512, 384), (512, 384), (512, 384), (512, 384), (512, 384), (512, 384), (512, 384), (512, 384), (512, 384), (512, 384), (512, 384), (512, 384), (512, 384), (512, 384), (512, 384), (512, 384), (512, 384), (512, 384), (512, 384), (512, 384), (512, 384), (512, 384), (512, 384), (512, 384), (512, 384), (512, 386), (518, 400), (522, 408), (527, 421), (535, 440), (558, 492), (578, 538), (598, 589), (622, 637)]",66.5014343240479,"[2, 8, 1, 7, 6, 5, 9, 4, 3]","(0, 0.25)",DOT001C,DOT,C,Chinese,Tue Aug 28 15:46:58 2018,Mouse
2,3,3,0,81,8,8,1,312,252,60,138,0,500,200,8000,"[(512, 384), (512, 384), (512, 384), (512, 384), (512, 384), (512, 384), (512, 384), (512, 384), (512, 384), (512, 384), (512, 384), (512, 384), (512, 384), (512, 384), (512, 384), (512, 384), (512, 384), (512, 384), (512, 384), (512, 384), (512, 384), (512, 384), (512, 384), (512, 384), (512, 384), (513, 384), (516, 390), (525, 405), (540, 432), (584, 527), (609, 578), (636, 638)]",63.97887975571344,"[2, 8, 1, 7, 6, 5, 9, 4, 3]","(0, 0.25)",DOT001C,DOT,C,Chinese,Tue Aug 28 15:46:58 2018,Mouse
2,3,3,0,82,6,6,1,433,383,50,137,0,500,200,8000,"[(512, 384), (512, 384), (512, 384), (512, 384), (512, 384), (512, 384), (512, 384), (512, 384), (512, 384), (512, 384), (512, 384), (512, 384), (512, 384), (512, 384), (512, 384), (512, 384), (512, 384), (512, 384), (512, 384), (512, 384), (512, 384), (512, 384), (512, 384), (512, 384), (512, 384), (512, 384), (512, 384), (512, 384), (512, 384), (512, 384), (512, 384), (512, 384), (512, 384), (512, 384), (512, 384), (512, 384), (512, 384), (512, 384), (510, 384), (494, 384), (458, 384), (402, 384), (289, 384), (214, 384)]",180.0,"[2, 8, 1, 7, 6, 5, 9, 4, 3]","(0, 0.25)",DOT001C,DOT,C,Chinese,Tue Aug 28 15:46:58 2018,Mouse
2,3,3,0,83,6,6,1,305,265,40,136,0,500,200,8000,"[(512, 384), (512, 384), (512, 384), (512, 384), (512, 384), (512, 384), (512, 384), (512, 384), (512, 384), (512, 384), (512, 384), (512, 384), (512, 384), (512, 384), (512, 384), (512, 384), (512, 384), (512, 384), (512, 384), (512, 384), (512, 384), (512, 384), (512, 384), (512, 384), (512, 384), (512, 384), (476, 384), (418, 384), (348, 382), (265, 377), (101, 369)]",182.0901591537107,"[2, 8, 1, 7, 6, 5, 9, 4, 3]","(0, 0.25)",DOT001C,DOT,C,Chinese,Tue Aug 28 15:46:58 2018,Mouse
2,3,3,0,84,1,6,0,-262,232,30,135,0,500,200,8000,"[(512, 384), (512, 384), (512, 384), (512, 384), (512, 384), (512, 384), (512, 384), (512, 384), (512, 384), (512, 384), (512, 384), (512, 384), (512, 384), (512, 384), (512, 384), (512, 384), (512, 384), (512, 384), (512, 384), (512, 384), (512, 384), (512, 384), (512, 384), (505, 384), (380, 384), (311, 384), (236, 384)]",180.0,"[2, 8, 1, 7, 6, 5, 9, 4, 3]","(0, 0.25)",DOT001C,DOT,C,Chinese,Tue Aug 28 15:46:58 2018,Mouse
2,3,3,0,85,1,7,0,-581,541,40,136,0,500,200,8000,"[(512, 384), (512, 384), (512, 384), (512, 384), (512, 384), (512, 384), (512, 384), (512, 384), (512, 384), (512, 384), (512, 384), (512, 384), (512, 384), (512, 384), (512, 384), (512, 384), (512, 384), (512, 384), (512, 384), (512, 384), (512, 384), (512, 384), (512, 384), (512, 384), (512, 384), (512, 384), (512, 384), (512, 384), (512, 384), (512, 384), (512, 384), (512, 384), (512, 384), (512, 384), (512, 384), (512, 384), (512, 384), (512, 384), (512, 384), (512, 384), (512, 384), (512, 384), (512, 384), (512, 384), (512, 384), (512, 384), (512, 384), (512, 384), (512, 384), (512, 384), (512, 384), (512, 384), (512, 384), (512, 384), (496, 402), (476, 425), (450, 457), (420, 491), (341, 570)]",132.5940294833547,"[2, 8, 1, 7, 6, 5, 9, 4, 3]","(0, 0.25)",DOT001C,DOT,C,Chinese,Tue Aug 28 15:46:58 2018,Mouse
2,3,3,0,86,7,7,1,432,362,70,137,0,500,200,8000,"[(512, 384), (512, 384), (512, 384), (512, 384), (512, 384), (512, 384), (512, 384), (512, 384), (512, 384), (512, 384), (512, 384), (512, 384), (512, 384), (512, 384), (512, 384), (512, 384), (512, 384), (512, 384), (512, 384), (512, 384), (512, 384), (512, 384), (512, 384), (512, 384), (512, 384), (512, 384), (512, 384), (512, 384), (512, 384), (512, 384), (512, 384), (512, 384), (512, 384), (512, 384), (512, 384), (512, 384), (511, 384), (511, 384), (504, 393), (490, 406), (446, 445), (401, 478), (356, 512), (298, 554)]",141.53663364879708,"[2, 8, 1, 7, 6, 5, 9, 4, 3]","(0, 0.25)",DOT001C,DOT,C,Chinese,Tue Aug 28 15:46:58 2018,Mouse
2,3,3,0,87,9,7,0,-476,396,80,137,0,500,200,8000,"[(512, 384), (512, 384), (512, 384), (512, 384), (512, 384), (512, 384), (512, 384), (512, 384), (512, 384), (512, 384), (512, 384), (512, 384), (512, 384), (512, 384), (512, 384), (512, 384), (512, 384), (512, 384), (512, 384), (512, 384), (512, 384), (512, 384), (512, 384), (512, 384), (512, 384), (512, 384), (512, 384), (512, 384), (512, 384), (512, 384), (512, 384), (512, 384), (512, 384), (512, 384), (512, 384), (512, 384), (512, 384), (512, 384), (512, 384), (511, 384), (511, 384), (505, 389), (493, 405), (476, 423), (429, 476), (401, 505), (369, 535), (332, 566)]",134.68345195272698,"[2, 8, 1, 7, 6, 5, 9, 4, 3]","(0, 0.25)",DOT001C,DOT,C,Chinese,Tue Aug 28 15:46:58 2018,Mouse
2,3,3,0,88,1,5,0,-496,456,40,138,0,500,200,8000,"[(512, 384), (512, 384), (512, 384), (512, 384), (512, 384), (512, 384), (512, 384), (512, 384), (512, 384), (512, 384), (512, 384), (512, 384), (512, 384), (512, 384), (512, 384), (512, 384), (512, 384), (512, 384), (512, 384), (512, 384), (512, 384), (512, 384), (512, 384), (512, 384), (512, 384), (512, 384), (512, 384), (512, 384), (512, 384), (512, 384), (512, 384), (512, 384), (512, 384), (512, 384), (512, 384), (512, 384), (512, 384), (512, 384), (512, 384), (512, 384), (512, 384), (512, 384), (512, 384), (512, 384), (512, 384), (504, 368), (478, 327), (445, 292), (381, 210), (341, 172)]",231.11022138878462,"[2, 8, 1, 7, 6, 5, 9, 4, 3]","(0, 0.25)",DOT001C,DOT,C,Chinese,Tue Aug 28 15:46:58 2018,Mouse
2,3,3,0,89,5,5,1,372,42,330,139,0,500,200,8000,"[(512, 384), (512, 384), (512, 384), (512, 384), (512, 385), (512, 385), (511, 386), (510, 386), (510, 386), (510, 386), (510, 386), (510, 386), (510, 386), (510, 386), (510, 386), (510, 386), (510, 386), (510, 386), (510, 386), (510, 386), (510, 386), (510, 386), (510, 386), (510, 386), (510, 386), (510, 386), (510, 386), (510, 386), (510, 386), (510, 386), (510, 386), (507, 384), (496, 370), (482, 350), (461, 322), (397, 240), (367, 196), (329, 148)]",232.20915106010762,"[2, 8, 1, 7, 6, 5, 9, 4, 3]","(0, 0.25)",DOT001C,DOT,C,Chinese,Tue Aug 28 15:46:58 2018,Mouse
2,3,3,0,90,3,3,1,459,369,90,139,0,500,200,8000,"[(512, 384), (512, 384), (512, 384), (512, 384), (512, 384), (512, 384), (512, 384), (512, 384), (512, 384), (512, 384), (512, 384), (512, 384), (512, 384), (512, 384), (512, 384), (512, 384), (512, 384), (512, 384), (512, 384), (512, 384), (512, 384), (512, 384), (512, 384), (512, 384), (512, 384), (512, 384), (512, 384), (512, 384), (512, 384), (512, 384), (512, 384), (512, 384), (512, 384), (512, 384), (512, 384), (512, 384), (514, 384), (528, 373), (545, 367), (567, 361), (597, 352), (654, 334), (676, 326), (718, 315), (741, 308), (788, 294)]",341.9395280638008,"[2, 8, 1, 7, 6, 5, 9, 4, 3]","(0, 0.25)",DOT001C,DOT,C,Chinese,Tue Aug 28 15:46:58 2018,Mouse
2,3,3,0,91,2,3,0,-371,161,210,138,0,500,200,8000,"[(512, 384), (512, 384), (512, 384), (512, 384), (512, 384), (512, 384), (512, 384), (512, 384), (512, 384), (512, 384), (512, 384), (512, 384), (512, 384), (512, 384), (512, 384), (512, 384), (520, 377), (525, 374), (529, 372), (535, 370), (547, 366), (554, 364), (559, 362), (563, 362), (572, 360), (579, 359), (582, 359), (587, 357), (596, 354), (603, 352), (609, 349), (619, 347), (645, 340), (663, 335), (683, 329), (703, 322), (738, 314), (758, 308)]",342.831827564818,"[2, 8, 1, 7, 6, 5, 9, 4, 3]","(0, 0.25)",DOT001C,DOT,C,Chinese,Tue Aug 28 15:46:58 2018,Mouse
2,3,3,0,92,1,5,0,-302,232,70,139,0,500,200,8000,"[(512, 384), (512, 384), (512, 384), (512, 384), (512, 384), (512, 384), (512, 384), (512, 384), (512, 384), (512, 384), (512, 384), (512, 384), (512, 384), (512, 384), (512, 384), (512, 384), (512, 384), (512, 384), (512, 384), (512, 384), (512, 384), (512, 384), (512, 384), (506, 381), (499, 374), (485, 363), (465, 349), (417, 317), (376, 289), (335, 265), (299, 243)]",213.5034369824142,"[2, 8, 1, 7, 6, 5, 9, 4, 3]","(0, 0.25)",DOT001C,DOT,C,Chinese,Tue Aug 28 15:46:58 2018,Mouse
2,3,3,0,93,2,2,1,462,372,90,140,0,500,200,8000,"[(512, 384), (512, 384), (512, 384), (512, 384), (512, 384), (512, 384), (512, 384), (512, 384), (512, 384), (512, 384), (512, 384), (512, 384), (512, 384), (512, 384), (512, 384), (512, 384), (512, 384), (512, 384), (512, 384), (512, 384), (512, 384), (512, 384), (512, 384), (512, 384), (512, 384), (512, 384), (512, 384), (512, 384), (512, 384), (512, 384), (512, 384), (512, 384), (512, 384), (512, 384), (512, 384), (512, 384), (512, 384), (518, 388), (527, 391), (540, 396), (556, 401), (595, 412), (621, 423), (661, 440), (687, 448), (741, 461), (767, 469)]",18.43494882292201,"[2, 8, 1, 7, 6, 5, 9, 4, 3]","(0, 0.25)",DOT001C,DOT,C,Chinese,Tue Aug 28 15:46:58 2018,Mouse
2,3,3,0,94,6,6,1,392,342,50,140,0,500,200,8000,"[(512, 384), (512, 384), (512, 384), (512, 384), (512, 384), (512, 384), (512, 384), (512, 384), (512, 384), (512, 384), (512, 384), (512, 384), (512, 384), (512, 384), (512, 384), (512, 384), (512, 384), (512, 384), (512, 384), (512, 384), (512, 384), (512, 384), (512, 384), (512, 384), (512, 384), (512, 384), (512, 384), (512, 384), (512, 384), (512, 384), (512, 384), (512, 384), (512, 384), (512, 384), (498, 384), (409, 384), (373, 384), (329, 384), (282, 384), (182, 384)]",180.0,"[2, 8, 1, 7, 6, 5, 9, 4, 3]","(0, 0.25)",DOT001C,DOT,C,Chinese,Tue Aug 28 15:46:58 2018,Mouse
2,3,3,0,95,5,5,1,343,283,60,139,0,500,200,8000,"[(512, 384), (512, 384), (512, 384), (512, 384), (512, 384), (512, 384), (512, 384), (512, 384), (512, 384), (512, 384), (512, 384), (512, 384), (512, 384), (512, 384), (512, 384), (512, 384), (512, 384), (512, 384), (512, 384), (512, 384), (512, 384), (512, 384), (512, 384), (512, 384), (512, 384), (512, 384), (512, 384), (512, 384), (507, 377), (495, 359), (469, 338), (440, 315), (374, 259), (340, 232), (303, 201)]",221.2053277316842,"[2, 8, 1, 7, 6, 5, 9, 4, 3]","(0, 0.25)",DOT001C,DOT,C,Chinese,Tue Aug 28 15:46:58 2018,Mouse
2,3,3,0,96,7,7,1,662,462,200,138,0,500,200,8000,"[(512, 384), (512, 384), (512, 384), (512, 384), (512, 384), (512, 384), (512, 384), (512, 384), (512, 384), (512, 384), (512, 384), (512, 384), (512, 384), (512, 384), (512, 384), (512, 384), (512, 384), (512, 384), (512, 384), (512, 384), (512, 384), (512, 384), (512, 384), (512, 384), (512, 384), (512, 384), (512, 384), (512, 384), (512, 384), (512, 384), (512, 384), (512, 384), (512, 384), (512, 384), (512, 384), (512, 384), (512, 384), (512, 384), (512, 384), (512, 384), (512, 384), (512, 384), (512, 384), (512, 384), (512, 384), (512, 384), (511, 384), (511, 384), (511, 384), (511, 384), (511, 384), (511, 384), (511, 384), (511, 384), (511, 384), (511, 384), (511, 384), (511, 384), (511, 384), (509, 392), (497, 404), (476, 424), (426, 466), (395, 490), (366, 514), (330, 543), (270, 585)]",140.28770644765254,"[2, 8, 1, 7, 6, 5, 9, 4, 3]","(0, 0.25)",DOT001C,DOT,C,Chinese,Tue Aug 28 15:46:58 2018,Mouse
2,3,3,0,97,4,4,1,424,354,70,137,0,500,200,8000,"[(512, 384), (512, 384), (512, 384), (512, 384), (512, 384), (512, 384), (512, 384), (512, 384), (512, 384), (512, 384), (512, 384), (512, 384), (512, 384), (512, 384), (512, 384), (512, 384), (512, 384), (512, 384), (512, 384), (512, 384), (512, 384), (512, 384), (512, 384), (512, 384), (512, 384), (512, 384), (512, 384), (512, 384), (512, 384), (512, 384), (512, 384), (512, 384), (512, 384), (512, 384), (512, 384), (530, 364), (543, 344), (562, 319), (583, 291), (630, 233), (643, 216), (657, 196), (668, 180)]",307.40535663140855,"[2, 8, 1, 7, 6, 5, 9, 4, 3]","(0, 0.25)",DOT001C,DOT,C,Chinese,Tue Aug 28 15:46:58 2018,Mouse
2,3,3,0,98,2,2,1,510,330,180,136,0,500,200,8000,"[(512, 384), (512, 384), (512, 384), (512, 384), (512, 384), (512, 384), (512, 384), (512, 384), (512, 384), (512, 384), (512, 384), (512, 384), (512, 384), (512, 384), (512, 384), (512, 384), (512, 384), (512, 384), (512, 384), (512, 384), (512, 384), (512, 384), (512, 384), (512, 384), (512, 384), (512, 384), (512, 384), (512, 384), (512, 384), (512, 384), (512, 384), (512, 384), (512, 383), (512, 383), (512, 383), (513, 382), (520, 382), (524, 382), (531, 384), (548, 391), (579, 402), (599, 410), (621, 416), (637, 419), (674, 432), (687, 435), (698, 438), (709, 440), (730, 443), (746, 448), (760, 453)]",15.547939558288776,"[2, 8, 1, 7, 6, 5, 9, 4, 3]","(0, 0.25)",DOT001C,DOT,C,Chinese,Tue Aug 28 15:46:58 2018,Mouse
2,3,3,0,99,5,1,0,-392,262,130,135,0,500,200,8000,"[(512, 384), (512, 384), (512, 384), (512, 384), (512, 384), (512, 384), (512, 384), (512, 384), (512, 384), (512, 384), (512, 384), (512, 384), (512, 384), (512, 384), (512, 384), (512, 384), (512, 384), (512, 384), (512, 384), (512, 384), (512, 384), (512, 384), (512, 384), (512, 384), (512, 384), (512, 384), (510, 398), (509, 411), (507, 426), (503, 440), (493, 473), (490, 491), (487, 508), (484, 523), (479, 551), (476, 563), (474, 581), (470, 597), (464, 623), (461, 637)]",101.39700805973735,"[2, 8, 1, 7, 6, 5, 9, 4, 3]","(0, 0.25)",DOT001C,DOT,C,Chinese,Tue Aug 28 15:46:58 2018,Mouse
2,3,3,0,100,8,8,1,1534,1434,100,136,0,500,200,8000,"[(512, 384), (512, 384), (512, 384), (512, 384), (512, 384), (512, 384), (512, 384), (512, 384), (512, 384), (512, 384), (512, 384), (512, 384), (512, 384), (512, 384), (512, 384), (512, 384), (512, 384), (512, 384), (512, 384), (512, 384), (512, 384), (512, 384), (512, 384), (512, 384), (512, 384), (512, 384), (512, 384), (512, 384), (512, 384), (512, 384), (512, 384), (512, 384), (512, 384), (512, 384), (512, 384), (512, 384), (512, 384), (512, 384), (512, 384), (512, 384), (512, 384), (512, 384), (512, 384), (512, 384), (512, 384), (512, 384), (512, 384), (512, 384), (512, 384), (512, 384), (512, 384), (512, 384), (512, 384), (512, 384), (512, 384), (512, 384), (512, 384), (512, 384), (512, 384), (512, 384), (512, 384), (512, 384), (512, 384), (512, 384), (512, 384), (512, 384), (512, 384), (512, 384), (512, 384), (512, 384), (512, 384), (512, 384), (512, 384), (512, 384), (512, 384), (512, 384), (512, 384), (512, 384), (512, 384), (512, 384), (512, 384), (512, 384), (512, 384), (512, 384), (512, 384), (512, 384), (512, 384), (512, 384), (512, 384), (512, 384), (512, 384), (512, 384), (512, 384), (512, 384), (512, 384), (512, 384), (512, 384), (512, 384), (512, 384), (512, 384), (512, 384), (512, 384), (512, 384), (512, 384), (512, 384), (512, 384), (512, 384), (512, 384), (512, 384), (512, 384), (512, 384), (512, 384), (512, 384), (512, 384), (512, 384), (512, 384), (512, 384), (512, 384), (512, 384), (512, 384), (512, 384), (512, 384), (512, 384), (512, 384), (512, 384), (512, 384), (512, 384), (512, 384), (512, 384), (512, 384), (512, 384), (512, 384), (512, 384), (512, 384), (512, 384), (512, 384), (512, 384), (512, 384), (512, 384), (512, 384), (512, 384), (512, 384), (512, 384), (513, 390), (525, 409), (536, 433), (562, 479), (575, 496), (591, 519), (601, 533), (629, 573), (638, 585), (644, 595), (652, 606)]",57.763213447869774,"[2, 8, 1, 7, 6, 5, 9, 4, 3]","(0, 0.25)",DOT001C,DOT,C,Chinese,Tue Aug 28 15:46:58 2018,Mouse
2,3,3,0,101,6,6,1,853,773,80,136,0,500,200,8000,"[(512, 384), (512, 384), (512, 384), (512, 384), (512, 384), (512, 384), (512, 384), (512, 384), (512, 384), (512, 384), (512, 384), (512, 384), (512, 384), (512, 384), (512, 384), (512, 384), (512, 384), (512, 384), (512, 384), (512, 384), (512, 384), (512, 384), (512, 384), (512, 384), (512, 384), (512, 384), (512, 384), (512, 384), (512, 384), (512, 384), (512, 384), (512, 384), (512, 384), (512, 384), (512, 384), (512, 384), (512, 384), (512, 384), (512, 384), (512, 384), (512, 384), (512, 384), (512, 384), (512, 384), (512, 384), (512, 384), (512, 384), (512, 384), (512, 384), (512, 384), (512, 384), (512, 384), (512, 384), (512, 384), (512, 384), (512, 384), (512, 384), (512, 384), (512, 384), (512, 384), (512, 384), (512, 384), (512, 384), (512, 384), (512, 384), (512, 384), (512, 384), (512, 384), (512, 384), (512, 384), (512, 384), (512, 384), (512, 384), (512, 384), (512, 384), (512, 384), (512, 384), (511, 385), (500, 385), (485, 385), (470, 385), (427, 385), (399, 385), (343, 385), (289, 380), (193, 368)]",182.87136329037787,"[2, 8, 1, 7, 6, 5, 9, 4, 3]","(0, 0.25)",DOT001C,DOT,C,Chinese,Tue Aug 28 15:46:58 2018,Mouse
2,3,3,0,102,1,5,0,-312,202,110,135,0,500,200,8000,"[(512, 384), (512, 384), (512, 384), (512, 384), (512, 384), (512, 384), (512, 384), (512, 384), (512, 384), (512, 384), (512, 384), (512, 384), (512, 384), (512, 384), (512, 384), (512, 384), (512, 384), (512, 384), (512, 384), (512, 384), (502, 381), (486, 371), (465, 360), (448, 349), (406, 326), (384, 315), (370, 305), (353, 292), (329, 274), (319, 265), (307, 256), (301, 249)]",212.61153684669148,"[2, 8, 1, 7, 6, 5, 9, 4, 3]","(0, 0.25)",DOT001C,DOT,C,Chinese,Tue Aug 28 15:46:58 2018,Mouse
2,3,3,0,103,2,2,1,410,220,190,136,0,500,200,8000,"[(512, 384), (512, 384), (512, 384), (512, 384), (512, 384), (512, 384), (512, 384), (512, 384), (512, 384), (512, 384), (512, 384), (512, 384), (512, 384), (512, 384), (512, 384), (512, 384), (512, 384), (512, 384), (512, 384), (512, 384), (512, 384), (512, 385), (512, 385), (512, 385), (512, 385), (512, 385), (512, 385), (512, 385), (512, 385), (512, 385), (512, 385), (512, 385), (521, 389), (538, 397), (561, 406), (584, 414), (637, 430), (662, 438), (685, 447), (724, 456), (771, 470)]",18.368557451114995,"[2, 8, 1, 7, 6, 5, 9, 4, 3]","(0, 0.25)",DOT001C,DOT,C,Chinese,Tue Aug 28 15:46:58 2018,Mouse
2,3,3,0,104,7,7,1,680,600,80,136,0,500,200,8000,"[(512, 384), (512, 384), (512, 384), (512, 384), (512, 384), (512, 384), (512, 384), (512, 384), (512, 384), (512, 384), (512, 384), (512, 384), (512, 384), (512, 384), (512, 384), (512, 384), (512, 384), (512, 384), (512, 384), (512, 384), (512, 384), (512, 384), (512, 384), (512, 384), (512, 384), (512, 384), (512, 384), (512, 384), (512, 384), (512, 384), (512, 384), (512, 384), (512, 384), (512, 384), (512, 384), (512, 384), (512, 384), (512, 384), (512, 384), (512, 384), (512, 384), (512, 384), (512, 384), (512, 384), (512, 384), (512, 384), (512, 384), (512, 384), (512, 384), (512, 384), (512, 384), (512, 384), (512, 384), (512, 384), (512, 384), (512, 384), (512, 384), (512, 384), (512, 384), (507, 396), (497, 403), (481, 413), (458, 429), (404, 461), (377, 475), (337, 492), (311, 503), (264, 524)]",150.5545712700744,"[2, 8, 1, 7, 6, 5, 9, 4, 3]","(0, 0.25)",DOT001C,DOT,C,Chinese,Tue Aug 28 15:46:58 2018,Mouse
2,3,3,0,105,5,6,0,-436,396,40,135,0,500,200,8000,"[(512, 384), (512, 384), (512, 384), (512, 384), (512, 384), (512, 384), (512, 384), (512, 384), (512, 384), (512, 384), (512, 384), (512, 384), (512, 384), (512, 384), (512, 384), (512, 384), (512, 384), (512, 384), (512, 384), (512, 384), (512, 384), (512, 384), (512, 384), (512, 384), (512, 384), (512, 384), (512, 384), (512, 384), (512, 384), (512, 384), (512, 384), (512, 384), (512, 384), (512, 384), (512, 384), (512, 384), (512, 384), (512, 384), (512, 384), (465, 385), (417, 385), (384, 385), (340, 385), (259, 385)]",179.7735356476588,"[2, 8, 1, 7, 6, 5, 9, 4, 3]","(0, 0.25)",DOT001C,DOT,C,Chinese,Tue Aug 28 15:46:58 2018,Mouse
2,3,3,0,106,1,7,0,-594,534,60,136,0,500,200,8000,"[(512, 384), (512, 384), (512, 384), (512, 384), (512, 384), (512, 384), (512, 384), (512, 384), (512, 384), (512, 384), (512, 384), (512, 384), (512, 384), (512, 384), (512, 384), (512, 384), (512, 384), (512, 384), (512, 384), (512, 384), (512, 384), (512, 384), (512, 384), (512, 384), (512, 384), (512, 384), (512, 384), (512, 384), (512, 384), (512, 384), (512, 384), (512, 384), (512, 384), (512, 384), (512, 384), (512, 384), (512, 384), (512, 384), (512, 384), (512, 384), (512, 384), (512, 384), (512, 384), (512, 384), (512, 384), (512, 384), (512, 384), (512, 384), (512, 384), (512, 384), (512, 384), (512, 384), (512, 384), (512, 385), (502, 396), (469, 425), (438, 444), (409, 470), (381, 489), (306, 541)]",142.68767269611652,"[2, 8, 1, 7, 6, 5, 9, 4, 3]","(0, 0.25)",DOT001C,DOT,C,Chinese,Tue Aug 28 15:46:58 2018,Mouse
2,3,3,0,107,7,7,1,373,313,60,137,0,500,200,8000,"[(512, 384), (512, 384), (512, 384), (512, 384), (512, 384), (512, 384), (512, 384), (512, 384), (512, 384), (512, 384), (512, 384), (512, 384), (512, 384), (512, 384), (512, 384), (512, 384), (512, 384), (512, 384), (512, 384), (512, 384), (512, 384), (512, 384), (512, 384), (512, 384), (512, 384), (512, 384), (512, 384), (512, 384), (512, 384), (512, 384), (512, 384), (510, 384), (477, 410), (452, 429), (426, 450), (397, 473), (328, 520), (292, 540)]",144.65989307844234,"[2, 8, 1, 7, 6, 5, 9, 4, 3]","(0, 0.25)",DOT001C,DOT,C,Chinese,Tue Aug 28 15:46:58 2018,Mouse
2,3,3,0,108,7,7,1,264,184,80,137,0,500,200,8000,"[(512, 384), (512, 384), (512, 384), (512, 384), (512, 384), (512, 384), (512, 384), (512, 384), (512, 384), (512, 384), (512, 384), (512, 384), (512, 384), (512, 384), (512, 384), (512, 384), (512, 384), (512, 384), (505, 384), (496, 392), (489, 399), (478, 408), (442, 437), (417, 456), (386, 477), (355, 497), (302, 537)]",143.9239884436314,"[2, 8, 1, 7, 6, 5, 9, 4, 3]","(0, 0.25)",DOT001C,DOT,C,Chinese,Tue Aug 28 15:46:58 2018,Mouse
2,3,3,0,109,3,2,0,-455,355,100,136,0,500,200,8000,"[(512, 384), (512, 384), (512, 384), (512, 384), (512, 384), (512, 384), (512, 384), (512, 384), (512, 384), (512, 384), (512, 384), (512, 384), (512, 384), (512, 384), (512, 384), (512, 384), (512, 384), (512, 384), (512, 384), (512, 384), (512, 384), (512, 384), (512, 384), (512, 384), (512, 384), (512, 384), (512, 384), (512, 384), (512, 384), (512, 384), (512, 384), (512, 384), (512, 384), (512, 384), (512, 384), (513, 384), (513, 384), (515, 384), (520, 384), (551, 384), (580, 385), (598, 388), (638, 394), (705, 404), (746, 413), (780, 422)]",8.070232177918085,"[2, 8, 1, 7, 6, 5, 9, 4, 3]","(0, 0.25)",DOT001C,DOT,C,Chinese,Tue Aug 28 15:46:58 2018,Mouse
2,3,3,0,110,4,4,1,391,221,170,137,0,500,200,8000,"[(512, 384), (512, 384), (512, 384), (512, 384), (512, 384), (512, 384), (512, 384), (512, 384), (512, 384), (512, 384), (512, 384), (512, 384), (512, 384), (512, 384), (512, 384), (512, 384), (512, 384), (512, 384), (512, 384), (512, 384), (512, 384), (512, 384), (512, 385), (512, 385), (512, 385), (512, 384), (514, 375), (516, 369), (518, 361), (522, 351), (531, 326), (537, 313), (544, 300), (553, 284), (572, 251), (579, 236), (587, 215), (594, 198), (608, 162), (615, 142)]",293.05556589930814,"[2, 8, 1, 7, 6, 5, 9, 4, 3]","(0, 0.25)",DOT001C,DOT,C,Chinese,Tue Aug 28 15:46:58 2018,Mouse
2,3,3,0,111,8,8,1,622,552,70,137,0,500,200,8000,"[(512, 384), (512, 384), (512, 384), (512, 384), (512, 384), (512, 384), (512, 384), (512, 384), (512, 384), (512, 384), (512, 384), (512, 384), (512, 384), (512, 384), (512, 384), (512, 384), (512, 384), (512, 384), (512, 384), (512, 384), (512, 384), (512, 384), (512, 384), (512, 384), (512, 384), (512, 384), (512, 384), (512, 384), (512, 384), (512, 384), (512, 384), (512, 384), (512, 384), (512, 384), (512, 384), (512, 384), (512, 384), (512, 384), (512, 384), (512, 384), (512, 384), (512, 384), (512, 384), (512, 384), (512, 384), (512, 384), (512, 384), (512, 384), (512, 384), (512, 384), (512, 384), (512, 384), (512, 384), (512, 384), (512, 384), (526, 406), (542, 433), (559, 460), (580, 489), (615, 537), (632, 562), (647, 582), (659, 601)]",55.885527054658745,"[2, 8, 1, 7, 6, 5, 9, 4, 3]","(0, 0.25)",DOT001C,DOT,C,Chinese,Tue Aug 28 15:46:58 2018,Mouse
2,3,3,0,112,2,2,1,274,224,50,136,0,500,200,8000,"[(512, 384), (512, 384), (512, 384), (512, 384), (512, 384), (512, 384), (512, 384), (512, 384), (512, 384), (512, 384), (512, 384), (512, 384), (512, 384), (512, 384), (512, 384), (512, 384), (512, 384), (512, 384), (512, 384), (512, 384), (512, 384), (512, 384), (514, 384), (546, 391), (638, 416), (692, 427), (744, 437), (793, 444)]",12.052976010392808,"[2, 8, 1, 7, 6, 5, 9, 4, 3]","(0, 0.25)",DOT001C,DOT,C,Chinese,Tue Aug 28 15:46:58 2018,Mouse
2,3,3,0,113,6,6,1,902,382,520,135,0,500,200,8000,"[(512, 384), (512, 384), (512, 384), (512, 384), (512, 384), (512, 384), (512, 384), (512, 384), (512, 384), (512, 384), (512, 384), (512, 384), (512, 384), (512, 384), (512, 384), (512, 384), (512, 384), (512, 384), (512, 384), (512, 384), (512, 384), (512, 384), (512, 384), (512, 384), (512, 384), (512, 384), (512, 384), (512, 384), (512, 384), (512, 384), (512, 384), (512, 384), (512, 384), (512, 384), (512, 384), (512, 384), (512, 384), (512, 384), (513, 384), (515, 383), (516, 382), (518, 381), (519, 380), (519, 380), (519, 380), (519, 380), (519, 380), (519, 380), (519, 380), (519, 380), (519, 380), (519, 380), (519, 380), (519, 380), (519, 380), (519, 380), (519, 380), (519, 379), (519, 378), (519, 377), (519, 376), (518, 373), (518, 372), (516, 371), (516, 371), (515, 370), (515, 370), (515, 370), (515, 370), (515, 369), (515, 369), (514, 369), (514, 369), (514, 369), (513, 369), (513, 369), (513, 369), (508, 367), (505, 367), (499, 367), (492, 367), (474, 367), (465, 367), (448, 367), (429, 367), (362, 367), (339, 367), (320, 367), (297, 367), (268, 367), (253, 367)]",183.75534007320053,"[2, 8, 1, 7, 6, 5, 9, 4, 3]","(0, 0.25)",DOT001C,DOT,C,Chinese,Tue Aug 28 15:46:58 2018,Mouse
2,3,3,0,114,9,8,0,-1012,492,520,134,0,500,200,8000,"[(512, 384), (512, 384), (512, 384), (512, 384), (512, 384), (512, 384), (512, 384), (512, 384), (512, 384), (512, 384), (512, 384), (512, 384), (512, 384), (512, 384), (512, 384), (512, 384), (512, 384), (512, 384), (512, 384), (512, 384), (512, 384), (512, 384), (512, 384), (512, 384), (512, 384), (512, 384), (512, 384), (512, 384), (512, 384), (512, 384), (512, 384), (512, 384), (512, 384), (512, 384), (512, 384), (512, 384), (512, 384), (512, 384), (512, 384), (512, 384), (512, 384), (512, 384), (512, 384), (512, 384), (512, 384), (512, 384), (512, 384), (512, 384), (512, 384), (514, 384), (521, 390), (538, 410), (546, 421), (555, 431), (564, 442), (584, 466), (594, 478), (602, 488), (609, 496), (622, 514), (626, 520), (630, 525), (630, 529), (632, 532), (632, 532), (632, 532), (632, 532), (632, 532), (632, 532), (632, 532), (632, 532), (632, 532), (632, 532), (632, 532), (632, 532), (632, 532), (632, 532), (632, 532), (632, 532), (632, 532), (632, 532), (632, 532), (632, 532), (632, 532), (632, 532), (632, 532), (632, 532), (632, 532), (632, 532), (632, 532), (632, 532), (632, 532), (632, 532), (632, 532), (632, 532), (632, 537), (634, 540), (634, 545), (636, 550), (645, 568), (649, 579), (655, 594)]",55.74700078943465,"[2, 8, 1, 7, 6, 5, 9, 4, 3]","(0, 0.25)",DOT001C,DOT,C,Chinese,Tue Aug 28 15:46:58 2018,Mouse
2,3,3,0,115,6,7,0,-496,416,80,135,0,500,200,8000,"[(512, 384), (512, 384), (512, 384), (512, 384), (512, 384), (512, 384), (512, 384), (512, 384), (512, 384), (512, 384), (512, 384), (512, 384), (512, 384), (512, 384), (512, 384), (512, 384), (512, 384), (512, 384), (512, 384), (512, 384), (512, 384), (512, 384), (512, 384), (512, 384), (512, 384), (512, 384), (512, 384), (512, 384), (512, 384), (512, 384), (512, 384), (512, 384), (512, 384), (512, 384), (512, 384), (512, 384), (512, 384), (512, 384), (512, 384), (512, 384), (512, 384), (503, 385), (491, 401), (478, 418), (447, 454), (425, 476), (407, 494), (387, 518), (341, 563), (317, 588)]",133.70783311375007,"[2, 8, 1, 7, 6, 5, 9, 4, 3]","(0, 0.25)",DOT001C,DOT,C,Chinese,Tue Aug 28 15:46:58 2018,Mouse
2,3,3,0,116,7,9,0,-271,201,70,136,0,500,200,8000,"[(512, 384), (512, 384), (512, 384), (512, 384), (512, 384), (512, 384), (512, 384), (512, 384), (512, 384), (512, 384), (512, 384), (512, 384), (512, 384), (512, 384), (512, 384), (512, 384), (512, 384), (512, 384), (512, 384), (512, 384), (511, 377), (510, 365), (508, 348), (504, 280), (499, 240), (499, 198), (499, 159), (499, 90)]",267.46816237754996,"[2, 8, 1, 7, 6, 5, 9, 4, 3]","(0, 0.25)",DOT001C,DOT,C,Chinese,Tue Aug 28 15:46:58 2018,Mouse
2,3,3,0,117,4,5,0,-461,421,40,137,0,500,200,8000,"[(512, 384), (512, 384), (512, 384), (512, 384), (512, 384), (512, 384), (512, 384), (512, 384), (512, 384), (512, 384), (512, 384), (512, 384), (512, 384), (512, 384), (512, 384), (512, 384), (512, 384), (512, 384), (512, 384), (512, 384), (512, 384), (512, 384), (512, 384), (512, 384), (512, 384), (512, 384), (512, 384), (512, 384), (512, 384), (512, 384), (512, 384), (512, 384), (512, 384), (512, 384), (512, 384), (512, 384), (512, 384), (512, 384), (512, 384), (512, 384), (512, 384), (512, 384), (504, 372), (454, 341), (359, 288), (309, 257), (266, 231)]",211.87959684702273,"[2, 8, 1, 7, 6, 5, 9, 4, 3]","(0, 0.25)",DOT001C,DOT,C,Chinese,Tue Aug 28 15:46:58 2018,Mouse
2,3,3,0,118,4,4,1,532,72,460,138,0,500,200,8000,"[(512, 384), (512, 384), (512, 384), (512, 384), (512, 384), (512, 384), (512, 384), (512, 383), (512, 379), (512, 379), (512, 379), (512, 379), (512, 379), (512, 379), (512, 379), (512, 379), (512, 379), (512, 379), (512, 379), (512, 379), (512, 379), (512, 379), (512, 379), (512, 379), (512, 379), (512, 379), (512, 379), (512, 379), (512, 379), (512, 379), (512, 379), (512, 379), (512, 379), (512, 379), (512, 379), (512, 379), (512, 379), (512, 379), (512, 379), (512, 379), (512, 379), (512, 379), (512, 379), (512, 379), (511, 377), (514, 368), (527, 350), (535, 337), (543, 321), (554, 297), (583, 244), (598, 216), (618, 188), (638, 153)]",298.6104596659652,"[2, 8, 1, 7, 6, 5, 9, 4, 3]","(0, 0.25)",DOT001C,DOT,C,Chinese,Tue Aug 28 15:46:58 2018,Mouse
2,3,3,0,119,8,9,0,-447,397,50,138,0,500,200,8000,"[(512, 384), (512, 384), (512, 384), (512, 384), (512, 384), (512, 384), (512, 384), (512, 384), (512, 384), (512, 384), (512, 384), (512, 384), (512, 384), (512, 384), (512, 384), (512, 384), (512, 384), (512, 384), (512, 384), (512, 384), (512, 384), (512, 384), (512, 384), (512, 384), (512, 384), (512, 384), (512, 384), (512, 384), (512, 384), (512, 384), (512, 384), (512, 384), (512, 384), (512, 384), (512, 384), (512, 384), (512, 384), (512, 384), (512, 384), (512, 368), (481, 275), (471, 247), (467, 225), (461, 190), (455, 135)]",257.10625595511783,"[2, 8, 1, 7, 6, 5, 9, 4, 3]","(0, 0.25)",DOT001C,DOT,C,Chinese,Tue Aug 28 15:46:58 2018,Mouse
2,3,3,0,120,8,8,1,263,183,80,139,0,500,200,8000,"[(512, 384), (512, 384), (512, 384), (512, 384), (512, 384), (512, 384), (512, 384), (512, 384), (512, 384), (512, 384), (512, 384), (512, 384), (512, 384), (512, 384), (512, 384), (512, 384), (512, 384), (512, 384), (515, 387), (525, 403), (554, 443), (573, 468), (589, 491), (608, 516), (639, 556), (652, 576), (665, 593)]",53.793730354169234,"[2, 8, 1, 7, 6, 5, 9, 4, 3]","(0, 0.25)",DOT001C,DOT,C,Chinese,Tue Aug 28 15:46:58 2018,Mouse
2,3,3,0,121,5,5,1,354,234,120,139,0,500,200,8000,"[(512, 384), (512, 384), (512, 384), (512, 384), (512, 384), (512, 384), (512, 384), (512, 384), (512, 384), (512, 384), (512, 384), (512, 384), (512, 384), (512, 384), (512, 384), (512, 384), (512, 384), (512, 384), (512, 384), (512, 384), (512, 384), (512, 384), (512, 384), (506, 379), (503, 377), (493, 369), (487, 366), (479, 359), (469, 353), (450, 339), (438, 327), (420, 314), (402, 299), (362, 261), (338, 234), (322, 218)]",221.14319901441013,"[2, 8, 1, 7, 6, 5, 9, 4, 3]","(0, 0.25)",DOT001C,DOT,C,Chinese,Tue Aug 28 15:46:58 2018,Mouse
2,3,3,0,122,4,4,1,662,582,80,138,0,500,200,8000,"[(512, 384), (512, 384), (512, 384), (512, 384), (512, 384), (512, 384), (512, 384), (512, 384), (512, 384), (512, 384), (512, 384), (512, 384), (512, 384), (512, 384), (512, 384), (512, 384), (512, 384), (512, 384), (512, 384), (512, 384), (512, 384), (512, 384), (512, 384), (512, 384), (512, 384), (512, 384), (512, 384), (512, 384), (512, 384), (512, 384), (512, 384), (512, 384), (512, 384), (512, 384), (512, 384), (512, 384), (512, 384), (512, 384), (512, 384), (512, 384), (512, 384), (512, 384), (512, 384), (512, 384), (512, 384), (512, 384), (512, 384), (512, 384), (512, 384), (512, 384), (512, 384), (512, 384), (512, 384), (512, 384), (512, 384), (512, 384), (512, 384), (512, 384), (512, 382), (518, 373), (529, 352), (543, 330), (579, 277), (598, 251), (621, 220), (646, 196), (693, 154)]",308.201207219309,"[2, 8, 1, 7, 6, 5, 9, 4, 3]","(0, 0.25)",DOT001C,DOT,C,Chinese,Tue Aug 28 15:46:58 2018,Mouse
2,3,3,0,123,5,6,0,-301,161,140,137,0,500,200,8000,"[(512, 384), (512, 384), (512, 384), (512, 384), (512, 384), (512, 384), (512, 384), (512, 384), (512, 384), (512, 384), (512, 384), (512, 384), (512, 384), (512, 384), (512, 384), (512, 384), (512, 385), (508, 388), (504, 392), (502, 394), (493, 399), (488, 400), (481, 403), (474, 405), (457, 406), (442, 406), (430, 406), (403, 406), (322, 379), (284, 362), (247, 345)]",188.3721105432925,"[2, 8, 1, 7, 6, 5, 9, 4, 3]","(0, 0.25)",DOT001C,DOT,C,Chinese,Tue Aug 28 15:46:58 2018,Mouse
2,3,3,0,124,3,3,1,515,275,240,138,0,500,200,8000,"[(512, 384), (512, 384), (512, 384), (512, 384), (512, 384), (512, 384), (512, 384), (512, 384), (512, 384), (512, 384), (512, 384), (512, 384), (512, 384), (512, 384), (512, 384), (512, 384), (512, 384), (512, 384), (512, 384), (512, 384), (512, 384), (512, 384), (512, 384), (512, 384), (512, 384), (512, 384), (512, 384), (517, 383), (525, 383), (543, 383), (552, 383), (559, 383), (569, 383), (583, 383), (587, 383), (591, 383), (592, 383), (594, 382), (594, 382), (595, 381), (596, 380), (599, 377), (600, 376), (604, 372), (606, 371), (619, 363), (625, 361), (635, 355), (646, 349), (688, 326), (721, 306), (764, 286)]",338.74949449286675,"[2, 8, 1, 7, 6, 5, 9, 4, 3]","(0, 0.25)",DOT001C,DOT,C,Chinese,Tue Aug 28 15:46:58 2018,Mouse
2,3,3,0,125,5,5,1,385,195,190,138,0,500,200,8000,"[(512, 384), (512, 384), (512, 384), (512, 384), (512, 384), (512, 384), (512, 384), (512, 384), (512, 384), (512, 384), (512, 384), (512, 384), (512, 384), (512, 384), (512, 384), (512, 384), (512, 384), (512, 384), (512, 384), (508, 382), (506, 381), (502, 380), (498, 377), (494, 373), (484, 367), (456, 346), (442, 335), (431, 329), (420, 321), (398, 304), (391, 299), (380, 292), (372, 287), (357, 277), (348, 272), (338, 265), (329, 257), (310, 244), (301, 237)]",214.8642502744554,"[2, 8, 1, 7, 6, 5, 9, 4, 3]","(0, 0.25)",DOT001C,DOT,C,Chinese,Tue Aug 28 15:46:58 2018,Mouse
