NativeLangNumber,LanuageNumber,SessionNumber,Block,TrialNum,ConditionNumber,Response,Accuracy,RT,MovementOnsetTime,TimeInMotion,SignalContrast,SignalContrastNumber,StimDisplayTime,MaskTime,MaxResponseTime,MousePositionXY,MouseAngle,WheelOrder,NoiseMuSigma,ParticipantID,LanuageTested,SessionTested,NativeLanuage,Date,ResponseDevice
1,3,1,0,1,6,6,1,708,548,160,153,0,500,200,8000,"[(960, 540), (960, 540), (960, 540), (960, 540), (960, 540), (960, 540), (960, 540), (960, 540), (960, 540), (960, 540), (960, 540), (960, 540), (960, 540), (960, 540), (960, 540), (960, 540), (960, 540), (960, 540), (960, 540), (960, 540), (960, 540), (960, 540), (960, 540), (960, 540), (960, 540), (960, 540), (960, 540), (960, 540), (960, 540), (960, 540), (960, 540), (960, 540), (960, 540), (960, 540), (960, 540), (960, 540), (960, 540), (960, 540), (960, 540), (960, 540), (960, 540), (960, 540), (960, 540), (960, 540), (960, 540), (960, 540), (960, 540), (960, 540), (960, 540), (960, 540), (960, 540), (960, 540), (960, 540), (960, 540), (968, 528), (975, 516), (978, 512), (979, 508), (991, 498), (996, 490), (1004, 479), (1013, 465), (1040, 419), (1052, 397), (1069, 372), (1081, 353), (1113, 301), (1128, 274), (1143, 249), (1158, 225), (1182, 162)]",300.42578380196124,"[8, 3, 7, 9, 4, 5, 1, 6, 2]","(0, 0.25)",DOT010A,DOT,A,English,Thu Aug 30 11:27:05 2018,Mouse
1,3,1,0,2,9,9,1,930,590,340,153,0,500,200,8000,"[(960, 540), (960, 540), (960, 540), (960, 540), (960, 540), (960, 540), (960, 540), (960, 540), (960, 540), (960, 540), (960, 540), (960, 540), (960, 540), (960, 540), (960, 540), (960, 540), (960, 540), (960, 540), (960, 540), (960, 540), (960, 540), (960, 540), (960, 540), (960, 540), (960, 540), (960, 540), (960, 540), (960, 540), (960, 540), (960, 540), (960, 540), (960, 540), (960, 540), (960, 540), (960, 540), (960, 540), (960, 540), (960, 540), (960, 540), (960, 540), (960, 540), (960, 540), (960, 540), (960, 540), (960, 540), (960, 540), (960, 540), (960, 540), (960, 540), (960, 540), (960, 540), (960, 540), (960, 540), (960, 540), (960, 540), (960, 540), (960, 540), (960, 540), (959, 542), (953, 545), (949, 548), (941, 553), (922, 566), (912, 574), (903, 580), (893, 591), (873, 610), (864, 620), (855, 631), (843, 645), (827, 668), (820, 680), (812, 691), (806, 703), (791, 726), (779, 738), (770, 745), (761, 749), (748, 759), (739, 764), (730, 766), (722, 769), (705, 772), (696, 774), (688, 775), (680, 776), (664, 779), (659, 779), (655, 780), (651, 780), (646, 780), (643, 781), (640, 781)]",143.01568257712643,"[8, 3, 7, 9, 4, 5, 1, 6, 2]","(0, 0.25)",DOT010A,DOT,A,English,Thu Aug 30 11:27:05 2018,Mouse
1,3,1,0,3,4,4,1,806,626,180,152,0,500,200,8000,"[(960, 540), (960, 540), (960, 540), (960, 540), (960, 540), (960, 540), (960, 540), (960, 540), (960, 540), (960, 540), (960, 540), (960, 540), (960, 540), (960, 540), (960, 540), (960, 540), (960, 540), (960, 540), (960, 540), (960, 540), (960, 540), (960, 540), (960, 540), (960, 540), (960, 540), (960, 540), (960, 540), (960, 540), (960, 540), (960, 540), (960, 540), (960, 540), (960, 540), (960, 540), (960, 540), (960, 540), (960, 540), (960, 540), (960, 540), (960, 540), (960, 540), (960, 540), (960, 540), (960, 540), (960, 540), (960, 540), (960, 540), (960, 540), (960, 540), (960, 540), (960, 540), (960, 540), (960, 540), (960, 540), (960, 540), (960, 540), (960, 540), (960, 540), (960, 540), (960, 540), (960, 540), (960, 540), (959, 540), (957, 540), (946, 540), (938, 540), (930, 540), (920, 540), (896, 540), (877, 540), (858, 540), (835, 540), (779, 538), (749, 534), (719, 527), (693, 525), (637, 517), (614, 514), (595, 510), (574, 509), (541, 509)]",184.23135780746625,"[8, 3, 7, 9, 4, 5, 1, 6, 2]","(0, 0.25)",DOT010A,DOT,A,English,Thu Aug 30 11:27:05 2018,Mouse
1,3,1,0,4,4,4,1,700,410,290,151,0,500,200,8000,"[(960, 540), (960, 540), (960, 540), (960, 540), (960, 540), (960, 540), (960, 540), (960, 540), (960, 540), (960, 540), (960, 540), (960, 540), (960, 540), (960, 540), (960, 540), (960, 540), (960, 540), (960, 540), (960, 540), (960, 540), (960, 540), (960, 540), (960, 540), (960, 540), (960, 540), (960, 540), (960, 540), (960, 540), (960, 540), (960, 540), (960, 540), (960, 540), (960, 540), (960, 540), (960, 540), (960, 540), (960, 540), (960, 540), (960, 540), (960, 540), (957, 541), (950, 543), (937, 546), (930, 547), (920, 548), (908, 550), (879, 553), (860, 553), (844, 553), (827, 553), (792, 553), (776, 553), (761, 553), (746, 553), (714, 553), (702, 553), (687, 553), (675, 553), (660, 553), (654, 553), (648, 555), (641, 556), (631, 557), (626, 558), (618, 560), (612, 560), (595, 563), (585, 564), (574, 566), (560, 566)]",176.28100602684196,"[8, 3, 7, 9, 4, 5, 1, 6, 2]","(0, 0.25)",DOT010A,DOT,A,English,Thu Aug 30 11:27:05 2018,Mouse
1,3,1,0,5,4,4,1,759,419,340,150,0,500,200,8000,"[(960, 540), (960, 540), (960, 540), (960, 540), (960, 540), (960, 540), (960, 540), (960, 540), (960, 540), (960, 540), (960, 540), (960, 540), (960, 540), (960, 540), (960, 540), (960, 540), (960, 540), (960, 540), (960, 540), (960, 540), (960, 540), (960, 540), (960, 540), (960, 540), (960, 540), (960, 540), (960, 540), (960, 540), (960, 540), (960, 540), (960, 540), (960, 540), (960, 540), (960, 540), (960, 540), (960, 540), (960, 540), (960, 540), (960, 540), (960, 540), (960, 540), (959, 540), (954, 541), (934, 543), (923, 545), (906, 548), (879, 552), (823, 552), (795, 552), (767, 552), (739, 552), (692, 552), (675, 552), (660, 552), (648, 552), (626, 552), (618, 552), (608, 552), (600, 554), (588, 555), (583, 555), (578, 557), (575, 557), (569, 558), (567, 559), (565, 559), (564, 559), (563, 559), (563, 559), (563, 559), (563, 559), (563, 559), (563, 559), (563, 559), (563, 559), (560, 559)]",177.2804945387275,"[8, 3, 7, 9, 4, 5, 1, 6, 2]","(0, 0.25)",DOT010A,DOT,A,English,Thu Aug 30 11:27:05 2018,Mouse
1,3,1,0,6,9,9,1,588,348,240,149,0,500,200,8000,"[(960, 540), (960, 540), (960, 540), (960, 540), (960, 540), (960, 540), (960, 540), (960, 540), (960, 540), (960, 540), (960, 540), (960, 540), (960, 540), (960, 540), (960, 540), (960, 540), (960, 540), (960, 540), (960, 540), (960, 540), (960, 540), (960, 540), (960, 540), (960, 540), (960, 540), (960, 540), (960, 540), (960, 540), (960, 540), (960, 540), (960, 540), (960, 540), (960, 540), (960, 540), (958, 540), (957, 540), (955, 540), (953, 542), (949, 544), (947, 545), (944, 549), (941, 552), (932, 564), (927, 569), (921, 577), (916, 585), (905, 603), (899, 611), (893, 621), (886, 632), (862, 660), (848, 678), (834, 698), (811, 716), (758, 750), (734, 765), (704, 778), (683, 789), (646, 809)]",139.4137357270309,"[8, 3, 7, 9, 4, 5, 1, 6, 2]","(0, 0.25)",DOT010A,DOT,A,English,Thu Aug 30 11:27:05 2018,Mouse
1,3,1,0,7,2,2,1,809,489,320,148,0,500,200,8000,"[(960, 540), (960, 540), (960, 540), (960, 540), (960, 540), (960, 540), (960, 540), (960, 540), (960, 540), (960, 540), (960, 540), (960, 540), (960, 540), (960, 540), (960, 540), (960, 540), (960, 540), (960, 540), (960, 540), (960, 540), (960, 540), (960, 540), (960, 540), (960, 540), (960, 540), (960, 540), (960, 540), (960, 540), (960, 540), (960, 540), (960, 540), (960, 540), (960, 540), (960, 540), (960, 540), (960, 540), (960, 540), (960, 540), (960, 540), (960, 540), (960, 540), (960, 540), (960, 540), (960, 540), (960, 540), (960, 540), (960, 540), (960, 540), (960, 539), (960, 538), (974, 533), (983, 528), (990, 523), (998, 518), (1012, 508), (1019, 504), (1024, 500), (1028, 496), (1045, 487), (1053, 481), (1065, 476), (1076, 470), (1115, 456), (1138, 449), (1160, 443), (1182, 437), (1221, 425), (1241, 420), (1255, 415), (1266, 412), (1287, 405), (1293, 403), (1298, 402), (1302, 401), (1309, 399), (1311, 398), (1312, 398), (1316, 397), (1326, 393), (1329, 393), (1334, 391)]",338.2778742907835,"[8, 3, 7, 9, 4, 5, 1, 6, 2]","(0, 0.25)",DOT010A,DOT,A,English,Thu Aug 30 11:27:05 2018,Mouse
1,3,1,0,8,1,1,1,711,401,310,147,0,500,200,8000,"[(960, 540), (960, 540), (960, 540), (960, 540), (960, 540), (960, 540), (960, 540), (960, 540), (960, 540), (960, 540), (960, 540), (960, 540), (960, 540), (960, 540), (960, 540), (960, 540), (960, 540), (960, 540), (960, 540), (960, 540), (960, 540), (960, 540), (960, 540), (960, 540), (960, 540), (960, 540), (960, 540), (960, 540), (960, 540), (960, 540), (960, 540), (960, 540), (960, 540), (960, 540), (960, 540), (960, 540), (960, 540), (960, 540), (960, 540), (960, 540), (959, 540), (952, 537), (948, 537), (943, 534), (938, 532), (933, 525), (930, 519), (928, 515), (927, 508), (924, 495), (924, 486), (924, 479), (924, 469), (924, 442), (923, 427), (919, 407), (918, 392), (917, 362), (917, 347), (917, 335), (917, 321), (917, 294), (917, 279), (917, 266), (916, 251), (907, 218), (904, 207), (900, 196), (895, 184), (888, 163), (885, 153), (882, 145)]",258.8296088465614,"[8, 3, 7, 9, 4, 5, 1, 6, 2]","(0, 0.25)",DOT010A,DOT,A,English,Thu Aug 30 11:27:05 2018,Mouse
1,3,1,0,9,1,1,1,570,310,260,146,0,500,200,8000,"[(960, 540), (960, 540), (960, 540), (960, 540), (960, 540), (960, 540), (960, 540), (960, 540), (960, 540), (960, 540), (960, 540), (960, 540), (960, 540), (960, 540), (960, 540), (960, 540), (960, 540), (960, 540), (960, 540), (960, 540), (960, 540), (960, 540), (960, 540), (960, 540), (960, 540), (960, 540), (960, 540), (960, 540), (960, 540), (960, 540), (960, 537), (960, 528), (960, 516), (960, 505), (957, 496), (956, 487), (951, 463), (949, 449), (945, 432), (940, 415), (931, 381), (925, 362), (918, 339), (916, 325), (912, 296), (912, 285), (912, 273), (912, 262), (912, 240), (912, 229), (912, 218), (911, 207), (906, 181), (905, 170), (901, 157), (898, 146), (891, 124)]",260.5823528546657,"[8, 3, 7, 9, 4, 5, 1, 6, 2]","(0, 0.25)",DOT010A,DOT,A,English,Thu Aug 30 11:27:05 2018,Mouse
1,3,1,0,10,5,5,1,1280,940,340,145,0,500,200,8000,"[(960, 540), (960, 540), (960, 540), (960, 540), (960, 540), (960, 540), (960, 540), (960, 540), (960, 540), (960, 540), (960, 540), (960, 540), (960, 540), (960, 540), (960, 540), (960, 540), (960, 540), (960, 540), (960, 540), (960, 540), (960, 540), (960, 540), (960, 540), (960, 540), (960, 540), (960, 540), (960, 540), (960, 540), (960, 540), (960, 540), (960, 540), (960, 540), (960, 540), (960, 540), (960, 540), (960, 540), (960, 540), (960, 540), (960, 540), (960, 540), (960, 540), (960, 540), (960, 540), (960, 540), (960, 540), (960, 540), (960, 540), (960, 540), (960, 540), (960, 540), (960, 540), (960, 540), (960, 540), (960, 540), (960, 540), (960, 540), (960, 540), (960, 540), (960, 540), (960, 540), (960, 540), (960, 540), (960, 540), (960, 540), (960, 540), (960, 540), (960, 540), (960, 540), (960, 540), (960, 540), (960, 540), (960, 540), (960, 540), (960, 540), (960, 540), (960, 540), (960, 540), (960, 540), (960, 540), (960, 540), (960, 540), (960, 540), (960, 540), (960, 540), (960, 540), (960, 540), (960, 540), (960, 540), (960, 540), (960, 540), (960, 540), (960, 540), (960, 540), (958, 540), (948, 535), (942, 531), (933, 525), (924, 521), (911, 511), (903, 506), (895, 501), (887, 493), (873, 481), (865, 475), (859, 469), (854, 463), (844, 449), (839, 442), (832, 430), (824, 416), (807, 389), (799, 373), (792, 361), (784, 350), (776, 333), (772, 328), (768, 323), (765, 318), (759, 312), (757, 311), (752, 308), (745, 306), (724, 296), (712, 292), (700, 287), (684, 284), (661, 275), (650, 269)]",221.15974477936032,"[8, 3, 7, 9, 4, 5, 1, 6, 2]","(0, 0.25)",DOT010A,DOT,A,English,Thu Aug 30 11:27:05 2018,Mouse
1,3,1,0,11,6,6,1,859,529,330,144,0,500,200,8000,"[(960, 540), (960, 540), (960, 540), (960, 540), (960, 540), (960, 540), (960, 540), (960, 540), (960, 540), (960, 540), (960, 540), (960, 540), (960, 540), (960, 540), (960, 540), (960, 540), (960, 540), (960, 540), (960, 540), (960, 540), (960, 540), (960, 540), (960, 540), (960, 540), (960, 540), (960, 540), (960, 540), (960, 540), (960, 540), (960, 540), (960, 540), (960, 540), (960, 540), (960, 540), (960, 540), (960, 540), (960, 540), (960, 540), (960, 540), (960, 540), (960, 540), (960, 540), (960, 540), (960, 540), (960, 540), (960, 540), (960, 540), (960, 540), (960, 540), (960, 540), (960, 540), (960, 540), (960, 539), (960, 539), (960, 539), (960, 539), (960, 539), (960, 539), (960, 539), (960, 539), (960, 539), (960, 539), (960, 539), (960, 539), (960, 539), (960, 539), (960, 539), (961, 539), (963, 538), (969, 527), (970, 525), (975, 516), (981, 506), (991, 485), (995, 471), (1004, 450), (1011, 432), (1025, 382), (1032, 352), (1037, 333), (1045, 307), (1058, 252), (1067, 219), (1073, 192), (1076, 168), (1082, 121)]",286.2339463327383,"[8, 3, 7, 9, 4, 5, 1, 6, 2]","(0, 0.25)",DOT010A,DOT,A,English,Thu Aug 30 11:27:05 2018,Mouse
1,3,1,0,12,4,4,1,2591,1721,870,143,0,500,200,8000,"[(960, 540), (960, 540), (960, 540), (960, 540), (960, 540), (960, 540), (960, 540), (960, 540), (960, 540), (960, 540), (960, 540), (960, 540), (960, 540), (960, 540), (960, 540), (960, 540), (960, 540), (960, 540), (960, 540), (960, 540), (960, 540), (960, 540), (960, 540), (960, 540), (960, 540), (960, 540), (960, 540), (960, 540), (960, 540), (960, 540), (960, 540), (960, 540), (960, 540), (960, 540), (960, 540), (960, 540), (960, 540), (960, 540), (960, 540), (960, 540), (960, 540), (960, 540), (960, 540), (960, 540), (960, 540), (960, 540), (960, 540), (960, 540), (960, 540), (960, 540), (960, 540), (960, 540), (960, 540), (960, 540), (960, 540), (960, 540), (960, 540), (960, 540), (960, 540), (960, 540), (960, 540), (960, 540), (960, 540), (960, 540), (960, 540), (960, 540), (960, 540), (960, 540), (960, 540), (960, 540), (960, 540), (960, 540), (960, 540), (960, 540), (960, 540), (960, 540), (960, 540), (960, 540), (960, 540), (960, 540), (960, 540), (960, 540), (960, 540), (960, 540), (960, 540), (960, 540), (960, 540), (960, 540), (960, 540), (960, 540), (960, 540), (960, 540), (960, 540), (960, 540), (960, 540), (960, 540), (960, 540), (960, 540), (960, 540), (960, 540), (960, 540), (960, 540), (960, 540), (960, 540), (960, 540), (960, 540), (960, 540), (960, 540), (960, 540), (960, 540), (960, 540), (960, 540), (960, 540), (960, 540), (960, 540), (960, 540), (960, 540), (960, 540), (960, 540), (960, 540), (960, 540), (960, 540), (960, 540), (960, 540), (960, 540), (960, 540), (960, 540), (960, 540), (960, 540), (960, 540), (960, 540), (960, 540), (960, 540), (960, 540), (960, 540), (960, 540), (960, 540), (960, 540), (960, 540), (960, 540), (960, 540), (960, 540), (960, 540), (960, 540), (960, 540), (960, 540), (960, 540), (960, 540), (960, 540), (960, 540), (960, 540), (960, 540), (960, 540), (960, 540), (960, 540), (960, 540), (960, 540), (960, 540), (960, 540), (960, 540), (960, 540), (960, 540), (960, 540), (960, 540), (960, 540), (960, 540), (960, 540), (960, 540), (960, 540), (960, 540), (960, 540), (960, 540), (962, 540), (964, 541), (965, 542), (968, 544), (971, 547), (974, 548), (977, 549), (989, 555), (1000, 559), (1011, 562), (1028, 568), (1066, 578), (1091, 586), (1114, 592), (1133, 598), (1162, 607), (1171, 610), (1178, 614), (1180, 615), (1182, 616), (1182, 616), (1182, 616), (1182, 616), (1182, 616), (1182, 616), (1182, 616), (1182, 616), (1182, 616), (1182, 616), (1182, 616), (1182, 616), (1182, 616), (1182, 616), (1182, 616), (1182, 616), (1182, 616), (1182, 616), (1181, 616), (1180, 616), (1177, 615), (1176, 615), (1174, 615), (1173, 614), (1170, 613), (1169, 613), (1169, 613), (1169, 613), (1168, 613), (1168, 613), (1167, 613), (1167, 613), (1167, 613), (1167, 613), (1166, 612), (1166, 612), (1166, 612), (1165, 612), (1164, 612), (1163, 611), (1161, 611), (1160, 610), (1160, 610), (1158, 610), (1150, 610), (1146, 610), (1144, 610), (1138, 610), (1129, 610), (1124, 610), (1118, 610), (1111, 610), (1099, 610), (1091, 610), (1082, 610), (1072, 610), (1046, 610), (1031, 610), (1014, 610), (992, 610), (936, 610), (906, 610), (864, 610), (828, 610), (753, 610), (719, 610), (678, 610), (636, 610), (542, 610)]",170.49322801073433,"[8, 3, 7, 9, 4, 5, 1, 6, 2]","(0, 0.25)",DOT010A,DOT,A,English,Thu Aug 30 11:27:05 2018,Mouse
1,3,1,0,13,8,8,1,641,511,130,142,0,500,200,8000,"[(960, 540), (960, 540), (960, 540), (960, 540), (960, 540), (960, 540), (960, 540), (960, 540), (960, 540), (960, 540), (960, 540), (960, 540), (960, 540), (960, 540), (960, 540), (960, 540), (960, 540), (960, 540), (960, 540), (960, 540), (960, 540), (960, 540), (960, 540), (960, 540), (960, 540), (960, 540), (960, 540), (960, 540), (960, 540), (960, 540), (960, 540), (960, 540), (960, 540), (960, 540), (960, 540), (960, 540), (960, 540), (960, 540), (960, 540), (960, 540), (960, 540), (960, 540), (960, 540), (960, 540), (960, 540), (960, 540), (960, 540), (960, 540), (960, 540), (960, 540), (960, 540), (962, 540), (966, 540), (970, 540), (976, 540), (992, 540), (1003, 543), (1014, 544), (1032, 546), (1079, 560), (1118, 571), (1165, 585), (1213, 599), (1320, 629), (1382, 648)]",14.355258988153373,"[8, 3, 7, 9, 4, 5, 1, 6, 2]","(0, 0.25)",DOT010A,DOT,A,English,Thu Aug 30 11:27:05 2018,Mouse
1,3,1,0,14,8,8,1,860,420,440,141,0,500,200,8000,"[(960, 540), (960, 540), (960, 540), (960, 540), (960, 540), (960, 540), (960, 540), (960, 540), (960, 540), (960, 540), (960, 540), (960, 540), (960, 540), (960, 540), (960, 540), (960, 540), (960, 540), (960, 540), (960, 540), (960, 540), (960, 540), (960, 540), (960, 540), (960, 540), (960, 540), (960, 540), (960, 540), (960, 540), (960, 540), (960, 540), (960, 540), (960, 540), (960, 540), (960, 540), (960, 540), (960, 540), (960, 540), (960, 540), (960, 540), (960, 540), (960, 540), (961, 541), (969, 543), (980, 546), (992, 549), (1029, 562), (1054, 568), (1082, 578), (1107, 583), (1162, 595), (1186, 600), (1198, 603), (1214, 608), (1235, 615), (1243, 616), (1252, 619), (1262, 622), (1282, 629), (1292, 631), (1303, 635), (1309, 636), (1325, 641), (1329, 642), (1334, 643), (1336, 644), (1336, 644), (1336, 644), (1336, 644), (1336, 644), (1336, 644), (1336, 644), (1336, 644), (1336, 644), (1336, 644), (1336, 644), (1336, 644), (1336, 644), (1336, 644), (1336, 644), (1336, 644), (1336, 644), (1336, 644), (1336, 644), (1336, 644), (1337, 644), (1351, 648)]",15.440942201295757,"[8, 3, 7, 9, 4, 5, 1, 6, 2]","(0, 0.25)",DOT010A,DOT,A,English,Thu Aug 30 11:27:05 2018,Mouse
1,3,1,0,15,2,2,1,580,330,250,140,0,500,200,8000,"[(960, 540), (960, 540), (960, 540), (960, 540), (960, 540), (960, 540), (960, 540), (960, 540), (960, 540), (960, 540), (960, 540), (960, 540), (960, 540), (960, 540), (960, 540), (960, 540), (960, 540), (960, 540), (960, 540), (960, 540), (960, 540), (960, 540), (960, 540), (960, 540), (960, 540), (960, 540), (960, 540), (960, 540), (960, 540), (960, 540), (960, 540), (960, 540), (962, 539), (963, 537), (967, 532), (971, 528), (975, 523), (977, 521), (984, 514), (989, 507), (994, 502), (1000, 498), (1015, 486), (1024, 480), (1037, 473), (1048, 466), (1074, 453), (1085, 447), (1103, 438), (1119, 427), (1156, 410), (1173, 403), (1186, 399), (1204, 393), (1256, 390), (1289, 390), (1325, 390), (1356, 390)]",339.2539197243166,"[8, 3, 7, 9, 4, 5, 1, 6, 2]","(0, 0.25)",DOT010A,DOT,A,English,Thu Aug 30 11:27:05 2018,Mouse
1,3,1,0,16,1,1,1,510,160,350,139,0,500,200,8000,"[(960, 540), (960, 540), (960, 540), (960, 540), (960, 540), (960, 540), (960, 540), (960, 540), (960, 540), (960, 540), (960, 540), (960, 540), (960, 540), (960, 540), (960, 540), (959, 540), (959, 540), (959, 540), (959, 540), (958, 540), (958, 540), (957, 540), (956, 540), (955, 539), (952, 539), (951, 538), (946, 537), (940, 535), (932, 530), (922, 523), (909, 513), (882, 493), (869, 480), (860, 469), (853, 458), (836, 429), (830, 414), (827, 402), (822, 388), (816, 361), (816, 346), (816, 330), (819, 308), (828, 267), (833, 253), (836, 239), (841, 225), (852, 188), (854, 176), (861, 154), (868, 133)]",257.2626824462716,"[8, 3, 7, 9, 4, 5, 1, 6, 2]","(0, 0.25)",DOT010A,DOT,A,English,Thu Aug 30 11:27:05 2018,Mouse
1,3,1,0,17,8,8,1,1490,1340,150,138,0,500,200,8000,"[(960, 540), (960, 540), (960, 540), (960, 540), (960, 540), (960, 540), (960, 540), (960, 540), (960, 540), (960, 540), (960, 540), (960, 540), (960, 540), (960, 540), (960, 540), (960, 540), (960, 540), (960, 540), (960, 540), (960, 540), (960, 540), (960, 540), (960, 540), (960, 540), (960, 540), (960, 540), (960, 540), (960, 540), (960, 540), (960, 540), (960, 540), (960, 540), (960, 540), (960, 540), (960, 540), (960, 540), (960, 540), (960, 540), (960, 540), (960, 540), (960, 540), (960, 540), (960, 540), (960, 540), (960, 540), (960, 540), (960, 540), (960, 540), (960, 540), (960, 540), (960, 540), (960, 540), (960, 540), (960, 540), (960, 540), (960, 540), (960, 540), (960, 540), (960, 540), (960, 540), (960, 540), (960, 540), (960, 540), (960, 540), (960, 540), (960, 540), (960, 540), (960, 540), (960, 540), (960, 540), (960, 540), (960, 540), (960, 540), (960, 540), (960, 540), (960, 540), (960, 540), (960, 540), (960, 540), (960, 540), (960, 540), (960, 540), (960, 540), (960, 540), (960, 540), (960, 540), (960, 540), (960, 540), (960, 540), (960, 540), (960, 540), (960, 540), (960, 540), (960, 540), (960, 540), (960, 540), (960, 540), (960, 540), (960, 540), (960, 540), (960, 540), (960, 540), (960, 540), (960, 540), (960, 540), (960, 540), (960, 540), (960, 540), (960, 540), (960, 540), (960, 540), (960, 540), (960, 540), (960, 540), (960, 540), (960, 540), (960, 540), (960, 540), (960, 540), (960, 540), (960, 540), (960, 540), (960, 540), (960, 540), (960, 540), (960, 540), (960, 540), (960, 540), (960, 540), (960, 540), (960, 540), (960, 540), (960, 540), (961, 541), (963, 542), (973, 545), (984, 548), (1000, 553), (1018, 560), (1071, 576), (1105, 587), (1149, 598), (1185, 607), (1248, 624), (1275, 629), (1293, 630), (1311, 633), (1340, 635), (1353, 635)]",13.589434808777064,"[8, 3, 7, 9, 4, 5, 1, 6, 2]","(0, 0.25)",DOT010A,DOT,A,English,Thu Aug 30 11:27:05 2018,Mouse
1,3,1,0,18,7,7,1,1351,111,1240,137,0,500,200,8000,"[(960, 540), (960, 540), (960, 540), (960, 540), (960, 540), (960, 540), (960, 540), (960, 540), (960, 540), (960, 540), (960, 540), (959, 540), (958, 539), (958, 539), (957, 539), (957, 539), (956, 538), (956, 538), (956, 538), (956, 538), (956, 538), (956, 538), (956, 538), (956, 538), (956, 538), (956, 538), (956, 538), (956, 538), (956, 538), (956, 538), (956, 538), (956, 538), (956, 538), (956, 538), (956, 538), (956, 538), (956, 538), (956, 538), (956, 538), (956, 538), (956, 538), (956, 538), (956, 538), (956, 538), (956, 538), (956, 538), (956, 538), (956, 538), (956, 538), (956, 538), (956, 538), (956, 538), (956, 538), (956, 538), (956, 538), (956, 538), (956, 538), (956, 538), (956, 538), (956, 538), (956, 538), (956, 538), (956, 538), (956, 538), (956, 538), (956, 538), (956, 538), (956, 538), (956, 538), (956, 538), (956, 538), (956, 538), (956, 538), (956, 538), (956, 538), (956, 538), (956, 538), (956, 538), (956, 538), (956, 538), (956, 538), (956, 538), (956, 538), (956, 538), (956, 538), (956, 538), (956, 538), (956, 538), (956, 538), (956, 538), (956, 538), (956, 538), (956, 538), (956, 538), (956, 538), (956, 538), (956, 538), (956, 538), (956, 538), (956, 538), (956, 538), (956, 538), (956, 538), (956, 538), (956, 538), (956, 538), (956, 538), (956, 538), (956, 538), (956, 538), (956, 549), (956, 558), (956, 570), (956, 582), (956, 608), (956, 620), (956, 631), (956, 646), (956, 670), (956, 682), (956, 699), (956, 711), (956, 740), (956, 753), (956, 767), (954, 782), (949, 815), (948, 832), (944, 845), (940, 857), (932, 881), (926, 893), (924, 900), (918, 911), (909, 931), (907, 941)]",97.52911971530806,"[8, 3, 7, 9, 4, 5, 1, 6, 2]","(0, 0.25)",DOT010A,DOT,A,English,Thu Aug 30 11:27:05 2018,Mouse
1,3,1,0,19,5,5,1,920,430,490,136,0,500,200,8000,"[(960, 540), (960, 540), (960, 540), (960, 540), (960, 540), (960, 540), (960, 540), (960, 540), (960, 540), (960, 540), (960, 540), (960, 540), (960, 540), (960, 540), (960, 540), (960, 540), (960, 540), (960, 540), (960, 540), (960, 540), (960, 540), (960, 540), (960, 540), (960, 540), (960, 540), (960, 540), (960, 540), (960, 540), (960, 540), (960, 540), (960, 540), (960, 540), (960, 540), (960, 540), (960, 540), (960, 540), (960, 540), (960, 540), (960, 540), (960, 540), (960, 540), (960, 540), (959, 540), (959, 540), (959, 540), (957, 540), (956, 540), (956, 540), (954, 540), (953, 540), (953, 540), (953, 540), (952, 540), (952, 540), (952, 540), (952, 540), (952, 540), (951, 540), (951, 540), (951, 540), (950, 540), (949, 539), (949, 539), (949, 539), (949, 539), (948, 539), (948, 539), (948, 539), (948, 539), (948, 539), (947, 539), (946, 539), (946, 538), (943, 537), (942, 535), (939, 532), (935, 527), (924, 510), (916, 498), (909, 487), (896, 472), (865, 443), (843, 426), (812, 405), (786, 386), (731, 352), (710, 339), (690, 327), (676, 319), (656, 305), (650, 301), (642, 296)]",217.49886796283377,"[8, 3, 7, 9, 4, 5, 1, 6, 2]","(0, 0.25)",DOT010A,DOT,A,English,Thu Aug 30 11:27:05 2018,Mouse
1,3,1,0,20,9,5,0,-561,451,110,135,0,500,200,8000,"[(960, 540), (960, 540), (960, 540), (960, 540), (960, 540), (960, 540), (960, 540), (960, 540), (960, 540), (960, 540), (960, 540), (960, 540), (960, 540), (960, 540), (960, 540), (960, 540), (960, 540), (960, 540), (960, 540), (960, 540), (960, 540), (960, 540), (960, 540), (960, 540), (960, 540), (960, 540), (960, 540), (960, 540), (960, 540), (960, 540), (960, 540), (960, 540), (960, 540), (960, 540), (960, 540), (960, 540), (960, 540), (960, 540), (960, 540), (960, 540), (960, 540), (960, 540), (960, 540), (960, 540), (960, 540), (956, 535), (947, 526), (937, 517), (919, 502), (869, 459), (841, 436), (815, 413), (778, 386), (713, 336), (682, 310), (658, 290), (641, 277)]",219.50392375485325,"[8, 3, 7, 9, 4, 5, 1, 6, 2]","(0, 0.25)",DOT010A,DOT,A,English,Thu Aug 30 11:27:05 2018,Mouse
1,3,1,0,21,3,3,1,1499,410,1089,136,0,500,200,8000,"[(960, 540), (960, 540), (960, 540), (960, 540), (960, 540), (960, 540), (960, 540), (960, 540), (960, 540), (960, 540), (960, 540), (960, 540), (960, 540), (960, 540), (960, 540), (960, 540), (960, 540), (960, 540), (960, 540), (960, 540), (960, 540), (960, 540), (960, 540), (960, 540), (960, 540), (960, 540), (960, 540), (960, 540), (960, 540), (960, 540), (960, 540), (960, 540), (960, 540), (960, 540), (960, 540), (960, 540), (960, 540), (960, 540), (960, 540), (960, 540), (961, 541), (961, 541), (961, 541), (961, 541), (961, 541), (961, 541), (961, 541), (961, 541), (961, 541), (961, 541), (961, 541), (961, 541), (961, 541), (961, 541), (961, 541), (961, 541), (961, 541), (961, 541), (961, 541), (961, 541), (961, 541), (964, 541), (971, 541), (993, 531), (1007, 527), (1022, 520), (1039, 515), (1064, 509), (1074, 507), (1081, 505), (1087, 503), (1091, 502), (1092, 502), (1092, 501), (1093, 501), (1093, 501), (1093, 501), (1093, 501), (1093, 501), (1093, 501), (1093, 501), (1093, 501), (1093, 501), (1093, 501), (1093, 501), (1093, 501), (1093, 501), (1093, 501), (1093, 501), (1093, 501), (1093, 501), (1093, 501), (1093, 501), (1093, 501), (1093, 501), (1093, 501), (1093, 501), (1093, 501), (1093, 501), (1093, 503), (1093, 503), (1092, 504), (1092, 504), (1091, 506), (1091, 506), (1090, 509), (1089, 510), (1088, 510), (1088, 512), (1088, 512), (1088, 513), (1087, 514), (1087, 514), (1087, 514), (1087, 515), (1087, 516), (1087, 516), (1087, 516), (1087, 517), (1087, 518), (1087, 519), (1086, 519), (1086, 519), (1086, 520), (1086, 521), (1086, 522), (1086, 523), (1086, 525), (1086, 527), (1086, 528), (1086, 529), (1086, 532), (1086, 533), (1087, 535), (1087, 537), (1089, 539), (1089, 540), (1089, 542), (1089, 544), (1093, 550), (1096, 559), (1100, 567), (1105, 577), (1117, 605), (1127, 631), (1141, 663), (1155, 695), (1200, 782), (1221, 820), (1245, 851)]",47.49789656246924,"[8, 3, 7, 9, 4, 5, 1, 6, 2]","(0, 0.25)",DOT010A,DOT,A,English,Thu Aug 30 11:27:05 2018,Mouse
1,3,1,0,22,7,7,1,991,761,230,136,0,500,200,8000,"[(960, 540), (960, 540), (960, 540), (960, 540), (960, 540), (960, 540), (960, 540), (960, 540), (960, 540), (960, 540), (960, 540), (960, 540), (960, 540), (960, 540), (960, 540), (960, 540), (960, 540), (960, 540), (960, 540), (960, 540), (960, 540), (960, 540), (960, 540), (960, 540), (960, 540), (960, 540), (960, 540), (960, 540), (960, 540), (960, 540), (960, 540), (960, 540), (960, 540), (960, 540), (960, 540), (960, 540), (960, 540), (960, 540), (960, 540), (960, 540), (960, 540), (960, 540), (960, 540), (960, 540), (960, 540), (960, 540), (960, 540), (960, 540), (960, 540), (960, 540), (960, 540), (960, 540), (960, 540), (960, 540), (960, 540), (960, 540), (960, 540), (960, 540), (960, 540), (960, 540), (960, 540), (960, 540), (960, 540), (960, 540), (960, 540), (960, 540), (960, 540), (960, 540), (960, 540), (960, 540), (960, 540), (960, 540), (960, 540), (960, 540), (960, 540), (960, 540), (959, 539), (957, 540), (956, 541), (955, 542), (953, 544), (951, 547), (949, 550), (948, 552), (947, 556), (943, 565), (939, 572), (935, 582), (933, 593), (923, 626), (920, 647), (914, 672), (907, 692), (895, 751), (888, 787), (887, 810), (882, 834), (881, 882), (885, 920), (897, 967)]",98.3929251873925,"[8, 3, 7, 9, 4, 5, 1, 6, 2]","(0, 0.25)",DOT010A,DOT,A,English,Thu Aug 30 11:27:05 2018,Mouse
1,3,1,0,23,3,3,1,2099,1149,950,135,0,500,200,8000,"[(960, 540), (960, 540), (960, 540), (960, 540), (960, 540), (960, 540), (960, 540), (960, 540), (960, 540), (960, 540), (960, 540), (960, 540), (960, 540), (960, 540), (960, 540), (960, 540), (960, 540), (960, 540), (960, 540), (960, 540), (960, 540), (960, 540), (960, 540), (960, 540), (960, 540), (960, 540), (960, 540), (960, 540), (960, 540), (960, 540), (960, 540), (960, 540), (960, 540), (960, 540), (960, 540), (960, 540), (960, 540), (960, 540), (960, 540), (960, 540), (960, 540), (960, 540), (960, 540), (960, 540), (960, 540), (960, 540), (960, 540), (960, 540), (960, 540), (960, 540), (960, 540), (960, 540), (960, 540), (960, 540), (960, 540), (960, 540), (960, 540), (960, 540), (960, 540), (960, 540), (960, 540), (960, 540), (960, 540), (960, 540), (960, 540), (960, 540), (960, 540), (960, 540), (960, 540), (960, 540), (960, 540), (960, 540), (960, 540), (960, 540), (960, 540), (960, 540), (960, 540), (960, 540), (960, 540), (960, 540), (960, 540), (960, 540), (960, 540), (960, 540), (960, 540), (960, 540), (960, 540), (960, 540), (960, 540), (960, 540), (960, 540), (960, 540), (960, 540), (960, 540), (960, 540), (960, 540), (960, 540), (960, 540), (960, 540), (960, 540), (960, 540), (960, 540), (960, 540), (960, 540), (960, 540), (960, 540), (960, 540), (960, 540), (960, 540), (960, 540), (960, 540), (960, 540), (960, 540), (960, 540), (958, 540), (956, 540), (953, 540), (953, 540), (953, 540), (952, 540), (950, 540), (950, 540), (949, 540), (948, 540), (947, 540), (947, 540), (947, 540), (947, 540), (945, 540), (944, 540), (944, 540), (944, 540), (942, 540), (941, 540), (941, 540), (941, 540), (940, 540), (938, 540), (938, 540), (938, 540), (938, 540), (938, 540), (938, 540), (938, 540), (938, 540), (936, 541), (936, 541), (936, 541), (935, 541), (935, 541), (935, 541), (934, 542), (934, 542), (933, 542), (933, 542), (932, 542), (932, 542), (931, 542), (930, 543), (930, 543), (928, 544), (928, 544), (927, 545), (926, 545), (926, 545), (926, 545), (926, 545), (926, 545), (926, 545), (926, 545), (926, 545), (926, 545), (925, 546), (925, 547), (925, 547), (925, 547), (925, 549), (925, 550), (925, 551), (925, 553), (926, 557), (926, 558), (927, 562), (930, 566), (934, 574), (935, 578), (938, 583), (939, 586), (943, 595), (946, 602), (950, 609), (955, 619), (970, 644), (987, 662), (1005, 685), (1019, 705), (1047, 746), (1057, 765), (1065, 777), (1072, 787), (1085, 805), (1088, 809), (1093, 817), (1097, 824), (1108, 842), (1114, 852), (1119, 861), (1125, 871), (1135, 892), (1141, 900)]",63.307766391382486,"[8, 3, 7, 9, 4, 5, 1, 6, 2]","(0, 0.25)",DOT010A,DOT,A,English,Thu Aug 30 11:27:05 2018,Mouse
1,3,1,0,24,5,5,1,1201,511,690,134,0,500,200,8000,"[(960, 540), (960, 540), (960, 540), (960, 540), (960, 540), (960, 540), (960, 540), (960, 540), (960, 540), (960, 540), (960, 540), (960, 540), (960, 540), (960, 540), (960, 540), (960, 540), (960, 540), (960, 540), (960, 540), (960, 540), (960, 540), (960, 540), (960, 540), (960, 540), (960, 540), (960, 540), (960, 540), (960, 540), (960, 540), (960, 540), (960, 540), (960, 540), (960, 540), (960, 540), (960, 540), (960, 540), (960, 540), (960, 540), (960, 540), (960, 540), (960, 540), (960, 540), (960, 540), (960, 540), (960, 540), (960, 540), (960, 540), (960, 540), (960, 540), (960, 540), (960, 540), (960, 539), (960, 539), (959, 539), (957, 539), (957, 539), (956, 539), (956, 539), (954, 539), (954, 539), (954, 539), (954, 539), (953, 539), (953, 539), (951, 539), (951, 539), (950, 538), (950, 538), (949, 538), (948, 538), (947, 537), (946, 536), (946, 536), (945, 535), (944, 535), (944, 535), (944, 535), (944, 535), (943, 534), (942, 534), (941, 533), (941, 533), (940, 532), (939, 532), (937, 532), (937, 532), (935, 531), (935, 531), (934, 531), (933, 530), (931, 529), (930, 528), (930, 528), (930, 528), (927, 528), (927, 528), (927, 528), (925, 526), (924, 526), (922, 526), (921, 525), (919, 524), (914, 521), (909, 519), (904, 516), (898, 512), (876, 499), (862, 488), (851, 480), (837, 471), (810, 451), (787, 437), (768, 423), (748, 411), (711, 383), (696, 369), (682, 356), (672, 345), (654, 318), (645, 305), (634, 288)]",217.7042432213908,"[8, 3, 7, 9, 4, 5, 1, 6, 2]","(0, 0.25)",DOT010A,DOT,A,English,Thu Aug 30 11:27:05 2018,Mouse
1,3,1,0,25,1,5,0,-2240,1350,890,133,0,500,200,8000,"[(960, 540), (960, 540), (960, 540), (960, 540), (960, 540), (960, 540), (960, 540), (960, 540), (960, 540), (960, 540), (960, 540), (960, 540), (960, 540), (960, 540), (960, 540), (960, 540), (960, 540), (960, 540), (960, 540), (960, 540), (960, 540), (960, 540), (960, 540), (960, 540), (960, 540), (960, 540), (960, 540), (960, 540), (960, 540), (960, 540), (960, 540), (960, 540), (960, 540), (960, 540), (960, 540), (960, 540), (960, 540), (960, 540), (960, 540), (960, 540), (960, 540), (960, 540), (960, 540), (960, 540), (960, 540), (960, 540), (960, 540), (960, 540), (960, 540), (960, 540), (960, 540), (960, 540), (960, 540), (960, 540), (960, 540), (960, 540), (960, 540), (960, 540), (960, 540), (960, 540), (960, 540), (960, 540), (960, 540), (960, 540), (960, 540), (960, 540), (960, 540), (960, 540), (960, 540), (960, 540), (960, 540), (960, 540), (960, 540), (960, 540), (960, 540), (960, 540), (960, 540), (960, 540), (960, 540), (960, 540), (960, 540), (960, 540), (960, 540), (960, 540), (960, 540), (960, 540), (960, 540), (960, 540), (960, 540), (960, 540), (960, 540), (960, 540), (960, 540), (960, 540), (960, 540), (960, 540), (960, 540), (960, 540), (960, 540), (960, 540), (960, 540), (960, 540), (960, 540), (960, 540), (960, 540), (960, 540), (960, 540), (960, 540), (960, 540), (960, 540), (960, 540), (960, 540), (960, 540), (960, 540), (960, 540), (960, 540), (960, 540), (960, 540), (960, 540), (960, 540), (960, 540), (960, 540), (960, 540), (960, 540), (960, 540), (960, 540), (960, 540), (960, 540), (960, 540), (960, 540), (960, 540), (960, 540), (960, 540), (960, 540), (960, 539), (960, 536), (960, 530), (958, 528), (958, 527), (958, 524), (957, 521), (955, 519), (954, 515), (953, 515), (952, 512), (951, 512), (951, 512), (951, 511), (950, 510), (950, 510), (949, 509), (949, 509), (949, 509), (949, 508), (947, 506), (947, 506), (947, 505), (947, 503), (947, 503), (946, 502), (944, 498), (944, 498), (943, 496), (943, 495), (942, 491), (940, 490), (940, 489), (939, 485), (936, 476), (935, 474), (933, 468), (931, 463), (927, 451), (926, 444), (923, 436), (922, 432), (918, 419), (916, 413), (915, 410), (912, 405), (910, 400), (909, 396), (907, 394), (907, 392), (904, 387), (904, 385), (904, 385), (904, 385), (903, 383), (902, 383), (902, 383), (902, 383), (900, 383), (899, 383), (898, 381), (897, 381), (891, 381), (890, 381), (884, 381), (878, 380), (862, 375), (858, 375), (851, 373), (846, 371), (831, 364), (827, 361), (822, 359), (816, 356), (804, 348), (796, 344), (788, 340), (782, 338), (767, 328), (761, 325), (753, 320), (746, 314), (732, 306), (722, 299), (713, 293), (704, 285), (688, 272), (682, 264), (677, 258), (672, 253)]",224.9003552665251,"[8, 3, 7, 9, 4, 5, 1, 6, 2]","(0, 0.25)",DOT010A,DOT,A,English,Thu Aug 30 11:27:05 2018,Mouse
1,3,1,0,26,4,1,0,-2560,2400,160,134,0,500,200,8000,"[(960, 540), (960, 540), (960, 540), (960, 540), (960, 540), (960, 540), (960, 540), (960, 540), (960, 540), (960, 540), (960, 540), (960, 540), (960, 540), (960, 540), (960, 540), (960, 540), (960, 540), (960, 540), (960, 540), (960, 540), (960, 540), (960, 540), (960, 540), (960, 540), (960, 540), (960, 540), (960, 540), (960, 540), (960, 540), (960, 540), (960, 540), (960, 540), (960, 540), (960, 540), (960, 540), (960, 540), (960, 540), (960, 540), (960, 540), (960, 540), (960, 540), (960, 540), (960, 540), (960, 540), (960, 540), (960, 540), (960, 540), (960, 540), (960, 540), (960, 540), (960, 540), (960, 540), (960, 540), (960, 540), (960, 540), (960, 540), (960, 540), (960, 540), (960, 540), (960, 540), (960, 540), (960, 540), (960, 540), (960, 540), (960, 540), (960, 540), (960, 540), (960, 540), (960, 540), (960, 540), (960, 540), (960, 540), (960, 540), (960, 540), (960, 540), (960, 540), (960, 540), (960, 540), (960, 540), (960, 540), (960, 540), (960, 540), (960, 540), (960, 540), (960, 540), (960, 540), (960, 540), (960, 540), (960, 540), (960, 540), (960, 540), (960, 540), (960, 540), (960, 540), (960, 540), (960, 540), (960, 540), (960, 540), (960, 540), (960, 540), (960, 540), (960, 540), (960, 540), (960, 540), (960, 540), (960, 540), (960, 540), (960, 540), (960, 540), (960, 540), (960, 540), (960, 540), (960, 540), (960, 540), (960, 540), (960, 540), (960, 540), (960, 540), (960, 540), (960, 540), (960, 540), (960, 540), (960, 540), (960, 540), (960, 540), (960, 540), (960, 540), (960, 540), (960, 540), (960, 540), (960, 540), (960, 540), (960, 540), (960, 540), (960, 540), (960, 540), (960, 540), (960, 540), (960, 540), (960, 540), (960, 540), (960, 540), (960, 540), (960, 540), (960, 540), (960, 540), (960, 540), (960, 540), (960, 540), (960, 540), (960, 540), (960, 540), (960, 540), (960, 540), (960, 540), (960, 540), (960, 540), (960, 540), (960, 540), (960, 540), (960, 540), (960, 540), (960, 540), (960, 540), (960, 540), (960, 540), (960, 540), (960, 540), (960, 540), (960, 540), (960, 540), (960, 540), (960, 540), (960, 540), (960, 540), (960, 540), (960, 540), (960, 540), (960, 540), (960, 540), (960, 540), (960, 540), (960, 540), (960, 540), (960, 540), (960, 540), (960, 540), (960, 540), (960, 540), (960, 540), (960, 540), (960, 540), (960, 540), (960, 540), (960, 540), (960, 540), (960, 540), (960, 540), (960, 540), (960, 540), (960, 540), (960, 540), (960, 540), (960, 540), (960, 540), (960, 540), (960, 540), (960, 540), (960, 540), (960, 540), (960, 540), (960, 540), (960, 540), (960, 540), (960, 540), (960, 540), (960, 540), (960, 540), (960, 540), (960, 540), (960, 540), (960, 540), (960, 540), (960, 540), (960, 540), (960, 540), (960, 540), (960, 540), (960, 540), (960, 540), (960, 540), (960, 540), (960, 540), (960, 540), (960, 540), (960, 540), (960, 540), (960, 540), (960, 540), (960, 531), (960, 516), (957, 496), (953, 472), (945, 419), (942, 387), (933, 357), (927, 332), (915, 290), (913, 274), (911, 257), (907, 238), (905, 209), (905, 197), (905, 180), (905, 161), (905, 121)]",262.5218295176737,"[8, 3, 7, 9, 4, 5, 1, 6, 2]","(0, 0.25)",DOT010A,DOT,A,English,Thu Aug 30 11:27:05 2018,Mouse
1,3,1,0,27,3,4,0,-3202,1551,1651,135,0,500,200,8000,"[(960, 540), (960, 540), (960, 540), (960, 540), (960, 540), (960, 540), (960, 540), (960, 540), (960, 540), (960, 540), (960, 540), (960, 540), (960, 540), (960, 540), (960, 540), (960, 540), (960, 540), (960, 540), (960, 540), (960, 540), (960, 540), (960, 540), (960, 540), (960, 540), (960, 540), (960, 540), (960, 540), (960, 540), (960, 540), (960, 540), (960, 540), (960, 540), (960, 540), (960, 540), (960, 540), (960, 540), (960, 540), (960, 540), (960, 540), (960, 540), (960, 540), (960, 540), (960, 540), (960, 540), (960, 540), (960, 540), (960, 540), (960, 540), (960, 540), (960, 540), (960, 540), (960, 540), (960, 540), (960, 540), (960, 540), (960, 540), (960, 540), (960, 540), (960, 540), (960, 540), (960, 540), (960, 540), (960, 540), (960, 540), (960, 540), (960, 540), (960, 540), (960, 540), (960, 540), (960, 540), (960, 540), (960, 540), (960, 540), (960, 540), (960, 540), (960, 540), (960, 540), (960, 540), (960, 540), (960, 540), (960, 540), (960, 540), (960, 540), (960, 540), (960, 540), (960, 540), (960, 540), (960, 540), (960, 540), (960, 540), (960, 540), (960, 540), (960, 540), (960, 540), (960, 540), (960, 540), (960, 540), (960, 540), (960, 540), (960, 540), (960, 540), (960, 540), (960, 540), (960, 540), (960, 540), (960, 540), (960, 540), (960, 540), (960, 540), (960, 540), (960, 540), (960, 540), (960, 540), (960, 540), (960, 540), (960, 540), (960, 540), (960, 540), (960, 540), (960, 540), (960, 540), (960, 540), (960, 540), (960, 540), (960, 540), (960, 540), (960, 540), (960, 540), (960, 540), (960, 540), (960, 540), (960, 540), (960, 540), (960, 540), (960, 540), (960, 540), (960, 540), (960, 540), (960, 540), (960, 540), (960, 540), (960, 540), (960, 540), (960, 540), (960, 540), (960, 540), (960, 540), (960, 540), (960, 540), (960, 540), (960, 540), (960, 540), (960, 540), (960, 540), (960, 540), (960, 541), (960, 541), (960, 541), (960, 541), (960, 541), (959, 542), (959, 542), (959, 542), (959, 542), (959, 542), (959, 542), (959, 542), (958, 542), (958, 542), (958, 542), (958, 542), (958, 542), (958, 542), (958, 542), (957, 542), (957, 542), (957, 542), (957, 542), (957, 542), (957, 542), (957, 543), (957, 543), (957, 543), (957, 543), (957, 543), (957, 543), (957, 543), (957, 543), (957, 544), (957, 544), (957, 544), (957, 546), (957, 546), (956, 546), (956, 546), (956, 547), (956, 547), (956, 547), (956, 547), (956, 547), (956, 547), (956, 547), (956, 547), (956, 547), (956, 547), (956, 547), (956, 547), (956, 547), (956, 547), (956, 547), (956, 547), (956, 547), (956, 547), (956, 547), (956, 547), (956, 547), (956, 547), (956, 547), (956, 549), (956, 549), (956, 549), (956, 549), (956, 549), (956, 549), (956, 549), (956, 549), (956, 549), (955, 549), (955, 549), (955, 549), (955, 549), (955, 549), (955, 549), (955, 549), (955, 549), (955, 549), (955, 549), (955, 549), (955, 549), (955, 549), (955, 549), (955, 549), (955, 549), (955, 549), (955, 549), (955, 549), (955, 549), (955, 549), (955, 549), (955, 549), (955, 549), (955, 549), (955, 549), (955, 549), (955, 549), (955, 549), (955, 549), (955, 549), (955, 549), (955, 549), (955, 549), (955, 549), (955, 549), (955, 549), (955, 549), (955, 550), (955, 550), (955, 550), (955, 550), (955, 550), (955, 550), (955, 550), (955, 550), (955, 550), (955, 550), (955, 550), (955, 550), (955, 550), (955, 550), (955, 550), (955, 550), (955, 550), (955, 550), (955, 550), (955, 550), (955, 550), (955, 550), (955, 550), (955, 550), (955, 550), (954, 551), (953, 551), (951, 551), (951, 551), (951, 551), (951, 551), (951, 551), (950, 551), (950, 551), (948, 551), (948, 551), (947, 551), (947, 551), (939, 553), (930, 553), (923, 553), (914, 553), (888, 553), (873, 553), (853, 553), (827, 553), (777, 553), (752, 553), (732, 553), (710, 553), (662, 553), (637, 553), (618, 553), (603, 553), (572, 555), (560, 556)]",177.70938995736148,"[8, 3, 7, 9, 4, 5, 1, 6, 2]","(0, 0.25)",DOT010A,DOT,A,English,Thu Aug 30 11:27:05 2018,Mouse
1,3,1,0,28,1,7,0,-2261,1201,1060,136,0,500,200,8000,"[(960, 540), (960, 540), (960, 540), (960, 540), (960, 540), (960, 540), (960, 540), (960, 540), (960, 540), (960, 540), (960, 540), (960, 540), (960, 540), (960, 540), (960, 540), (960, 540), (960, 540), (960, 540), (960, 540), (960, 540), (960, 540), (960, 540), (960, 540), (960, 540), (960, 540), (960, 540), (960, 540), (960, 540), (960, 540), (960, 540), (960, 540), (960, 540), (960, 540), (960, 540), (960, 540), (960, 540), (960, 540), (960, 540), (960, 540), (960, 540), (960, 540), (960, 540), (960, 540), (960, 540), (960, 540), (960, 540), (960, 540), (960, 540), (960, 540), (960, 540), (960, 540), (960, 540), (960, 540), (960, 540), (960, 540), (960, 540), (960, 540), (960, 540), (960, 540), (960, 540), (960, 540), (960, 540), (960, 540), (960, 540), (960, 540), (960, 540), (960, 540), (960, 540), (960, 540), (960, 540), (960, 540), (960, 540), (960, 540), (960, 540), (960, 540), (960, 540), (960, 540), (960, 540), (960, 540), (960, 540), (960, 540), (960, 540), (960, 540), (960, 540), (960, 540), (960, 540), (960, 540), (960, 540), (960, 540), (960, 540), (960, 540), (960, 540), (960, 540), (960, 540), (960, 540), (960, 540), (960, 540), (960, 540), (960, 540), (960, 540), (960, 540), (960, 540), (960, 540), (960, 540), (960, 540), (960, 540), (960, 540), (960, 540), (960, 540), (960, 540), (960, 540), (960, 540), (960, 540), (960, 540), (960, 540), (960, 540), (960, 540), (960, 540), (960, 540), (960, 540), (960, 541), (960, 541), (960, 544), (960, 545), (960, 547), (960, 548), (960, 552), (960, 553), (960, 555), (960, 556), (960, 559), (960, 559), (960, 561), (960, 561), (960, 562), (960, 562), (960, 562), (960, 562), (960, 562), (960, 562), (960, 562), (960, 562), (960, 562), (960, 562), (960, 562), (960, 562), (960, 562), (960, 562), (960, 562), (960, 562), (960, 562), (960, 562), (960, 562), (960, 562), (960, 562), (960, 562), (960, 562), (960, 562), (960, 562), (960, 562), (960, 562), (960, 562), (960, 562), (960, 562), (960, 562), (960, 562), (960, 562), (960, 562), (960, 562), (960, 562), (960, 562), (960, 562), (960, 562), (960, 562), (960, 562), (960, 562), (960, 562), (960, 562), (960, 562), (960, 562), (960, 562), (960, 562), (960, 562), (960, 562), (960, 562), (960, 562), (960, 562), (960, 562), (960, 564), (960, 565), (960, 568), (960, 571), (960, 572), (960, 574), (960, 579), (959, 581), (958, 584), (957, 587), (957, 594), (957, 598), (956, 602), (956, 608), (950, 626), (949, 637), (947, 651), (946, 662), (946, 685), (946, 697), (946, 708), (947, 719), (948, 735), (949, 745), (949, 755), (949, 764), (949, 782), (949, 792), (949, 801), (949, 809), (949, 828), (949, 835), (949, 846), (949, 857), (942, 881), (939, 893), (938, 904), (934, 917), (929, 942)]",94.40960430474291,"[8, 3, 7, 9, 4, 5, 1, 6, 2]","(0, 0.25)",DOT010A,DOT,A,English,Thu Aug 30 11:27:05 2018,Mouse
1,3,1,0,29,6,9,0,-1011,861,150,137,0,500,200,8000,"[(960, 540), (960, 540), (960, 540), (960, 540), (960, 540), (960, 540), (960, 540), (960, 540), (960, 540), (960, 540), (960, 540), (960, 540), (960, 540), (960, 540), (960, 540), (960, 540), (960, 540), (960, 540), (960, 540), (960, 540), (960, 540), (960, 540), (960, 540), (960, 540), (960, 540), (960, 540), (960, 540), (960, 540), (960, 540), (960, 540), (960, 540), (960, 540), (960, 540), (960, 540), (960, 540), (960, 540), (960, 540), (960, 540), (960, 540), (960, 540), (960, 540), (960, 540), (960, 540), (960, 540), (960, 540), (960, 540), (960, 540), (960, 540), (960, 540), (960, 540), (960, 540), (960, 540), (960, 540), (960, 540), (960, 540), (960, 540), (960, 540), (960, 540), (960, 540), (960, 540), (960, 540), (960, 540), (960, 540), (960, 540), (960, 540), (960, 540), (960, 540), (960, 540), (960, 540), (960, 540), (960, 540), (960, 540), (960, 540), (960, 540), (960, 540), (960, 540), (960, 540), (960, 540), (960, 540), (960, 540), (960, 540), (960, 540), (960, 540), (960, 540), (960, 540), (960, 540), (960, 545), (955, 557), (950, 566), (944, 576), (937, 589), (917, 626), (912, 641), (903, 659), (899, 670), (886, 696), (879, 707), (866, 731), (846, 761), (784, 824), (753, 848), (714, 875)]",126.29089359795734,"[8, 3, 7, 9, 4, 5, 1, 6, 2]","(0, 0.25)",DOT010A,DOT,A,English,Thu Aug 30 11:27:05 2018,Mouse
1,3,1,0,30,3,3,1,1050,390,660,138,0,500,200,8000,"[(960, 540), (960, 540), (960, 540), (960, 540), (960, 540), (960, 540), (960, 540), (960, 540), (960, 540), (960, 540), (960, 540), (960, 540), (960, 540), (960, 540), (960, 540), (960, 540), (960, 540), (960, 540), (960, 540), (960, 540), (960, 540), (960, 540), (960, 540), (960, 540), (960, 540), (960, 540), (960, 540), (960, 540), (960, 540), (960, 540), (960, 540), (960, 540), (960, 540), (960, 540), (960, 540), (960, 540), (960, 540), (960, 540), (960, 539), (960, 539), (960, 539), (960, 539), (960, 539), (960, 539), (958, 538), (958, 536), (958, 536), (958, 536), (958, 534), (958, 533), (958, 533), (958, 533), (958, 533), (958, 533), (958, 533), (958, 533), (958, 533), (958, 533), (958, 533), (958, 533), (958, 533), (958, 533), (958, 533), (958, 533), (958, 533), (958, 533), (958, 533), (958, 533), (958, 533), (958, 533), (958, 533), (958, 533), (958, 533), (958, 533), (958, 533), (958, 533), (958, 533), (958, 533), (958, 533), (958, 532), (961, 536), (964, 540), (968, 546), (971, 551), (978, 565), (982, 571), (987, 577), (991, 582), (1002, 593), (1007, 598), (1013, 605), (1019, 611), (1033, 629), (1038, 636), (1045, 648), (1052, 661), (1066, 687), (1073, 703), (1081, 721), (1095, 741), (1120, 784), (1129, 807), (1143, 829), (1158, 854), (1182, 892)]",57.76111516253001,"[8, 3, 7, 9, 4, 5, 1, 6, 2]","(0, 0.25)",DOT010A,DOT,A,English,Thu Aug 30 11:27:05 2018,Mouse
1,3,1,0,31,7,7,1,960,80,880,138,0,500,200,8000,"[(960, 540), (960, 540), (960, 540), (960, 540), (960, 540), (960, 540), (960, 540), (961, 540), (961, 540), (961, 540), (961, 540), (961, 540), (961, 540), (961, 540), (961, 540), (961, 540), (961, 540), (961, 540), (961, 540), (961, 540), (961, 540), (961, 540), (961, 540), (961, 540), (961, 540), (961, 540), (961, 540), (961, 540), (961, 540), (961, 540), (961, 540), (961, 540), (961, 540), (961, 540), (961, 540), (961, 540), (961, 540), (961, 540), (961, 540), (961, 540), (961, 540), (961, 540), (961, 540), (961, 540), (961, 540), (961, 540), (961, 540), (961, 540), (961, 540), (961, 540), (961, 540), (961, 540), (961, 540), (961, 540), (961, 540), (961, 540), (961, 540), (961, 540), (961, 540), (961, 540), (961, 540), (961, 540), (961, 540), (961, 540), (961, 540), (961, 540), (961, 540), (961, 540), (961, 540), (961, 540), (961, 540), (961, 540), (961, 540), (961, 540), (961, 540), (961, 540), (961, 540), (961, 540), (961, 540), (961, 540), (961, 549), (961, 562), (961, 618), (961, 649), (961, 674), (961, 694), (961, 736), (961, 753), (961, 772), (959, 795), (959, 846), (959, 871), (959, 890), (959, 907), (959, 934), (959, 947)]",90.1407755877591,"[8, 3, 7, 9, 4, 5, 1, 6, 2]","(0, 0.25)",DOT010A,DOT,A,English,Thu Aug 30 11:27:05 2018,Mouse
1,3,1,0,32,6,7,0,-1072,621,451,137,0,500,200,8000,"[(960, 540), (960, 540), (960, 540), (960, 540), (960, 540), (960, 540), (960, 540), (960, 540), (960, 540), (960, 540), (960, 540), (960, 540), (960, 540), (960, 540), (960, 540), (960, 540), (960, 540), (960, 540), (960, 540), (960, 540), (960, 540), (960, 540), (960, 540), (960, 540), (960, 540), (960, 540), (960, 540), (960, 540), (960, 540), (960, 540), (960, 540), (960, 540), (960, 540), (960, 540), (960, 540), (960, 540), (960, 540), (960, 540), (960, 540), (960, 540), (960, 540), (960, 540), (960, 540), (960, 540), (960, 540), (960, 540), (960, 540), (960, 540), (960, 540), (960, 540), (960, 540), (960, 540), (960, 540), (960, 540), (960, 540), (960, 540), (960, 540), (960, 540), (960, 540), (960, 540), (960, 540), (960, 540), (959, 543), (956, 557), (955, 574), (952, 595), (947, 634), (940, 654), (934, 674), (927, 697), (910, 740), (903, 758), (898, 769), (891, 781), (881, 798), (874, 806), (870, 812), (865, 818), (859, 829), (857, 833), (856, 836), (855, 837), (854, 841), (854, 841), (854, 843), (854, 843), (854, 846), (854, 846), (854, 847), (854, 848), (854, 851), (854, 853), (854, 856), (854, 857), (854, 864), (854, 866), (854, 869), (854, 872), (854, 877), (857, 882), (857, 885), (859, 889), (861, 899), (862, 907), (862, 913), (863, 918), (864, 927), (864, 931)]",103.79463619121414,"[8, 3, 7, 9, 4, 5, 1, 6, 2]","(0, 0.25)",DOT010A,DOT,A,English,Thu Aug 30 11:27:05 2018,Mouse
1,3,1,0,33,2,3,0,-821,501,320,138,0,500,200,8000,"[(960, 540), (960, 540), (960, 540), (960, 540), (960, 540), (960, 540), (960, 540), (960, 540), (960, 540), (960, 540), (960, 540), (960, 540), (960, 540), (960, 540), (960, 540), (960, 540), (960, 540), (960, 540), (960, 540), (960, 540), (960, 540), (960, 540), (960, 540), (960, 540), (960, 540), (960, 540), (960, 540), (960, 540), (960, 540), (960, 540), (960, 540), (960, 540), (960, 540), (960, 540), (960, 540), (960, 540), (960, 540), (960, 540), (960, 540), (960, 540), (960, 540), (960, 540), (960, 540), (960, 540), (960, 540), (960, 540), (960, 540), (960, 540), (960, 540), (960, 540), (961, 540), (963, 540), (967, 540), (971, 542), (981, 550), (987, 556), (994, 563), (1001, 569), (1006, 574), (1008, 576), (1009, 579), (1011, 581), (1013, 583), (1014, 584), (1014, 584), (1015, 586), (1019, 592), (1023, 601), (1027, 608), (1033, 619), (1043, 642), (1047, 654), (1052, 672), (1057, 691), (1072, 732), (1080, 757), (1089, 783), (1098, 803), (1112, 839), (1117, 851), (1120, 863), (1122, 875), (1127, 906)]",65.4735374682238,"[8, 3, 7, 9, 4, 5, 1, 6, 2]","(0, 0.25)",DOT010A,DOT,A,English,Thu Aug 30 11:27:05 2018,Mouse
1,3,1,0,34,3,3,1,2270,740,1530,139,0,500,200,8000,"[(960, 540), (960, 540), (960, 540), (960, 540), (960, 540), (960, 540), (960, 540), (960, 540), (960, 540), (960, 540), (960, 540), (960, 540), (960, 540), (960, 540), (960, 540), (960, 540), (960, 540), (960, 540), (960, 540), (960, 540), (960, 540), (960, 540), (960, 540), (960, 540), (960, 540), (960, 540), (960, 540), (960, 540), (960, 540), (960, 540), (960, 540), (960, 540), (960, 540), (960, 540), (960, 540), (960, 540), (960, 540), (960, 540), (960, 540), (960, 540), (960, 540), (960, 540), (960, 540), (960, 540), (960, 540), (960, 540), (960, 540), (960, 540), (960, 540), (960, 540), (960, 540), (960, 540), (960, 540), (960, 540), (960, 540), (960, 540), (960, 540), (960, 540), (960, 540), (960, 540), (960, 540), (960, 540), (960, 540), (960, 540), (960, 540), (960, 540), (960, 540), (960, 540), (960, 540), (960, 540), (960, 540), (960, 540), (960, 540), (959, 539), (959, 539), (959, 539), (958, 539), (958, 539), (958, 539), (957, 539), (957, 539), (957, 539), (956, 539), (956, 539), (956, 539), (956, 540), (956, 540), (956, 540), (956, 540), (956, 540), (956, 540), (956, 540), (956, 540), (956, 540), (956, 540), (956, 540), (956, 540), (956, 540), (956, 540), (956, 540), (956, 540), (956, 540), (956, 540), (956, 540), (956, 540), (956, 540), (956, 540), (956, 540), (956, 540), (956, 540), (956, 540), (956, 540), (956, 540), (956, 540), (956, 540), (956, 540), (956, 540), (956, 540), (956, 540), (956, 540), (956, 540), (956, 540), (956, 540), (956, 540), (956, 540), (956, 540), (956, 540), (956, 540), (956, 540), (956, 540), (956, 540), (956, 540), (956, 540), (956, 540), (956, 540), (956, 540), (956, 540), (956, 540), (956, 540), (956, 540), (956, 540), (956, 540), (956, 540), (956, 540), (956, 540), (956, 540), (956, 540), (956, 540), (956, 540), (956, 540), (956, 540), (956, 540), (956, 540), (956, 540), (956, 540), (956, 540), (956, 540), (956, 540), (956, 540), (956, 540), (956, 540), (956, 540), (956, 540), (956, 540), (956, 540), (956, 540), (956, 540), (956, 540), (956, 540), (956, 540), (956, 540), (956, 540), (956, 540), (956, 540), (956, 540), (956, 540), (956, 540), (956, 540), (956, 540), (956, 540), (956, 540), (956, 540), (956, 540), (956, 540), (956, 540), (956, 540), (956, 540), (956, 540), (956, 540), (956, 540), (956, 540), (956, 540), (956, 540), (956, 540), (956, 540), (956, 540), (956, 540), (956, 540), (956, 540), (956, 540), (956, 540), (956, 540), (956, 540), (956, 540), (956, 540), (956, 545), (960, 556), (962, 561), (963, 566), (966, 576), (974, 597), (984, 620), (1002, 653), (1022, 683), (1048, 732), (1060, 751), (1069, 767), (1077, 779), (1093, 802), (1102, 815), (1110, 825), (1117, 837), (1132, 860), (1139, 870), (1144, 877), (1149, 883), (1156, 892)]",60.89014444310891,"[8, 3, 7, 9, 4, 5, 1, 6, 2]","(0, 0.25)",DOT010A,DOT,A,English,Thu Aug 30 11:27:05 2018,Mouse
1,3,1,0,35,8,9,0,-599,469,130,139,0,500,200,8000,"[(960, 540), (960, 540), (960, 540), (960, 540), (960, 540), (960, 540), (960, 540), (960, 540), (960, 540), (960, 540), (960, 540), (960, 540), (960, 540), (960, 540), (960, 540), (960, 540), (960, 540), (960, 540), (960, 540), (960, 540), (960, 540), (960, 540), (960, 540), (960, 540), (960, 540), (960, 540), (960, 540), (960, 540), (960, 540), (960, 540), (960, 540), (960, 540), (960, 540), (960, 540), (960, 540), (960, 540), (960, 540), (960, 540), (960, 540), (960, 540), (960, 540), (960, 540), (960, 540), (960, 540), (960, 540), (960, 540), (960, 542), (960, 546), (958, 550), (954, 555), (947, 570), (938, 585), (928, 602), (919, 618), (879, 679), (847, 723), (806, 764), (767, 798), (710, 840), (699, 849)]",130.18644910629348,"[8, 3, 7, 9, 4, 5, 1, 6, 2]","(0, 0.25)",DOT010A,DOT,A,English,Thu Aug 30 11:27:05 2018,Mouse
1,3,1,0,36,3,3,1,460,290,170,140,0,500,200,8000,"[(960, 540), (960, 540), (960, 540), (960, 540), (960, 540), (960, 540), (960, 540), (960, 540), (960, 540), (960, 540), (960, 540), (960, 540), (960, 540), (960, 540), (960, 540), (960, 540), (960, 540), (960, 540), (960, 540), (960, 540), (960, 540), (960, 540), (960, 540), (960, 540), (960, 540), (960, 540), (960, 540), (960, 540), (963, 541), (971, 545), (978, 548), (987, 552), (999, 562), (1023, 582), (1033, 596), (1047, 616), (1061, 636), (1096, 686), (1113, 707), (1129, 727), (1144, 747), (1179, 786), (1193, 804), (1202, 814), (1215, 827), (1246, 869)]",48.99953743486093,"[8, 3, 7, 9, 4, 5, 1, 6, 2]","(0, 0.25)",DOT010A,DOT,A,English,Thu Aug 30 11:27:05 2018,Mouse
1,3,1,0,37,5,5,1,1080,890,190,140,0,500,200,8000,"[(960, 540), (960, 540), (960, 540), (960, 540), (960, 540), (960, 540), (960, 540), (960, 540), (960, 540), (960, 540), (960, 540), (960, 540), (960, 540), (960, 540), (960, 540), (960, 540), (960, 540), (960, 540), (960, 540), (960, 540), (960, 540), (960, 540), (960, 540), (960, 540), (960, 540), (960, 540), (960, 540), (960, 540), (960, 540), (960, 540), (960, 540), (960, 540), (960, 540), (960, 540), (960, 540), (960, 540), (960, 540), (960, 540), (960, 540), (960, 540), (960, 540), (960, 540), (960, 540), (960, 540), (960, 540), (960, 540), (960, 540), (960, 540), (960, 540), (960, 540), (960, 540), (960, 540), (960, 540), (960, 540), (960, 540), (960, 540), (960, 540), (960, 540), (960, 540), (960, 540), (960, 540), (960, 540), (960, 540), (960, 540), (960, 540), (960, 540), (960, 540), (960, 540), (960, 540), (960, 540), (960, 540), (960, 540), (960, 540), (960, 540), (960, 540), (960, 540), (960, 540), (960, 540), (960, 540), (960, 540), (960, 540), (960, 540), (960, 540), (960, 540), (960, 540), (960, 540), (960, 540), (960, 540), (960, 539), (960, 539), (959, 536), (956, 534), (954, 532), (950, 528), (936, 518), (923, 511), (912, 506), (902, 499), (877, 481), (865, 471), (849, 457), (836, 440), (798, 393), (778, 370), (757, 342), (736, 313), (699, 265), (676, 239)]",226.66453711138294,"[8, 3, 7, 9, 4, 5, 1, 6, 2]","(0, 0.25)",DOT010A,DOT,A,English,Thu Aug 30 11:27:05 2018,Mouse
1,3,1,0,38,9,9,1,830,370,460,139,0,500,200,8000,"[(960, 540), (960, 540), (960, 540), (960, 540), (960, 540), (960, 540), (960, 540), (960, 540), (960, 540), (960, 540), (960, 540), (960, 540), (960, 540), (960, 540), (960, 540), (960, 540), (960, 540), (960, 540), (960, 540), (960, 540), (960, 540), (960, 540), (960, 540), (960, 540), (960, 540), (960, 540), (960, 540), (960, 540), (960, 540), (960, 540), (960, 540), (960, 540), (960, 540), (960, 540), (960, 540), (960, 540), (960, 541), (960, 547), (960, 549), (960, 552), (959, 554), (957, 561), (955, 565), (954, 567), (953, 570), (950, 574), (949, 576), (949, 576), (947, 579), (945, 583), (942, 586), (941, 588), (939, 589), (929, 598), (924, 602), (917, 608), (912, 612), (902, 625), (899, 631), (895, 636), (891, 642), (883, 652), (878, 657), (873, 663), (866, 669), (856, 681), (852, 686), (847, 690), (842, 694), (835, 701), (830, 705), (824, 709), (812, 717), (747, 753), (728, 765), (718, 769), (713, 771), (700, 779), (690, 782), (681, 785), (670, 787), (653, 795), (644, 797)]",140.87884766364343,"[8, 3, 7, 9, 4, 5, 1, 6, 2]","(0, 0.25)",DOT010A,DOT,A,English,Thu Aug 30 11:27:05 2018,Mouse
1,3,1,0,39,3,3,1,1100,360,740,138,0,500,200,8000,"[(960, 540), (960, 540), (960, 540), (960, 540), (960, 540), (960, 540), (960, 540), (960, 540), (960, 540), (960, 540), (960, 540), (960, 540), (960, 540), (960, 540), (960, 540), (960, 540), (960, 540), (960, 540), (960, 540), (960, 540), (960, 540), (960, 540), (960, 540), (960, 540), (960, 540), (960, 540), (960, 540), (960, 540), (960, 540), (960, 540), (960, 540), (960, 540), (960, 540), (960, 540), (960, 540), (961, 540), (965, 544), (969, 547), (971, 549), (972, 550), (975, 553), (978, 555), (978, 555), (978, 555), (979, 556), (979, 556), (979, 556), (979, 556), (979, 556), (982, 559), (983, 562), (986, 566), (990, 573), (997, 583), (1002, 590), (1007, 597), (1012, 603), (1024, 618), (1032, 628), (1038, 637), (1046, 647), (1056, 669), (1058, 678), (1058, 685), (1058, 691), (1054, 704), (1049, 710), (1045, 717), (1043, 726), (1045, 773), (1054, 801), (1057, 815), (1059, 825), (1061, 844), (1062, 853), (1064, 859), (1065, 861), (1066, 865), (1066, 867), (1067, 869), (1070, 871), (1074, 876), (1075, 879), (1077, 881), (1079, 884), (1082, 888), (1085, 890), (1085, 892), (1085, 893), (1087, 895), (1087, 895), (1087, 895), (1087, 895), (1088, 895), (1088, 895), (1089, 897), (1089, 897), (1090, 898), (1091, 899), (1091, 900), (1091, 900), (1091, 900), (1091, 901), (1091, 901), (1091, 901), (1092, 904), (1094, 908), (1095, 911), (1095, 914), (1098, 918)]",69.94390526342458,"[8, 3, 7, 9, 4, 5, 1, 6, 2]","(0, 0.25)",DOT010A,DOT,A,English,Thu Aug 30 11:27:05 2018,Mouse
1,3,1,0,40,3,3,1,809,310,499,137,0,500,200,8000,"[(960, 540), (960, 540), (960, 540), (960, 540), (960, 540), (960, 540), (960, 540), (960, 540), (960, 540), (960, 540), (960, 540), (960, 540), (960, 540), (960, 540), (960, 540), (960, 540), (960, 540), (960, 540), (960, 540), (960, 540), (960, 540), (960, 540), (960, 540), (960, 540), (960, 540), (960, 540), (960, 540), (960, 540), (960, 540), (960, 540), (967, 540), (976, 542), (983, 545), (986, 546), (993, 552), (995, 557), (997, 562), (998, 566), (1004, 583), (1007, 596), (1012, 614), (1019, 634), (1038, 681), (1046, 696), (1055, 713), (1062, 726), (1070, 745), (1073, 753), (1076, 763), (1079, 770), (1085, 785), (1088, 792), (1091, 797), (1096, 804), (1112, 819), (1121, 824), (1129, 831), (1137, 835), (1153, 844), (1160, 847), (1166, 850), (1169, 851), (1180, 856), (1182, 856), (1184, 858), (1184, 858), (1185, 858), (1185, 858), (1186, 858), (1186, 858), (1186, 860), (1186, 861), (1186, 862), (1186, 863), (1186, 864), (1186, 865), (1186, 865), (1186, 866), (1186, 868), (1186, 870), (1186, 872)]",55.755985015553314,"[8, 3, 7, 9, 4, 5, 1, 6, 2]","(0, 0.25)",DOT010A,DOT,A,English,Thu Aug 30 11:27:05 2018,Mouse
1,3,1,0,41,6,5,0,-3529,109,3420,136,0,500,200,8000,"[(960, 540), (960, 540), (960, 540), (960, 540), (960, 540), (960, 540), (960, 540), (960, 540), (960, 540), (960, 540), (962, 540), (963, 539), (963, 539), (963, 539), (964, 539), (964, 539), (964, 539), (964, 539), (964, 539), (964, 539), (964, 539), (964, 539), (964, 539), (964, 539), (964, 539), (964, 539), (964, 539), (964, 539), (964, 539), (964, 539), (964, 539), (964, 539), (964, 539), (964, 539), (964, 539), (964, 539), (964, 539), (964, 539), (964, 539), (964, 539), (964, 539), (964, 539), (964, 539), (964, 539), (961, 541), (961, 541), (958, 542), (957, 543), (955, 543), (955, 543), (955, 543), (955, 545), (958, 547), (961, 549), (964, 549), (965, 550), (967, 551), (967, 551), (967, 551), (967, 551), (967, 551), (967, 551), (967, 551), (967, 551), (967, 551), (967, 551), (967, 551), (967, 551), (967, 551), (967, 551), (967, 551), (967, 551), (967, 551), (967, 552), (966, 553), (965, 556), (960, 560), (959, 561), (958, 562), (956, 564), (954, 567), (953, 570), (952, 572), (951, 573), (950, 575), (950, 575), (950, 575), (950, 575), (950, 575), (950, 575), (950, 575), (950, 575), (950, 575), (950, 575), (950, 575), (950, 575), (950, 575), (950, 575), (950, 575), (950, 575), (950, 575), (950, 575), (950, 575), (950, 575), (950, 575), (950, 575), (950, 575), (950, 575), (950, 575), (950, 575), (950, 575), (950, 575), (950, 575), (950, 575), (950, 575), (950, 575), (950, 575), (950, 575), (950, 575), (950, 575), (950, 575), (950, 575), (950, 575), (950, 575), (950, 575), (950, 575), (950, 575), (950, 575), (950, 575), (950, 575), (950, 575), (950, 575), (950, 575), (950, 575), (950, 575), (950, 575), (950, 575), (950, 575), (950, 575), (950, 575), (950, 575), (950, 575), (950, 575), (950, 575), (950, 575), (950, 575), (950, 575), (950, 575), (949, 577), (949, 577), (948, 577), (948, 578), (947, 578), (946, 578), (945, 579), (944, 580), (943, 581), (942, 582), (942, 582), (941, 583), (941, 584), (939, 585), (939, 587), (939, 587), (937, 589), (937, 590), (937, 590), (936, 591), (936, 591), (936, 591), (936, 591), (936, 591), (936, 591), (936, 591), (936, 591), (936, 591), (936, 591), (936, 591), (936, 591), (936, 591), (936, 591), (936, 591), (936, 591), (936, 591), (936, 591), (936, 591), (936, 591), (936, 591), (936, 591), (936, 591), (936, 591), (936, 591), (936, 591), (936, 591), (936, 591), (936, 591), (936, 591), (936, 591), (936, 591), (936, 591), (936, 591), (936, 591), (936, 591), (936, 591), (936, 591), (936, 591), (936, 591), (936, 591), (936, 591), (936, 591), (936, 591), (936, 591), (936, 591), (936, 591), (936, 591), (936, 591), (936, 591), (936, 591), (936, 591), (936, 591), (936, 591), (936, 591), (936, 591), (936, 591), (936, 591), (936, 591), (936, 591), (936, 591), (936, 591), (936, 591), (936, 591), (936, 591), (936, 591), (936, 591), (936, 591), (936, 591), (936, 591), (936, 591), (936, 591), (936, 591), (936, 591), (936, 591), (936, 591), (936, 591), (936, 591), (936, 591), (936, 591), (936, 591), (936, 591), (936, 591), (936, 591), (936, 591), (936, 591), (936, 591), (936, 591), (936, 591), (936, 591), (936, 591), (936, 591), (936, 591), (936, 591), (936, 591), (936, 591), (936, 591), (936, 591), (936, 591), (936, 591), (936, 591), (936, 591), (936, 591), (936, 591), (936, 591), (936, 591), (936, 591), (936, 591), (936, 591), (936, 591), (936, 591), (936, 591), (936, 591), (936, 591), (936, 591), (936, 591), (936, 591), (936, 591), (936, 591), (936, 591), (936, 591), (936, 591), (936, 591), (936, 591), (936, 591), (936, 591), (936, 591), (936, 591), (936, 591), (936, 591), (936, 591), (936, 591), (936, 591), (936, 591), (936, 591), (936, 591), (936, 591), (936, 591), (936, 591), (936, 591), (936, 591), (936, 591), (936, 591), (936, 591), (936, 591), (936, 591), (936, 591), (936, 591), (936, 591), (936, 591), (936, 591), (936, 591), (936, 591), (936, 591), (936, 591), (936, 591), (936, 591), (936, 591), (936, 591), (936, 591), (936, 591), (936, 591), (936, 591), (936, 591), (936, 591), (935, 591), (934, 590), (933, 589), (931, 587), (926, 576), (922, 571), (915, 562), (906, 552), (886, 531), (871, 513), (852, 496), (834, 478), (797, 444), (784, 431), (769, 415), (751, 401), (722, 367), (705, 347), (692, 332), (676, 314), (641, 273)]",219.92901517845038,"[8, 3, 7, 9, 4, 5, 1, 6, 2]","(0, 0.25)",DOT010A,DOT,A,English,Thu Aug 30 11:27:05 2018,Mouse
1,3,1,0,42,6,7,0,-742,311,431,137,0,500,200,8000,"[(960, 540), (960, 540), (960, 540), (960, 540), (960, 540), (960, 540), (960, 540), (960, 540), (960, 540), (960, 540), (960, 540), (960, 540), (960, 540), (960, 540), (960, 540), (960, 540), (960, 540), (960, 540), (960, 540), (960, 540), (960, 540), (960, 540), (960, 540), (960, 540), (960, 540), (960, 540), (960, 540), (960, 540), (960, 540), (960, 540), (960, 540), (960, 542), (960, 542), (960, 542), (960, 542), (960, 543), (960, 543), (960, 544), (960, 545), (960, 547), (960, 548), (960, 549), (960, 550), (960, 553), (960, 554), (961, 555), (961, 555), (961, 557), (961, 559), (961, 559), (961, 559), (961, 559), (961, 559), (961, 559), (961, 560), (961, 562), (962, 563), (963, 566), (963, 568), (963, 574), (963, 580), (962, 587), (959, 597), (951, 622), (944, 643), (943, 666), (937, 688), (924, 745), (919, 772), (912, 813), (903, 851), (885, 900), (882, 912), (876, 927), (871, 944)]",102.42365039235573,"[8, 3, 7, 9, 4, 5, 1, 6, 2]","(0, 0.25)",DOT010A,DOT,A,English,Thu Aug 30 11:27:05 2018,Mouse
1,3,1,0,43,5,5,1,1210,1000,210,138,0,500,200,8000,"[(960, 540), (960, 540), (960, 540), (960, 540), (960, 540), (960, 540), (960, 540), (960, 540), (960, 540), (960, 540), (960, 540), (960, 540), (960, 540), (960, 540), (960, 540), (960, 540), (960, 540), (960, 540), (960, 540), (960, 540), (960, 540), (960, 540), (960, 540), (960, 540), (960, 540), (960, 540), (960, 540), (960, 540), (960, 540), (960, 540), (960, 540), (960, 540), (960, 540), (960, 540), (960, 540), (960, 540), (960, 540), (960, 540), (960, 540), (960, 540), (960, 540), (960, 540), (960, 540), (960, 540), (960, 540), (960, 540), (960, 540), (960, 540), (960, 540), (960, 540), (960, 540), (960, 540), (960, 540), (960, 540), (960, 540), (960, 540), (960, 540), (960, 540), (960, 540), (960, 540), (960, 540), (960, 540), (960, 540), (960, 540), (960, 540), (960, 540), (960, 540), (960, 540), (960, 540), (960, 540), (960, 540), (960, 540), (960, 540), (960, 540), (960, 540), (960, 540), (960, 540), (960, 540), (960, 540), (960, 540), (960, 540), (960, 540), (960, 540), (960, 540), (960, 540), (960, 540), (960, 540), (960, 540), (960, 540), (960, 540), (960, 540), (960, 540), (960, 540), (960, 540), (960, 540), (960, 540), (960, 540), (960, 540), (960, 540), (960, 539), (954, 530), (945, 519), (935, 510), (913, 486), (897, 470), (879, 455), (861, 438), (831, 414), (821, 404), (808, 391), (795, 374), (769, 351), (756, 338), (743, 327), (731, 316), (709, 298), (701, 291), (694, 284), (686, 278), (674, 267), (669, 262)]",223.69118528351848,"[8, 3, 7, 9, 4, 5, 1, 6, 2]","(0, 0.25)",DOT010A,DOT,A,English,Thu Aug 30 11:27:05 2018,Mouse
1,3,1,0,44,6,6,1,870,420,450,138,0,500,200,8000,"[(960, 540), (960, 540), (960, 540), (960, 540), (960, 540), (960, 540), (960, 540), (960, 540), (960, 540), (960, 540), (960, 540), (960, 540), (960, 540), (960, 540), (960, 540), (960, 540), (960, 540), (960, 540), (960, 540), (960, 540), (960, 540), (960, 540), (960, 540), (960, 540), (960, 540), (960, 540), (960, 540), (960, 540), (960, 540), (960, 540), (960, 540), (960, 540), (960, 540), (960, 540), (960, 540), (960, 540), (960, 540), (960, 540), (960, 540), (960, 540), (960, 540), (960, 539), (960, 539), (960, 539), (960, 539), (960, 539), (960, 539), (960, 539), (960, 539), (960, 539), (960, 539), (960, 539), (960, 539), (960, 539), (960, 539), (960, 539), (960, 539), (961, 537), (962, 536), (964, 535), (965, 534), (968, 533), (969, 532), (971, 531), (972, 529), (976, 523), (978, 520), (979, 517), (980, 512), (985, 500), (989, 493), (992, 484), (996, 474), (1003, 453), (1011, 445), (1018, 432), (1023, 415), (1039, 374), (1045, 352), (1049, 333), (1057, 308), (1068, 269), (1075, 248), (1084, 228), (1093, 210), (1107, 176), (1117, 160)]",292.4483533046317,"[8, 3, 7, 9, 4, 5, 1, 6, 2]","(0, 0.25)",DOT010A,DOT,A,English,Thu Aug 30 11:27:05 2018,Mouse
1,3,1,0,45,8,8,1,1019,629,390,137,0,500,200,8000,"[(960, 540), (960, 540), (960, 540), (960, 540), (960, 540), (960, 540), (960, 540), (960, 540), (960, 540), (960, 540), (960, 540), (960, 540), (960, 540), (960, 540), (960, 540), (960, 540), (960, 540), (960, 540), (960, 540), (960, 540), (960, 540), (960, 540), (960, 540), (960, 540), (960, 540), (960, 540), (960, 540), (960, 540), (960, 540), (960, 540), (960, 540), (960, 540), (960, 540), (960, 540), (960, 540), (960, 540), (960, 540), (960, 540), (960, 540), (960, 540), (960, 540), (960, 540), (960, 540), (960, 540), (960, 540), (960, 540), (960, 540), (960, 540), (960, 540), (960, 540), (960, 540), (960, 540), (960, 540), (960, 540), (960, 540), (960, 540), (960, 540), (960, 540), (960, 540), (960, 540), (960, 540), (960, 540), (961, 543), (961, 544), (962, 545), (967, 550), (972, 553), (975, 554), (983, 557), (1010, 568), (1033, 579), (1059, 587), (1087, 595), (1148, 612), (1178, 621), (1206, 627), (1231, 635), (1271, 644), (1285, 649), (1294, 650), (1298, 651), (1302, 652), (1302, 652), (1302, 652), (1302, 652), (1303, 652), (1304, 652), (1310, 653), (1314, 655), (1326, 658), (1328, 659), (1332, 660), (1332, 661), (1333, 662), (1333, 662), (1333, 662), (1333, 662), (1333, 662), (1333, 662), (1335, 662), (1339, 663), (1347, 667)]",18.168044948379446,"[8, 3, 7, 9, 4, 5, 1, 6, 2]","(0, 0.25)",DOT010A,DOT,A,English,Thu Aug 30 11:27:05 2018,Mouse
1,3,1,0,46,6,5,0,-2270,210,2060,136,0,500,200,8000,"[(960, 540), (960, 540), (960, 540), (960, 540), (960, 540), (960, 540), (960, 540), (960, 540), (960, 540), (960, 540), (960, 540), (960, 540), (960, 540), (960, 540), (960, 540), (960, 540), (960, 540), (960, 540), (960, 540), (960, 540), (960, 541), (960, 541), (960, 541), (960, 541), (960, 541), (960, 541), (960, 541), (960, 541), (960, 541), (960, 541), (960, 541), (960, 541), (960, 541), (960, 541), (960, 541), (960, 541), (960, 541), (960, 541), (960, 541), (960, 541), (960, 541), (960, 541), (960, 541), (960, 541), (960, 541), (960, 541), (960, 541), (960, 541), (960, 541), (960, 541), (960, 541), (960, 541), (960, 541), (960, 541), (960, 541), (960, 541), (960, 541), (960, 541), (960, 541), (960, 541), (960, 541), (960, 541), (960, 541), (960, 541), (960, 541), (960, 541), (960, 541), (960, 541), (960, 541), (960, 541), (960, 541), (960, 541), (960, 541), (960, 541), (960, 541), (960, 541), (960, 541), (960, 541), (960, 541), (960, 541), (960, 541), (960, 541), (960, 541), (960, 541), (960, 541), (960, 541), (960, 541), (960, 541), (960, 541), (960, 541), (960, 541), (960, 541), (960, 541), (960, 541), (960, 541), (960, 541), (960, 541), (960, 541), (960, 541), (960, 541), (960, 541), (960, 541), (960, 541), (960, 541), (960, 541), (960, 541), (960, 541), (960, 541), (960, 541), (960, 541), (960, 541), (960, 541), (960, 541), (960, 541), (959, 541), (959, 541), (958, 541), (958, 541), (958, 541), (958, 541), (958, 541), (958, 541), (958, 541), (958, 541), (958, 541), (958, 541), (957, 542), (957, 542), (957, 542), (957, 542), (955, 543), (954, 543), (954, 543), (954, 543), (954, 544), (954, 544), (954, 544), (954, 544), (952, 544), (952, 544), (952, 544), (951, 544), (949, 545), (949, 545), (948, 545), (948, 545), (948, 545), (948, 545), (948, 545), (948, 545), (948, 545), (948, 545), (948, 545), (948, 545), (948, 545), (948, 545), (946, 546), (946, 546), (942, 548), (941, 549), (941, 549), (939, 549), (938, 549), (938, 549), (938, 549), (938, 549), (938, 549), (938, 549), (938, 549), (938, 549), (939, 549), (940, 549), (941, 549), (941, 549), (942, 548), (942, 548), (943, 547), (943, 547), (945, 546), (945, 546), (945, 546), (945, 546), (945, 546), (945, 546), (945, 546), (945, 546), (945, 546), (945, 546), (945, 546), (945, 546), (945, 546), (945, 546), (945, 546), (945, 546), (945, 546), (945, 546), (945, 546), (945, 546), (944, 546), (943, 546), (941, 546), (941, 546), (939, 546), (939, 546), (938, 546), (938, 546), (936, 544), (932, 542), (927, 538), (921, 533), (903, 518), (896, 512), (891, 507), (883, 500), (862, 483), (845, 470), (820, 453), (790, 438), (736, 407), (714, 395), (696, 384), (679, 373), (658, 360), (648, 351), (640, 343), (627, 331), (609, 311)]",213.1212995166696,"[8, 3, 7, 9, 4, 5, 1, 6, 2]","(0, 0.25)",DOT010A,DOT,A,English,Thu Aug 30 11:27:05 2018,Mouse
1,3,1,0,47,2,3,0,-1241,610,631,137,0,500,200,8000,"[(960, 540), (960, 540), (960, 540), (960, 540), (960, 540), (960, 540), (960, 540), (960, 540), (960, 540), (960, 540), (960, 540), (960, 540), (960, 540), (960, 540), (960, 540), (960, 540), (960, 540), (960, 540), (960, 540), (960, 540), (960, 540), (960, 540), (960, 540), (960, 540), (960, 540), (960, 540), (960, 540), (960, 540), (960, 540), (960, 540), (960, 540), (960, 540), (960, 540), (960, 540), (960, 540), (960, 540), (960, 540), (960, 540), (960, 540), (960, 540), (960, 540), (960, 540), (960, 540), (960, 540), (960, 540), (960, 540), (960, 540), (960, 540), (960, 540), (960, 540), (960, 540), (960, 540), (960, 540), (960, 540), (960, 540), (960, 540), (960, 540), (960, 540), (960, 540), (960, 540), (960, 541), (960, 541), (960, 542), (960, 543), (960, 543), (960, 543), (960, 544), (960, 544), (960, 544), (960, 544), (960, 544), (960, 544), (960, 544), (960, 544), (960, 544), (960, 544), (960, 544), (960, 544), (960, 544), (960, 544), (960, 544), (960, 544), (960, 544), (960, 544), (960, 544), (960, 544), (960, 544), (960, 544), (960, 544), (960, 544), (960, 547), (960, 548), (960, 549), (960, 550), (960, 553), (960, 554), (960, 557), (960, 558), (960, 563), (960, 564), (960, 567), (960, 569), (960, 574), (960, 576), (960, 578), (960, 584), (961, 588), (961, 591), (961, 594), (962, 597), (965, 608), (967, 614), (971, 621), (974, 628), (983, 651), (989, 664), (1000, 683), (1014, 705), (1038, 750), (1056, 773), (1074, 799), (1093, 824), (1145, 887), (1177, 915)]",59.9434642300023,"[8, 3, 7, 9, 4, 5, 1, 6, 2]","(0, 0.25)",DOT010A,DOT,A,English,Thu Aug 30 11:27:05 2018,Mouse
1,3,1,0,48,8,8,1,1041,881,160,138,0,500,200,8000,"[(960, 540), (960, 540), (960, 540), (960, 540), (960, 540), (960, 540), (960, 540), (960, 540), (960, 540), (960, 540), (960, 540), (960, 540), (960, 540), (960, 540), (960, 540), (960, 540), (960, 540), (960, 540), (960, 540), (960, 540), (960, 540), (960, 540), (960, 540), (960, 540), (960, 540), (960, 540), (960, 540), (960, 540), (960, 540), (960, 540), (960, 540), (960, 540), (960, 540), (960, 540), (960, 540), (960, 540), (960, 540), (960, 540), (960, 540), (960, 540), (960, 540), (960, 540), (960, 540), (960, 540), (960, 540), (960, 540), (960, 540), (960, 540), (960, 540), (960, 540), (960, 540), (960, 540), (960, 540), (960, 540), (960, 540), (960, 540), (960, 540), (960, 540), (960, 540), (960, 540), (960, 540), (960, 540), (960, 540), (960, 540), (960, 540), (960, 540), (960, 540), (960, 540), (960, 540), (960, 540), (960, 540), (960, 540), (960, 540), (960, 540), (960, 540), (960, 540), (960, 540), (960, 540), (960, 540), (960, 540), (960, 540), (960, 540), (960, 540), (960, 540), (960, 540), (960, 540), (960, 540), (960, 540), (961, 541), (964, 542), (970, 544), (973, 545), (983, 546), (994, 550), (1033, 561), (1058, 571), (1084, 581), (1109, 587), (1152, 596), (1175, 603), (1197, 609), (1225, 617), (1281, 634), (1311, 642), (1345, 651)]",16.082889794208747,"[8, 3, 7, 9, 4, 5, 1, 6, 2]","(0, 0.25)",DOT010A,DOT,A,English,Thu Aug 30 11:27:05 2018,Mouse
1,3,1,0,49,7,7,1,1011,141,870,138,0,500,200,8000,"[(960, 540), (960, 540), (960, 540), (960, 540), (960, 540), (960, 540), (960, 540), (960, 540), (960, 540), (960, 540), (960, 540), (960, 540), (960, 540), (960, 540), (960, 542), (960, 542), (960, 542), (960, 542), (960, 543), (960, 543), (960, 543), (960, 543), (960, 543), (960, 543), (960, 543), (960, 543), (960, 543), (960, 543), (960, 543), (960, 543), (960, 543), (960, 543), (960, 543), (960, 543), (960, 543), (960, 543), (960, 543), (960, 543), (960, 543), (960, 543), (960, 543), (960, 543), (960, 543), (960, 543), (960, 543), (958, 546), (957, 548), (957, 550), (956, 552), (956, 557), (954, 561), (953, 562), (953, 564), (952, 569), (952, 571), (951, 572), (951, 573), (951, 574), (951, 574), (951, 574), (951, 574), (951, 574), (951, 574), (951, 574), (951, 574), (950, 575), (950, 575), (950, 575), (950, 575), (950, 575), (950, 575), (950, 575), (950, 575), (950, 575), (950, 576), (950, 579), (950, 580), (950, 584), (949, 587), (949, 593), (949, 598), (949, 615), (949, 626), (949, 638), (949, 653), (949, 685), (949, 702), (949, 722), (949, 738), (949, 767), (949, 780), (949, 794), (949, 807), (949, 836), (949, 849), (949, 863), (949, 874), (949, 896), (949, 907), (949, 917), (948, 927), (946, 957)]",91.92287706851631,"[8, 3, 7, 9, 4, 5, 1, 6, 2]","(0, 0.25)",DOT010A,DOT,A,English,Thu Aug 30 11:27:05 2018,Mouse
1,3,1,0,50,2,2,1,1150,910,240,137,0,500,200,8000,"[(960, 540), (960, 540), (960, 540), (960, 540), (960, 540), (960, 540), (960, 540), (960, 540), (960, 540), (960, 540), (960, 540), (960, 540), (960, 540), (960, 540), (960, 540), (960, 540), (960, 540), (960, 540), (960, 540), (960, 540), (960, 540), (960, 540), (960, 540), (960, 540), (960, 540), (960, 540), (960, 540), (960, 540), (960, 540), (960, 540), (960, 540), (960, 540), (960, 540), (960, 540), (960, 540), (960, 540), (960, 540), (960, 540), (960, 540), (960, 540), (960, 540), (960, 540), (960, 540), (960, 540), (960, 540), (960, 540), (960, 540), (960, 540), (960, 540), (960, 540), (960, 540), (960, 540), (960, 540), (960, 540), (960, 540), (960, 540), (960, 540), (960, 540), (960, 540), (960, 540), (960, 540), (960, 540), (960, 540), (960, 540), (960, 540), (960, 540), (960, 540), (960, 540), (960, 540), (960, 540), (960, 540), (960, 540), (960, 540), (960, 540), (960, 540), (960, 540), (960, 540), (960, 540), (960, 540), (960, 540), (960, 540), (960, 540), (960, 540), (960, 540), (960, 540), (960, 540), (960, 540), (960, 540), (960, 540), (960, 540), (961, 536), (963, 533), (963, 530), (965, 527), (969, 521), (969, 518), (969, 517), (969, 516), (971, 513), (971, 512), (971, 510), (971, 509), (971, 506), (973, 504), (977, 501), (984, 498), (1004, 495), (1018, 490), (1036, 483), (1060, 477), (1138, 455), (1183, 440), (1238, 425), (1296, 409), (1423, 375)]",340.38538202554497,"[8, 3, 7, 9, 4, 5, 1, 6, 2]","(0, 0.25)",DOT010A,DOT,A,English,Thu Aug 30 11:27:05 2018,Mouse
1,3,1,0,51,3,2,0,-900,460,440,136,0,500,200,8000,"[(960, 540), (960, 540), (960, 540), (960, 540), (960, 540), (960, 540), (960, 540), (960, 540), (960, 540), (960, 540), (960, 540), (960, 540), (960, 540), (960, 540), (960, 540), (960, 540), (960, 540), (960, 540), (960, 540), (960, 540), (960, 540), (960, 540), (960, 540), (960, 540), (960, 540), (960, 540), (960, 540), (960, 540), (960, 540), (960, 540), (960, 540), (960, 540), (960, 540), (960, 540), (960, 540), (960, 540), (960, 540), (960, 540), (960, 540), (960, 540), (960, 540), (960, 540), (960, 540), (960, 540), (960, 540), (958, 540), (958, 540), (958, 540), (958, 540), (958, 540), (958, 540), (958, 540), (958, 540), (958, 540), (958, 540), (958, 540), (958, 540), (958, 540), (958, 540), (958, 540), (958, 540), (958, 540), (958, 540), (958, 540), (958, 540), (958, 540), (957, 540), (957, 540), (957, 540), (957, 540), (957, 540), (957, 540), (957, 540), (957, 540), (957, 540), (957, 540), (957, 540), (957, 540), (957, 540), (957, 540), (957, 540), (957, 540), (959, 540), (972, 534), (992, 526), (1027, 511), (1123, 485), (1195, 466), (1267, 446), (1352, 431)]",344.4608131505446,"[8, 3, 7, 9, 4, 5, 1, 6, 2]","(0, 0.25)",DOT010A,DOT,A,English,Thu Aug 30 11:27:05 2018,Mouse
1,3,1,0,52,2,2,1,440,170,270,137,0,500,200,8000,"[(960, 540), (960, 540), (960, 540), (960, 540), (960, 540), (960, 540), (960, 540), (960, 540), (960, 540), (960, 540), (960, 540), (960, 540), (960, 540), (960, 540), (960, 540), (960, 540), (961, 540), (961, 540), (961, 540), (961, 540), (961, 540), (961, 540), (961, 540), (961, 540), (961, 540), (961, 540), (961, 540), (961, 540), (961, 540), (961, 540), (961, 540), (961, 540), (961, 540), (961, 540), (963, 539), (982, 525), (1000, 510), (1020, 496), (1051, 474), (1126, 426), (1169, 403), (1218, 374), (1267, 352), (1375, 302)]",330.1659887057088,"[8, 3, 7, 9, 4, 5, 1, 6, 2]","(0, 0.25)",DOT010A,DOT,A,English,Thu Aug 30 11:27:05 2018,Mouse
1,3,1,0,53,1,1,1,492,92,400,137,0,500,200,8000,"[(960, 540), (960, 540), (960, 540), (960, 540), (960, 540), (960, 540), (960, 540), (960, 540), (960, 540), (959, 540), (959, 540), (959, 540), (959, 540), (959, 540), (959, 540), (957, 541), (957, 541), (957, 541), (957, 541), (957, 541), (956, 542), (956, 542), (956, 542), (956, 542), (956, 542), (956, 542), (956, 542), (956, 542), (956, 542), (956, 542), (956, 542), (956, 542), (956, 542), (956, 542), (956, 542), (956, 542), (953, 537), (949, 526), (944, 514), (933, 477), (932, 456), (927, 429), (927, 410), (927, 343), (927, 307), (927, 276), (927, 234), (927, 187), (927, 159), (929, 141)]",265.5573730135058,"[8, 3, 7, 9, 4, 5, 1, 6, 2]","(0, 0.25)",DOT010A,DOT,A,English,Thu Aug 30 11:27:05 2018,Mouse
1,3,1,0,54,2,2,1,470,250,220,136,0,500,200,8000,"[(960, 540), (960, 540), (960, 540), (960, 540), (960, 540), (960, 540), (960, 540), (960, 540), (960, 540), (960, 540), (960, 540), (960, 540), (960, 540), (960, 540), (960, 540), (960, 540), (960, 540), (960, 540), (960, 540), (960, 540), (960, 540), (960, 540), (960, 540), (960, 540), (960, 541), (960, 547), (960, 551), (960, 559), (964, 566), (964, 568), (966, 570), (966, 570), (972, 572), (976, 572), (980, 572), (986, 572), (1004, 569), (1016, 566), (1034, 562), (1056, 556), (1117, 541), (1158, 532), (1201, 526), (1241, 521), (1322, 498), (1353, 488), (1384, 478)]",351.68080335050024,"[8, 3, 7, 9, 4, 5, 1, 6, 2]","(0, 0.25)",DOT010A,DOT,A,English,Thu Aug 30 11:27:05 2018,Mouse
1,3,1,0,55,7,5,0,-1430,50,1380,135,0,500,200,8000,"[(960, 540), (960, 540), (960, 540), (960, 540), (959, 541), (959, 541), (959, 541), (959, 541), (958, 541), (958, 541), (957, 541), (957, 541), (956, 541), (956, 541), (956, 541), (956, 542), (956, 542), (956, 542), (956, 542), (956, 542), (956, 542), (956, 542), (956, 542), (956, 542), (956, 542), (956, 542), (955, 542), (955, 542), (955, 542), (955, 542), (955, 542), (954, 542), (954, 542), (954, 542), (954, 542), (953, 542), (953, 543), (953, 543), (953, 543), (952, 544), (952, 544), (952, 544), (952, 544), (952, 544), (952, 544), (952, 544), (952, 544), (951, 544), (951, 544), (951, 544), (951, 544), (951, 544), (951, 544), (951, 544), (951, 544), (951, 544), (950, 544), (950, 544), (950, 544), (950, 544), (950, 545), (950, 545), (950, 545), (950, 545), (949, 545), (949, 545), (949, 545), (949, 545), (948, 547), (947, 547), (947, 548), (946, 550), (946, 552), (944, 555), (943, 556), (943, 558), (940, 564), (939, 566), (939, 568), (938, 570), (935, 575), (934, 577), (932, 579), (932, 580), (931, 582), (931, 583), (930, 584), (930, 584), (929, 586), (929, 586), (929, 586), (929, 586), (929, 586), (929, 586), (929, 586), (929, 586), (929, 586), (929, 586), (929, 586), (929, 586), (929, 586), (929, 586), (929, 586), (929, 586), (929, 586), (929, 586), (929, 586), (929, 586), (929, 586), (929, 586), (929, 586), (929, 586), (929, 586), (929, 586), (929, 586), (929, 586), (929, 586), (929, 586), (929, 586), (929, 586), (929, 586), (928, 586), (922, 581), (910, 563), (896, 535), (886, 514), (877, 493), (870, 480), (857, 449), (852, 438), (847, 429), (844, 423), (838, 415), (837, 413), (834, 409), (832, 407), (818, 395), (804, 385), (780, 370), (750, 355), (692, 318), (659, 298), (629, 278)]",218.36305141338661,"[8, 3, 7, 9, 4, 5, 1, 6, 2]","(0, 0.25)",DOT010A,DOT,A,English,Thu Aug 30 11:27:05 2018,Mouse
1,3,1,0,56,8,4,0,-2529,199,2330,136,0,500,200,8000,"[(960, 540), (960, 540), (960, 540), (960, 540), (960, 540), (960, 540), (960, 540), (960, 540), (960, 540), (960, 540), (960, 540), (960, 540), (960, 540), (960, 540), (960, 540), (960, 540), (960, 540), (960, 540), (960, 540), (959, 541), (959, 541), (959, 542), (959, 542), (958, 543), (957, 543), (956, 544), (955, 546), (954, 546), (953, 549), (952, 550), (950, 554), (949, 555), (946, 560), (945, 562), (944, 564), (942, 566), (941, 569), (940, 570), (940, 571), (939, 572), (938, 574), (938, 574), (938, 576), (938, 576), (937, 577), (937, 578), (936, 579), (936, 579), (935, 580), (935, 580), (935, 580), (935, 580), (935, 580), (935, 580), (935, 580), (935, 582), (934, 582), (934, 582), (934, 582), (934, 582), (933, 584), (933, 584), (933, 585), (932, 586), (932, 586), (932, 587), (932, 588), (932, 588), (931, 589), (931, 589), (930, 591), (929, 592), (928, 594), (927, 596), (926, 597), (925, 597), (923, 600), (922, 601), (922, 601), (921, 602), (920, 602), (920, 602), (920, 602), (920, 602), (919, 603), (919, 603), (919, 603), (919, 603), (919, 603), (919, 603), (919, 603), (919, 603), (919, 603), (919, 603), (919, 603), (919, 603), (919, 603), (919, 603), (919, 603), (919, 603), (919, 603), (919, 603), (919, 603), (919, 603), (919, 603), (919, 603), (919, 603), (917, 604), (917, 604), (917, 604), (916, 605), (916, 605), (916, 605), (916, 605), (916, 605), (916, 605), (916, 605), (916, 605), (916, 605), (916, 605), (916, 605), (916, 605), (916, 605), (916, 605), (916, 605), (916, 605), (916, 605), (916, 605), (916, 605), (916, 605), (916, 605), (916, 605), (916, 605), (916, 605), (916, 605), (916, 605), (916, 605), (916, 605), (916, 605), (916, 605), (916, 605), (916, 605), (916, 605), (916, 605), (916, 605), (916, 605), (916, 605), (916, 605), (915, 605), (915, 605), (915, 605), (915, 605), (915, 605), (915, 605), (915, 606), (915, 606), (915, 606), (915, 606), (915, 606), (915, 606), (915, 606), (915, 606), (915, 606), (915, 606), (915, 606), (915, 606), (915, 606), (915, 606), (915, 606), (915, 606), (915, 606), (915, 606), (915, 606), (915, 606), (915, 606), (915, 606), (915, 606), (915, 606), (915, 606), (915, 606), (915, 606), (915, 606), (915, 606), (915, 606), (915, 606), (915, 606), (915, 606), (915, 606), (915, 606), (915, 606), (915, 606), (915, 606), (915, 606), (915, 606), (915, 606), (915, 606), (915, 606), (915, 606), (915, 606), (915, 606), (915, 606), (915, 606), (915, 606), (915, 606), (915, 606), (915, 606), (915, 606), (915, 606), (915, 606), (915, 606), (915, 606), (915, 606), (915, 606), (915, 606), (915, 606), (915, 606), (915, 606), (915, 606), (915, 606), (915, 606), (915, 606), (914, 607), (914, 607), (914, 608), (913, 609), (912, 610), (912, 611), (912, 611), (912, 611), (911, 612), (911, 613), (910, 613), (909, 614), (909, 615), (908, 616), (906, 618), (902, 620), (901, 621), (898, 623), (892, 626), (876, 633), (861, 639), (845, 642), (831, 646), (795, 652), (776, 656), (753, 658), (734, 662), (687, 666), (665, 671), (642, 674), (617, 678), (569, 680)]",160.29977509404645,"[8, 3, 7, 9, 4, 5, 1, 6, 2]","(0, 0.25)",DOT010A,DOT,A,English,Thu Aug 30 11:27:05 2018,Mouse
1,3,1,0,57,5,5,1,1731,631,1100,137,0,500,200,8000,"[(960, 540), (960, 540), (960, 540), (960, 540), (960, 540), (960, 540), (960, 540), (960, 540), (960, 540), (960, 540), (960, 540), (960, 540), (960, 540), (960, 540), (960, 540), (960, 540), (960, 540), (960, 540), (960, 540), (960, 540), (960, 540), (960, 540), (960, 540), (960, 540), (960, 540), (960, 540), (960, 540), (960, 540), (960, 540), (960, 540), (960, 540), (960, 540), (960, 540), (960, 540), (960, 540), (960, 540), (960, 540), (960, 540), (960, 540), (960, 540), (960, 540), (960, 540), (960, 540), (960, 540), (960, 540), (960, 540), (960, 540), (960, 540), (960, 540), (960, 540), (960, 540), (960, 540), (960, 540), (960, 540), (960, 540), (960, 540), (960, 540), (960, 540), (960, 540), (960, 540), (960, 540), (960, 540), (960, 540), (958, 541), (958, 541), (958, 541), (958, 541), (958, 541), (958, 541), (958, 541), (958, 541), (958, 541), (958, 541), (958, 541), (958, 541), (958, 541), (958, 541), (958, 541), (958, 541), (958, 541), (958, 541), (958, 541), (958, 541), (958, 541), (958, 541), (958, 541), (958, 541), (958, 541), (958, 541), (958, 541), (958, 541), (958, 541), (958, 541), (958, 541), (958, 541), (958, 541), (958, 541), (958, 541), (958, 541), (958, 541), (958, 541), (958, 541), (958, 541), (958, 541), (958, 541), (958, 541), (958, 541), (958, 541), (958, 541), (958, 541), (958, 541), (958, 541), (958, 541), (958, 541), (958, 541), (958, 541), (958, 541), (958, 541), (958, 541), (958, 541), (958, 541), (958, 541), (958, 541), (958, 541), (958, 541), (958, 541), (958, 541), (958, 541), (958, 541), (958, 541), (958, 541), (958, 541), (958, 541), (958, 541), (958, 541), (958, 541), (958, 541), (958, 541), (958, 541), (958, 541), (958, 541), (958, 541), (955, 539), (941, 524), (935, 518), (926, 510), (916, 501), (896, 481), (882, 468), (872, 459), (862, 451), (837, 427), (824, 415), (812, 406), (800, 396), (775, 379), (765, 372), (754, 364), (748, 360), (738, 355), (735, 353), (733, 352), (731, 351), (724, 347), (721, 344), (713, 340), (706, 337), (694, 329), (687, 323), (682, 319), (675, 314), (662, 303), (652, 293), (647, 287)]",218.94884155460707,"[8, 3, 7, 9, 4, 5, 1, 6, 2]","(0, 0.25)",DOT010A,DOT,A,English,Thu Aug 30 11:27:05 2018,Mouse
1,3,1,0,58,8,8,1,809,429,380,137,0,500,200,8000,"[(960, 540), (960, 540), (960, 540), (960, 540), (960, 540), (960, 540), (960, 540), (960, 540), (960, 540), (960, 540), (960, 540), (960, 540), (960, 540), (960, 540), (960, 540), (960, 540), (960, 540), (960, 540), (960, 540), (960, 540), (960, 540), (960, 540), (960, 540), (960, 540), (960, 540), (960, 540), (960, 540), (960, 540), (960, 540), (960, 540), (960, 540), (960, 540), (960, 540), (960, 540), (960, 540), (960, 540), (960, 540), (960, 540), (960, 540), (960, 540), (960, 540), (960, 540), (962, 542), (962, 542), (964, 543), (965, 544), (966, 545), (968, 546), (975, 549), (981, 552), (988, 553), (996, 555), (1015, 559), (1024, 561), (1036, 563), (1048, 566), (1078, 569), (1098, 573), (1116, 574), (1133, 576), (1154, 576), (1165, 576), (1175, 576), (1182, 576), (1195, 576), (1200, 576), (1206, 576), (1212, 578), (1220, 578), (1225, 579), (1231, 581), (1239, 583), (1256, 589), (1262, 591), (1271, 594), (1282, 600), (1303, 607), (1314, 612), (1326, 618), (1335, 622), (1353, 627)]",12.482489384954482,"[8, 3, 7, 9, 4, 5, 1, 6, 2]","(0, 0.25)",DOT010A,DOT,A,English,Thu Aug 30 11:27:05 2018,Mouse
1,3,1,0,59,7,7,1,1160,160,1000,136,0,500,200,8000,"[(960, 540), (960, 540), (960, 540), (960, 540), (960, 540), (960, 540), (960, 540), (960, 540), (960, 540), (960, 540), (960, 540), (960, 540), (960, 540), (960, 540), (960, 540), (960, 541), (960, 541), (960, 541), (960, 542), (960, 542), (960, 543), (960, 543), (960, 543), (959, 543), (959, 543), (959, 543), (958, 544), (958, 544), (958, 544), (958, 544), (957, 545), (957, 545), (957, 545), (957, 545), (957, 545), (957, 545), (957, 545), (957, 545), (957, 545), (957, 545), (957, 545), (957, 545), (957, 545), (957, 545), (957, 545), (957, 545), (957, 545), (957, 545), (956, 546), (956, 546), (956, 546), (956, 546), (956, 546), (956, 546), (955, 547), (955, 547), (955, 547), (955, 547), (954, 548), (954, 548), (954, 548), (954, 548), (954, 548), (954, 548), (954, 548), (954, 548), (954, 549), (954, 549), (954, 549), (954, 549), (954, 550), (954, 550), (954, 550), (954, 550), (953, 551), (953, 551), (953, 552), (953, 552), (953, 552), (953, 552), (953, 552), (953, 552), (953, 552), (953, 552), (953, 552), (953, 552), (952, 553), (952, 554), (952, 554), (952, 555), (951, 556), (951, 558), (950, 560), (950, 561), (948, 567), (946, 570), (946, 573), (943, 577), (941, 583), (938, 588), (937, 594), (934, 601), (931, 618), (928, 629), (927, 639), (926, 650), (921, 679), (921, 699), (921, 718), (921, 738), (921, 794), (921, 816), (921, 841), (921, 869), (921, 922), (921, 947)]",95.47354697192999,"[8, 3, 7, 9, 4, 5, 1, 6, 2]","(0, 0.25)",DOT010A,DOT,A,English,Thu Aug 30 11:27:05 2018,Mouse
1,3,1,0,60,8,5,0,-2110,1630,480,135,0,500,200,8000,"[(960, 540), (960, 540), (960, 540), (960, 540), (960, 540), (960, 540), (960, 540), (960, 540), (960, 540), (960, 540), (960, 540), (960, 540), (960, 540), (960, 540), (960, 540), (960, 540), (960, 540), (960, 540), (960, 540), (960, 540), (960, 540), (960, 540), (960, 540), (960, 540), (960, 540), (960, 540), (960, 540), (960, 540), (960, 540), (960, 540), (960, 540), (960, 540), (960, 540), (960, 540), (960, 540), (960, 540), (960, 540), (960, 540), (960, 540), (960, 540), (960, 540), (960, 540), (960, 540), (960, 540), (960, 540), (960, 540), (960, 540), (960, 540), (960, 540), (960, 540), (960, 540), (960, 540), (960, 540), (960, 540), (960, 540), (960, 540), (960, 540), (960, 540), (960, 540), (960, 540), (960, 540), (960, 540), (960, 540), (960, 540), (960, 540), (960, 540), (960, 540), (960, 540), (960, 540), (960, 540), (960, 540), (960, 540), (960, 540), (960, 540), (960, 540), (960, 540), (960, 540), (960, 540), (960, 540), (960, 540), (960, 540), (960, 540), (960, 540), (960, 540), (960, 540), (960, 540), (960, 540), (960, 540), (960, 540), (960, 540), (960, 540), (960, 540), (960, 540), (960, 540), (960, 540), (960, 540), (960, 540), (960, 540), (960, 540), (960, 540), (960, 540), (960, 540), (960, 540), (960, 540), (960, 540), (960, 540), (960, 540), (960, 540), (960, 540), (960, 540), (960, 540), (960, 540), (960, 540), (960, 540), (960, 540), (960, 540), (960, 540), (960, 540), (960, 540), (960, 540), (960, 540), (960, 540), (960, 540), (960, 540), (960, 540), (960, 540), (960, 540), (960, 540), (960, 540), (960, 540), (960, 540), (960, 540), (960, 540), (960, 540), (960, 540), (960, 540), (960, 540), (960, 540), (960, 540), (960, 540), (960, 540), (960, 540), (960, 540), (960, 540), (960, 540), (960, 540), (960, 540), (960, 540), (960, 540), (960, 540), (960, 540), (960, 540), (960, 540), (960, 540), (960, 540), (960, 540), (960, 540), (960, 540), (960, 540), (960, 540), (960, 540), (960, 540), (959, 541), (959, 541), (957, 542), (955, 543), (955, 543), (953, 543), (952, 543), (949, 543), (947, 543), (945, 543), (942, 541), (934, 537), (928, 533), (921, 527), (914, 522), (897, 506), (890, 499), (881, 490), (870, 481), (854, 465), (846, 455), (838, 447), (828, 437), (807, 420), (793, 410), (782, 402), (768, 390), (733, 371), (726, 368), (712, 359), (702, 352), (683, 341), (676, 338), (670, 335), (667, 334), (665, 333), (665, 333), (664, 333), (664, 332), (662, 332), (660, 331), (659, 330), (657, 328), (649, 324), (645, 320), (640, 318), (638, 316), (632, 312), (632, 311)]",214.92161788357512,"[8, 3, 7, 9, 4, 5, 1, 6, 2]","(0, 0.25)",DOT010A,DOT,A,English,Thu Aug 30 11:27:05 2018,Mouse
1,3,1,0,61,8,8,1,660,350,310,136,0,500,200,8000,"[(960, 540), (960, 540), (960, 540), (960, 540), (960, 540), (960, 540), (960, 540), (960, 540), (960, 540), (960, 540), (960, 540), (960, 540), (960, 540), (960, 540), (960, 540), (960, 540), (960, 540), (960, 540), (960, 540), (960, 540), (960, 540), (960, 540), (960, 540), (960, 540), (960, 540), (960, 540), (960, 540), (960, 540), (960, 540), (960, 540), (960, 540), (960, 540), (960, 540), (960, 540), (960, 541), (960, 542), (960, 542), (960, 543), (960, 543), (960, 543), (960, 543), (960, 543), (960, 543), (960, 543), (960, 543), (960, 543), (960, 543), (960, 543), (960, 543), (960, 544), (960, 544), (960, 545), (962, 546), (966, 547), (969, 547), (972, 550), (979, 552), (996, 559), (1007, 562), (1020, 566), (1038, 571), (1102, 589), (1146, 600), (1190, 614), (1245, 628), (1354, 661)]",17.072067655793163,"[8, 3, 7, 9, 4, 5, 1, 6, 2]","(0, 0.25)",DOT010A,DOT,A,English,Thu Aug 30 11:27:05 2018,Mouse
1,3,1,0,62,6,7,0,-660,470,190,136,0,500,200,8000,"[(960, 540), (960, 540), (960, 540), (960, 540), (960, 540), (960, 540), (960, 540), (960, 540), (960, 540), (960, 540), (960, 540), (960, 540), (960, 540), (960, 540), (960, 540), (960, 540), (960, 540), (960, 540), (960, 540), (960, 540), (960, 540), (960, 540), (960, 540), (960, 540), (960, 540), (960, 540), (960, 540), (960, 540), (960, 540), (960, 540), (960, 540), (960, 540), (960, 540), (960, 540), (960, 540), (960, 540), (960, 540), (960, 540), (960, 540), (960, 540), (960, 540), (960, 540), (960, 540), (960, 540), (960, 540), (960, 540), (961, 545), (961, 553), (961, 560), (961, 569), (961, 595), (963, 611), (968, 643), (972, 675), (977, 737), (977, 765), (977, 785), (977, 807), (977, 844), (977, 861), (976, 873), (971, 889), (965, 914), (963, 925), (959, 938), (958, 950)]",90.27948939054475,"[8, 3, 7, 9, 4, 5, 1, 6, 2]","(0, 0.25)",DOT010A,DOT,A,English,Thu Aug 30 11:27:05 2018,Mouse
