NativeLangNumber,LanuageNumber,SessionNumber,Block,TrialNum,ConditionNumber,Response,Accuracy,RT,MovementOnsetTime,TimeInMotion,SignalContrast,SignalContrastNumber,StimDisplayTime,MaskTime,MaxResponseTime,MousePositionXY,MouseAngle,WheelOrder,NoiseMuSigma,ParticipantID,LanuageTested,SessionTested,NativeLanuage,Date,ResponseDevice
2,3,1,0,1,4,4,1,1176,1126,50,153,0,500,200,8000,"[(512, 384), (512, 384), (512, 384), (512, 384), (512, 384), (512, 384), (512, 384), (512, 384), (512, 384), (512, 384), (512, 384), (512, 384), (512, 384), (512, 384), (512, 384), (512, 384), (512, 384), (512, 384), (512, 384), (512, 384), (512, 384), (512, 384), (512, 384), (512, 384), (512, 384), (512, 384), (512, 384), (512, 384), (512, 384), (512, 384), (512, 384), (512, 384), (512, 384), (512, 384), (512, 384), (512, 384), (512, 384), (512, 384), (512, 384), (512, 384), (512, 384), (512, 384), (512, 384), (512, 384), (512, 384), (512, 384), (512, 384), (512, 384), (512, 384), (512, 384), (512, 384), (512, 384), (512, 384), (512, 384), (512, 384), (512, 384), (512, 384), (512, 384), (512, 384), (512, 384), (512, 384), (512, 384), (512, 384), (512, 384), (512, 384), (512, 384), (512, 384), (512, 384), (512, 384), (512, 384), (512, 384), (512, 384), (512, 384), (512, 384), (512, 384), (512, 384), (512, 384), (512, 384), (512, 384), (512, 384), (512, 384), (512, 384), (512, 384), (512, 384), (512, 384), (512, 384), (512, 384), (512, 384), (512, 384), (512, 384), (512, 384), (512, 384), (512, 384), (512, 384), (512, 384), (512, 384), (512, 384), (512, 384), (512, 384), (512, 384), (512, 384), (512, 384), (512, 384), (512, 384), (512, 384), (512, 384), (512, 384), (512, 384), (512, 384), (512, 384), (512, 384), (512, 384), (513, 384), (521, 398), (532, 417), (549, 442), (600, 489), (708, 591)]",46.56351643859483,"[2, 4, 6, 1, 9, 3, 5, 8, 7]","(0, 0.25)",DOT010A,DOT,A,Chinese,Mon Nov  5 13:52:50 2018,Mouse
2,3,1,0,2,3,3,1,402,322,80,153,0,500,200,8000,"[(512, 384), (512, 384), (512, 384), (512, 384), (512, 384), (512, 384), (512, 384), (512, 384), (512, 384), (512, 384), (512, 384), (512, 384), (512, 384), (512, 384), (512, 384), (512, 384), (512, 384), (512, 384), (512, 384), (512, 384), (512, 384), (512, 384), (512, 384), (512, 384), (512, 384), (512, 384), (512, 384), (512, 384), (512, 384), (512, 384), (512, 384), (512, 384), (508, 380), (502, 374), (496, 365), (484, 348), (448, 297), (421, 268), (376, 235), (345, 209), (278, 165)]",223.1034816967907,"[2, 4, 6, 1, 9, 3, 5, 8, 7]","(0, 0.25)",DOT010A,DOT,A,Chinese,Mon Nov  5 13:52:50 2018,Mouse
2,3,1,0,3,3,3,1,352,282,70,152,0,500,200,8000,"[(512, 384), (512, 384), (512, 384), (512, 384), (512, 384), (512, 384), (512, 384), (512, 384), (512, 384), (512, 384), (512, 384), (512, 384), (512, 384), (512, 384), (512, 384), (512, 384), (512, 384), (512, 384), (512, 384), (512, 384), (512, 384), (512, 384), (512, 384), (512, 384), (512, 384), (512, 384), (512, 384), (512, 384), (507, 376), (496, 358), (474, 328), (455, 307), (395, 257), (367, 236), (336, 219), (309, 203)]",221.72101374114558,"[2, 4, 6, 1, 9, 3, 5, 8, 7]","(0, 0.25)",DOT010A,DOT,A,Chinese,Mon Nov  5 13:52:50 2018,Mouse
2,3,1,0,4,1,1,1,309,259,50,151,0,500,200,8000,"[(512, 384), (512, 384), (512, 384), (512, 384), (512, 384), (512, 384), (512, 384), (512, 384), (512, 384), (512, 384), (512, 384), (512, 384), (512, 384), (512, 384), (512, 384), (512, 384), (512, 384), (512, 384), (512, 384), (512, 384), (512, 384), (512, 384), (512, 384), (512, 384), (512, 384), (511, 385), (500, 396), (473, 425), (398, 502), (352, 544), (312, 582)]",135.28791606655707,"[2, 4, 6, 1, 9, 3, 5, 8, 7]","(0, 0.25)",DOT010A,DOT,A,Chinese,Mon Nov  5 13:52:50 2018,Mouse
2,3,1,0,5,1,1,1,92,22,70,150,0,500,200,8000,"[(512, 384), (512, 384), (510, 385), (495, 394), (474, 410), (449, 430), (388, 468), (349, 495), (310, 525), (274, 550)]",145.10503636503796,"[2, 4, 6, 1, 9, 3, 5, 8, 7]","(0, 0.25)",DOT010A,DOT,A,Chinese,Mon Nov  5 13:52:50 2018,Mouse
2,3,1,0,6,6,6,1,370,250,120,149,0,500,200,8000,"[(512, 384), (512, 384), (512, 384), (512, 384), (512, 384), (512, 384), (512, 384), (512, 384), (512, 384), (512, 384), (512, 384), (512, 384), (512, 384), (512, 384), (512, 384), (512, 384), (512, 384), (512, 384), (512, 384), (512, 384), (512, 384), (512, 384), (512, 384), (512, 384), (510, 392), (509, 398), (506, 408), (503, 418), (490, 455), (485, 474), (477, 502), (472, 529), (469, 575), (468, 589), (468, 601), (466, 613), (463, 631)]",101.22068678371525,"[2, 4, 6, 1, 9, 3, 5, 8, 7]","(0, 0.25)",DOT010A,DOT,A,Chinese,Mon Nov  5 13:52:50 2018,Mouse
2,3,1,0,7,6,6,1,273,13,260,148,0,500,200,8000,"[(487, 410), (512, 420), (512, 454), (512, 502), (512, 514), (512, 525), (512, 530), (512, 532), (512, 532), (512, 532), (512, 532), (512, 532), (512, 532), (512, 532), (512, 532), (512, 532), (512, 532), (512, 532), (512, 532), (512, 532), (512, 532), (512, 535), (506, 548), (496, 582), (487, 603), (481, 616), (476, 626), (467, 649)]",99.63753811293094,"[2, 4, 6, 1, 9, 3, 5, 8, 7]","(0, 0.25)",DOT010A,DOT,A,Chinese,Mon Nov  5 13:52:50 2018,Mouse
2,3,1,0,8,4,4,1,594,474,120,147,0,500,200,8000,"[(512, 384), (512, 384), (512, 384), (512, 384), (512, 384), (512, 384), (512, 384), (512, 384), (512, 384), (512, 384), (512, 384), (512, 384), (512, 384), (512, 384), (512, 384), (512, 384), (512, 384), (512, 384), (512, 384), (512, 384), (512, 384), (512, 384), (512, 384), (512, 384), (512, 384), (512, 384), (512, 384), (512, 384), (512, 384), (512, 384), (512, 384), (512, 384), (512, 384), (512, 384), (512, 384), (512, 384), (512, 384), (512, 384), (512, 384), (512, 384), (512, 384), (512, 384), (512, 384), (512, 384), (512, 384), (512, 384), (512, 384), (518, 387), (522, 397), (532, 409), (537, 421), (549, 449), (554, 466), (556, 479), (559, 499), (571, 538), (582, 565), (592, 581), (606, 603), (629, 643)]",65.68952378885704,"[2, 4, 6, 1, 9, 3, 5, 8, 7]","(0, 0.25)",DOT010A,DOT,A,Chinese,Mon Nov  5 13:52:50 2018,Mouse
2,3,1,0,9,1,1,1,216,66,150,146,0,500,200,8000,"[(512, 384), (512, 384), (512, 384), (512, 384), (512, 384), (512, 384), (510, 385), (495, 406), (487, 416), (478, 425), (471, 434), (463, 445), (462, 446), (460, 446), (459, 448), (459, 448), (459, 448), (459, 448), (459, 448), (426, 500), (382, 563), (333, 630)]",126.04121963411224,"[2, 4, 6, 1, 9, 3, 5, 8, 7]","(0, 0.25)",DOT010A,DOT,A,Chinese,Mon Nov  5 13:52:50 2018,Mouse
2,3,1,0,10,2,2,1,432,342,90,145,0,500,200,8000,"[(512, 384), (512, 384), (512, 384), (512, 384), (512, 384), (512, 384), (512, 384), (512, 384), (512, 384), (512, 384), (512, 384), (512, 384), (512, 384), (512, 384), (512, 384), (512, 384), (512, 384), (512, 384), (512, 384), (512, 384), (512, 384), (512, 384), (512, 384), (512, 384), (512, 384), (512, 384), (512, 384), (512, 384), (512, 384), (512, 384), (512, 384), (512, 384), (512, 384), (512, 384), (517, 384), (526, 386), (542, 393), (565, 400), (632, 421), (665, 430), (689, 441), (702, 447), (748, 462), (773, 468)]",17.840204307703512,"[2, 4, 6, 1, 9, 3, 5, 8, 7]","(0, 0.25)",DOT010A,DOT,A,Chinese,Mon Nov  5 13:52:50 2018,Mouse
2,3,1,0,11,8,7,0,-853,823,30,144,0,500,200,8000,"[(512, 384), (512, 384), (512, 384), (512, 384), (512, 384), (512, 384), (512, 384), (512, 384), (512, 384), (512, 384), (512, 384), (512, 384), (512, 384), (512, 384), (512, 384), (512, 384), (512, 384), (512, 384), (512, 384), (512, 384), (512, 384), (512, 384), (512, 384), (512, 384), (512, 384), (512, 384), (512, 384), (512, 384), (512, 384), (512, 384), (512, 384), (512, 384), (512, 384), (512, 384), (512, 384), (512, 384), (512, 384), (512, 384), (512, 384), (512, 384), (512, 384), (512, 384), (512, 384), (512, 384), (512, 384), (512, 384), (512, 384), (512, 384), (512, 384), (512, 384), (512, 384), (512, 384), (512, 384), (512, 384), (512, 384), (512, 384), (512, 384), (512, 384), (512, 384), (512, 384), (512, 384), (512, 384), (512, 384), (512, 384), (512, 384), (512, 384), (512, 384), (512, 384), (512, 384), (512, 384), (512, 384), (512, 384), (512, 384), (512, 384), (512, 384), (512, 384), (512, 384), (512, 384), (512, 384), (512, 384), (512, 384), (512, 384), (518, 371), (620, 302), (687, 251), (765, 193)]",322.94935916974697,"[2, 4, 6, 1, 9, 3, 5, 8, 7]","(0, 0.25)",DOT010A,DOT,A,Chinese,Mon Nov  5 13:52:50 2018,Mouse
2,3,1,0,12,2,2,1,431,381,50,145,0,500,200,8000,"[(512, 384), (512, 384), (512, 384), (512, 384), (512, 384), (512, 384), (512, 384), (512, 384), (512, 384), (512, 384), (512, 384), (512, 384), (512, 384), (512, 384), (512, 384), (512, 384), (512, 384), (512, 384), (512, 384), (512, 384), (512, 384), (512, 384), (512, 384), (512, 384), (512, 384), (512, 384), (512, 384), (512, 384), (512, 384), (512, 384), (512, 384), (512, 384), (512, 384), (512, 384), (512, 384), (512, 384), (512, 384), (512, 384), (526, 385), (548, 392), (587, 403), (626, 417), (709, 451), (752, 471)]",19.925580658184327,"[2, 4, 6, 1, 9, 3, 5, 8, 7]","(0, 0.25)",DOT010A,DOT,A,Chinese,Mon Nov  5 13:52:50 2018,Mouse
2,3,1,0,13,1,1,1,497,377,120,145,0,500,200,8000,"[(512, 384), (512, 384), (512, 384), (512, 384), (512, 384), (512, 384), (512, 384), (512, 384), (512, 384), (512, 384), (512, 384), (512, 384), (512, 384), (512, 384), (512, 384), (512, 384), (512, 384), (512, 384), (512, 384), (512, 384), (512, 384), (512, 384), (512, 384), (512, 384), (512, 384), (512, 384), (512, 384), (512, 384), (512, 384), (512, 384), (512, 384), (512, 384), (512, 384), (512, 384), (512, 384), (512, 384), (512, 384), (504, 389), (471, 430), (451, 456), (428, 474), (405, 490), (367, 512), (356, 517), (348, 521), (342, 523), (333, 530), (328, 535), (323, 544), (318, 555)]",138.60565167391226,"[2, 4, 6, 1, 9, 3, 5, 8, 7]","(0, 0.25)",DOT010A,DOT,A,Chinese,Mon Nov  5 13:52:50 2018,Mouse
2,3,1,0,14,6,6,1,402,342,60,144,0,500,200,8000,"[(512, 384), (512, 384), (512, 384), (512, 384), (512, 384), (512, 384), (512, 384), (512, 384), (512, 384), (512, 384), (512, 384), (512, 384), (512, 384), (512, 384), (512, 384), (512, 384), (512, 384), (512, 384), (512, 384), (512, 384), (512, 384), (512, 384), (512, 384), (512, 384), (512, 384), (512, 384), (512, 384), (512, 384), (512, 384), (512, 384), (512, 384), (512, 384), (512, 384), (512, 384), (513, 392), (513, 414), (512, 454), (499, 538), (490, 581), (476, 621), (472, 648)]",98.61564818416412,"[2, 4, 6, 1, 9, 3, 5, 8, 7]","(0, 0.25)",DOT010A,DOT,A,Chinese,Mon Nov  5 13:52:50 2018,Mouse
2,3,1,0,15,2,2,1,324,254,70,143,0,500,200,8000,"[(512, 384), (512, 384), (512, 384), (512, 384), (512, 384), (512, 384), (512, 384), (512, 384), (512, 384), (512, 384), (512, 384), (512, 384), (512, 384), (512, 384), (512, 384), (512, 384), (512, 384), (512, 384), (512, 384), (512, 384), (512, 384), (512, 384), (512, 384), (512, 384), (512, 384), (513, 383), (517, 383), (521, 383), (549, 388), (580, 397), (627, 413), (667, 428), (772, 473)]",18.896469861126516,"[2, 4, 6, 1, 9, 3, 5, 8, 7]","(0, 0.25)",DOT010A,DOT,A,Chinese,Mon Nov  5 13:52:50 2018,Mouse
2,3,1,0,16,2,2,1,302,42,260,142,0,500,200,8000,"[(512, 384), (512, 384), (512, 384), (512, 384), (514, 384), (519, 384), (528, 385), (534, 387), (544, 388), (547, 389), (547, 389), (547, 389), (547, 389), (547, 389), (547, 389), (547, 389), (547, 389), (547, 389), (547, 389), (549, 389), (559, 390), (566, 393), (574, 395), (584, 398), (608, 406), (622, 411), (642, 418), (663, 425), (708, 447), (729, 457), (761, 474)]",19.8721758192439,"[2, 4, 6, 1, 9, 3, 5, 8, 7]","(0, 0.25)",DOT010A,DOT,A,Chinese,Mon Nov  5 13:52:50 2018,Mouse
2,3,1,0,17,7,7,1,583,483,100,141,0,500,200,8000,"[(512, 384), (512, 384), (512, 384), (512, 384), (512, 384), (512, 384), (512, 384), (512, 384), (512, 384), (512, 384), (512, 384), (512, 384), (512, 384), (512, 384), (512, 384), (512, 384), (512, 384), (512, 384), (512, 384), (512, 384), (512, 384), (512, 384), (512, 384), (512, 384), (512, 384), (512, 384), (512, 384), (512, 384), (512, 384), (512, 384), (512, 384), (512, 384), (512, 384), (512, 384), (512, 384), (512, 384), (512, 384), (512, 384), (512, 384), (512, 384), (512, 384), (512, 384), (512, 384), (512, 384), (512, 384), (512, 384), (512, 384), (512, 384), (513, 384), (514, 384), (518, 384), (522, 384), (529, 384), (540, 384), (571, 384), (608, 382), (644, 375), (685, 363), (798, 335)]",350.27798198618893,"[2, 4, 6, 1, 9, 3, 5, 8, 7]","(0, 0.25)",DOT010A,DOT,A,Chinese,Mon Nov  5 13:52:50 2018,Mouse
2,3,1,0,18,5,5,1,601,521,80,140,0,500,200,8000,"[(512, 384), (512, 384), (512, 384), (512, 384), (512, 384), (512, 384), (512, 384), (512, 384), (512, 384), (512, 384), (512, 384), (512, 384), (512, 384), (512, 384), (512, 384), (512, 384), (512, 384), (512, 384), (512, 384), (512, 384), (512, 384), (512, 384), (512, 384), (512, 384), (512, 384), (512, 384), (512, 384), (512, 384), (512, 384), (512, 384), (512, 384), (512, 384), (512, 384), (512, 384), (512, 384), (512, 384), (512, 384), (512, 384), (512, 384), (512, 384), (512, 384), (512, 384), (512, 384), (512, 384), (512, 384), (512, 384), (512, 384), (512, 384), (512, 384), (512, 384), (512, 384), (512, 384), (512, 354), (512, 329), (512, 299), (511, 265), (504, 201), (503, 178), (500, 160), (497, 141), (497, 112)]",266.8435035296351,"[2, 4, 6, 1, 9, 3, 5, 8, 7]","(0, 0.25)",DOT010A,DOT,A,Chinese,Mon Nov  5 13:52:50 2018,Mouse
2,3,1,0,19,4,5,0,-401,301,100,139,0,500,200,8000,"[(512, 384), (512, 384), (512, 384), (512, 384), (512, 384), (512, 384), (512, 384), (512, 384), (512, 384), (512, 384), (512, 384), (512, 384), (512, 384), (512, 384), (512, 384), (512, 384), (512, 384), (512, 384), (512, 384), (512, 384), (512, 384), (512, 384), (512, 384), (512, 384), (512, 384), (512, 384), (512, 384), (512, 384), (512, 384), (512, 384), (512, 370), (511, 357), (504, 313), (497, 280), (496, 259), (492, 238), (490, 192), (489, 179), (487, 159), (485, 144), (479, 115)]",263.0060950458454,"[2, 4, 6, 1, 9, 3, 5, 8, 7]","(0, 0.25)",DOT010A,DOT,A,Chinese,Mon Nov  5 13:52:50 2018,Mouse
2,3,1,0,20,4,4,1,602,522,80,140,0,500,200,8000,"[(512, 384), (512, 384), (512, 384), (512, 384), (512, 384), (512, 384), (512, 384), (512, 384), (512, 384), (512, 384), (512, 384), (512, 384), (512, 384), (512, 384), (512, 384), (512, 384), (512, 384), (512, 384), (512, 384), (512, 384), (512, 384), (512, 384), (512, 384), (512, 384), (512, 384), (512, 384), (512, 384), (512, 384), (512, 384), (512, 384), (512, 384), (512, 384), (512, 384), (512, 384), (512, 384), (512, 384), (512, 384), (512, 384), (512, 384), (512, 384), (512, 384), (512, 384), (512, 384), (512, 384), (512, 384), (512, 384), (512, 384), (512, 384), (512, 384), (512, 384), (512, 384), (512, 384), (520, 395), (525, 406), (531, 419), (534, 437), (562, 495), (583, 536), (600, 573), (610, 602), (633, 654)]",65.86055139056177,"[2, 4, 6, 1, 9, 3, 5, 8, 7]","(0, 0.25)",DOT010A,DOT,A,Chinese,Mon Nov  5 13:52:50 2018,Mouse
2,3,1,0,21,4,4,1,743,683,60,140,0,500,200,8000,"[(512, 384), (512, 384), (512, 384), (512, 384), (512, 384), (512, 384), (512, 384), (512, 384), (512, 384), (512, 384), (512, 384), (512, 384), (512, 384), (512, 384), (512, 384), (512, 384), (512, 384), (512, 384), (512, 384), (512, 384), (512, 384), (512, 384), (512, 384), (512, 384), (512, 384), (512, 384), (512, 384), (512, 384), (512, 384), (512, 384), (512, 384), (512, 384), (512, 384), (512, 384), (512, 384), (512, 384), (512, 384), (512, 384), (512, 384), (512, 384), (512, 384), (512, 384), (512, 384), (512, 384), (512, 384), (512, 384), (512, 384), (512, 384), (512, 384), (512, 384), (512, 384), (512, 384), (512, 384), (512, 384), (512, 384), (512, 384), (512, 384), (512, 384), (512, 384), (512, 384), (512, 384), (512, 384), (512, 384), (512, 384), (512, 384), (512, 384), (512, 384), (512, 384), (519, 403), (533, 435), (548, 472), (566, 544), (575, 580), (591, 614), (600, 638)]",70.89101427909348,"[2, 4, 6, 1, 9, 3, 5, 8, 7]","(0, 0.25)",DOT010A,DOT,A,Chinese,Mon Nov  5 13:52:50 2018,Mouse
2,3,1,0,22,5,5,1,542,492,50,139,0,500,200,8000,"[(512, 384), (512, 384), (512, 384), (512, 384), (512, 384), (512, 384), (512, 384), (512, 384), (512, 384), (512, 384), (512, 384), (512, 384), (512, 384), (512, 384), (512, 384), (512, 384), (512, 384), (512, 384), (512, 384), (512, 384), (512, 384), (512, 384), (512, 384), (512, 384), (512, 384), (512, 384), (512, 384), (512, 384), (512, 384), (512, 384), (512, 384), (512, 384), (512, 384), (512, 384), (512, 384), (512, 384), (512, 384), (512, 384), (512, 384), (512, 384), (512, 384), (512, 384), (512, 384), (512, 384), (512, 384), (512, 384), (512, 384), (512, 384), (512, 384), (506, 349), (498, 292), (485, 245), (476, 209), (460, 151), (459, 131)]",258.1684208212595,"[2, 4, 6, 1, 9, 3, 5, 8, 7]","(0, 0.25)",DOT010A,DOT,A,Chinese,Mon Nov  5 13:52:50 2018,Mouse
2,3,1,0,23,9,8,0,-819,749,70,138,0,500,200,8000,"[(512, 384), (512, 384), (512, 384), (512, 384), (512, 384), (512, 384), (512, 384), (512, 384), (512, 384), (512, 384), (512, 384), (512, 384), (512, 384), (512, 384), (512, 384), (512, 384), (512, 384), (512, 384), (512, 384), (512, 384), (512, 384), (512, 384), (512, 384), (512, 384), (512, 384), (512, 384), (512, 384), (512, 384), (512, 384), (512, 384), (512, 384), (512, 384), (512, 384), (512, 384), (512, 384), (512, 384), (512, 384), (512, 384), (512, 384), (512, 384), (512, 384), (512, 384), (512, 384), (512, 384), (512, 384), (512, 384), (512, 384), (512, 384), (512, 384), (512, 384), (512, 384), (512, 384), (512, 384), (512, 384), (512, 384), (512, 384), (512, 384), (512, 384), (512, 384), (512, 384), (512, 384), (512, 384), (512, 384), (512, 384), (512, 384), (512, 384), (512, 384), (512, 384), (512, 384), (512, 384), (512, 384), (512, 384), (512, 384), (512, 384), (532, 364), (563, 344), (589, 321), (605, 306), (634, 272), (656, 249), (683, 219), (701, 199)]",315.612765722264,"[2, 4, 6, 1, 9, 3, 5, 8, 7]","(0, 0.25)",DOT010A,DOT,A,Chinese,Mon Nov  5 13:52:50 2018,Mouse
2,3,1,0,24,2,2,1,562,462,100,139,0,500,200,8000,"[(512, 384), (512, 384), (512, 384), (512, 384), (512, 384), (512, 384), (512, 384), (512, 384), (512, 384), (512, 384), (512, 384), (512, 384), (512, 384), (512, 384), (512, 384), (512, 384), (512, 384), (512, 384), (512, 384), (512, 384), (512, 384), (512, 384), (512, 384), (512, 384), (512, 384), (512, 384), (512, 384), (512, 384), (512, 384), (512, 384), (512, 384), (512, 384), (512, 384), (512, 384), (512, 384), (512, 384), (512, 384), (512, 384), (512, 384), (512, 384), (512, 384), (512, 384), (512, 384), (512, 384), (512, 384), (512, 384), (512, 385), (512, 385), (514, 387), (517, 388), (528, 388), (542, 392), (559, 394), (620, 409), (653, 416), (691, 423), (768, 443)]",12.97826992231352,"[2, 4, 6, 1, 9, 3, 5, 8, 7]","(0, 0.25)",DOT010A,DOT,A,Chinese,Mon Nov  5 13:52:50 2018,Mouse
2,3,1,0,25,8,8,1,637,517,120,139,0,500,200,8000,"[(512, 384), (512, 384), (512, 384), (512, 384), (512, 384), (512, 384), (512, 384), (512, 384), (512, 384), (512, 384), (512, 384), (512, 384), (512, 384), (512, 384), (512, 384), (512, 384), (512, 384), (512, 384), (512, 384), (512, 384), (512, 384), (512, 384), (512, 384), (512, 384), (512, 384), (512, 384), (512, 384), (512, 384), (512, 384), (512, 384), (512, 384), (512, 384), (512, 384), (512, 384), (512, 384), (512, 384), (512, 384), (512, 384), (512, 384), (512, 384), (512, 384), (512, 384), (512, 384), (512, 384), (512, 384), (512, 384), (512, 384), (512, 384), (512, 384), (512, 384), (512, 384), (521, 380), (546, 357), (555, 341), (567, 322), (575, 306), (595, 259), (599, 247), (605, 230), (612, 213), (619, 188), (621, 176), (622, 166), (625, 156)]",296.36366086581023,"[2, 4, 6, 1, 9, 3, 5, 8, 7]","(0, 0.25)",DOT010A,DOT,A,Chinese,Mon Nov  5 13:52:50 2018,Mouse
2,3,1,0,26,7,7,1,391,341,50,138,0,500,200,8000,"[(512, 384), (512, 384), (512, 384), (512, 384), (512, 384), (512, 384), (512, 384), (512, 384), (512, 384), (512, 384), (512, 384), (512, 384), (512, 384), (512, 384), (512, 384), (512, 384), (512, 384), (512, 384), (512, 384), (512, 384), (512, 384), (512, 384), (512, 384), (512, 384), (512, 384), (512, 384), (512, 384), (512, 384), (512, 384), (512, 384), (512, 384), (512, 384), (512, 384), (512, 384), (523, 378), (555, 366), (586, 354), (683, 328), (721, 317), (762, 310)]",343.51124629410873,"[2, 4, 6, 1, 9, 3, 5, 8, 7]","(0, 0.25)",DOT010A,DOT,A,Chinese,Mon Nov  5 13:52:50 2018,Mouse
2,3,1,0,27,5,5,1,542,392,150,137,0,500,200,8000,"[(512, 384), (512, 384), (512, 384), (512, 384), (512, 384), (512, 384), (512, 384), (512, 384), (512, 384), (512, 384), (512, 384), (512, 384), (512, 384), (512, 384), (512, 384), (512, 384), (512, 384), (512, 384), (512, 384), (512, 384), (512, 384), (512, 384), (512, 384), (512, 384), (512, 384), (512, 384), (512, 384), (512, 384), (512, 384), (512, 384), (512, 384), (512, 384), (512, 384), (512, 384), (512, 384), (512, 384), (512, 384), (512, 384), (512, 384), (511, 383), (511, 377), (511, 365), (509, 332), (504, 310), (500, 291), (494, 276), (488, 252), (488, 240), (488, 228), (488, 211), (488, 181), (488, 166), (488, 154), (486, 144), (484, 131)]",263.68466542368594,"[2, 4, 6, 1, 9, 3, 5, 8, 7]","(0, 0.25)",DOT010A,DOT,A,Chinese,Mon Nov  5 13:52:50 2018,Mouse
2,3,1,0,28,8,8,1,584,494,90,136,0,500,200,8000,"[(512, 384), (512, 384), (512, 384), (512, 384), (512, 384), (512, 384), (512, 384), (512, 384), (512, 384), (512, 384), (512, 384), (512, 384), (512, 384), (512, 384), (512, 384), (512, 384), (512, 384), (512, 384), (512, 384), (512, 384), (512, 384), (512, 384), (512, 384), (512, 384), (512, 384), (512, 384), (512, 384), (512, 384), (512, 384), (512, 384), (512, 384), (512, 384), (512, 384), (512, 384), (512, 384), (512, 384), (512, 384), (512, 384), (512, 384), (512, 384), (512, 384), (512, 384), (512, 384), (512, 384), (512, 384), (512, 384), (512, 384), (512, 384), (512, 384), (513, 383), (519, 374), (527, 350), (534, 332), (547, 307), (565, 284), (609, 230), (626, 205), (640, 180), (649, 159)]",301.3367706598715,"[2, 4, 6, 1, 9, 3, 5, 8, 7]","(0, 0.25)",DOT010A,DOT,A,Chinese,Mon Nov  5 13:52:50 2018,Mouse
2,3,1,0,29,8,9,0,-440,360,80,135,0,500,200,8000,"[(512, 384), (512, 384), (512, 384), (512, 384), (512, 384), (512, 384), (512, 384), (512, 384), (512, 384), (512, 384), (512, 384), (512, 384), (512, 384), (512, 384), (512, 384), (512, 384), (512, 384), (512, 384), (512, 384), (512, 384), (512, 384), (512, 384), (512, 384), (512, 384), (512, 384), (512, 384), (512, 384), (512, 384), (512, 384), (512, 384), (512, 384), (512, 384), (512, 384), (512, 384), (512, 384), (508, 383), (478, 383), (463, 383), (438, 383), (416, 383), (343, 382), (308, 376), (277, 375), (255, 369)]",183.34032207969884,"[2, 4, 6, 1, 9, 3, 5, 8, 7]","(0, 0.25)",DOT010A,DOT,A,Chinese,Mon Nov  5 13:52:50 2018,Mouse
2,3,1,0,30,9,9,1,903,833,70,136,0,500,200,8000,"[(512, 384), (512, 384), (512, 384), (512, 384), (512, 384), (512, 384), (512, 384), (512, 384), (512, 384), (512, 384), (512, 384), (512, 384), (512, 384), (512, 384), (512, 384), (512, 384), (512, 384), (512, 384), (512, 384), (512, 384), (512, 384), (512, 384), (512, 384), (512, 384), (512, 384), (512, 384), (512, 384), (512, 384), (512, 384), (512, 384), (512, 384), (512, 384), (512, 384), (512, 384), (512, 384), (512, 384), (512, 384), (512, 384), (512, 384), (512, 384), (512, 384), (512, 384), (512, 384), (512, 384), (512, 384), (512, 384), (512, 384), (512, 384), (512, 384), (512, 384), (512, 384), (512, 384), (512, 384), (512, 384), (512, 384), (512, 384), (512, 384), (512, 384), (512, 384), (512, 384), (512, 384), (512, 384), (512, 384), (512, 384), (512, 384), (512, 384), (512, 384), (512, 384), (512, 384), (512, 384), (512, 384), (512, 384), (512, 384), (512, 384), (512, 384), (512, 384), (512, 384), (512, 384), (512, 384), (512, 384), (512, 384), (512, 384), (512, 384), (513, 384), (487, 391), (473, 396), (451, 400), (430, 403), (354, 405), (305, 405), (255, 405)]",175.32862196465047,"[2, 4, 6, 1, 9, 3, 5, 8, 7]","(0, 0.25)",DOT010A,DOT,A,Chinese,Mon Nov  5 13:52:50 2018,Mouse
2,3,1,0,31,6,7,0,-590,540,50,136,0,500,200,8000,"[(512, 384), (512, 384), (512, 384), (512, 384), (512, 384), (512, 384), (512, 384), (512, 384), (512, 384), (512, 384), (512, 384), (512, 384), (512, 384), (512, 384), (512, 384), (512, 384), (512, 384), (512, 384), (512, 384), (512, 384), (512, 384), (512, 384), (512, 384), (512, 384), (512, 384), (512, 384), (512, 384), (512, 384), (512, 384), (512, 384), (512, 384), (512, 384), (512, 384), (512, 384), (512, 384), (512, 384), (512, 384), (512, 384), (512, 384), (512, 384), (512, 384), (512, 384), (512, 384), (512, 384), (512, 384), (512, 384), (512, 384), (512, 384), (512, 384), (512, 384), (512, 384), (512, 384), (512, 384), (516, 384), (548, 375), (584, 366), (627, 360), (685, 346), (809, 314)]",346.73797669700156,"[2, 4, 6, 1, 9, 3, 5, 8, 7]","(0, 0.25)",DOT010A,DOT,A,Chinese,Mon Nov  5 13:52:50 2018,Mouse
2,3,1,0,32,9,9,1,1021,981,40,137,0,500,200,8000,"[(512, 384), (512, 384), (512, 384), (512, 384), (512, 384), (512, 384), (512, 384), (512, 384), (512, 384), (512, 384), (512, 384), (512, 384), (512, 384), (512, 384), (512, 384), (512, 384), (512, 384), (512, 384), (512, 384), (512, 384), (512, 384), (512, 384), (512, 384), (512, 384), (512, 384), (512, 384), (512, 384), (512, 384), (512, 384), (512, 384), (512, 384), (512, 384), (512, 384), (512, 384), (512, 384), (512, 384), (512, 384), (512, 384), (512, 384), (512, 384), (512, 384), (512, 384), (512, 384), (512, 384), (512, 384), (512, 384), (512, 384), (512, 384), (512, 384), (512, 384), (512, 384), (512, 384), (512, 384), (512, 384), (512, 384), (512, 384), (512, 384), (512, 384), (512, 384), (512, 384), (512, 384), (512, 384), (512, 384), (512, 384), (512, 384), (512, 384), (512, 384), (512, 384), (512, 384), (512, 384), (512, 384), (512, 384), (512, 384), (512, 384), (512, 384), (512, 384), (512, 384), (512, 384), (512, 384), (512, 384), (512, 384), (512, 384), (512, 384), (512, 384), (512, 384), (512, 384), (512, 384), (512, 384), (512, 384), (512, 384), (512, 384), (512, 384), (512, 384), (512, 384), (512, 384), (512, 384), (512, 384), (512, 384), (498, 387), (449, 399), (351, 415), (298, 416), (251, 416)]",173.010114955999,"[2, 4, 6, 1, 9, 3, 5, 8, 7]","(0, 0.25)",DOT010A,DOT,A,Chinese,Mon Nov  5 13:52:50 2018,Mouse
2,3,1,0,33,9,9,1,372,302,70,137,0,500,200,8000,"[(512, 384), (512, 384), (512, 384), (512, 384), (512, 384), (512, 384), (512, 384), (512, 384), (512, 384), (512, 384), (512, 384), (512, 384), (512, 384), (512, 384), (512, 384), (512, 384), (512, 384), (512, 384), (512, 384), (512, 384), (512, 384), (512, 384), (512, 384), (512, 384), (512, 384), (512, 384), (512, 384), (512, 384), (512, 384), (512, 384), (509, 384), (486, 384), (450, 384), (419, 384), (350, 384), (319, 384), (289, 384), (255, 384)]",180.0,"[2, 4, 6, 1, 9, 3, 5, 8, 7]","(0, 0.25)",DOT010A,DOT,A,Chinese,Mon Nov  5 13:52:50 2018,Mouse
2,3,1,0,34,1,9,0,-1242,1192,50,136,0,500,200,8000,"[(512, 384), (512, 384), (512, 384), (512, 384), (512, 384), (512, 384), (512, 384), (512, 384), (512, 384), (512, 384), (512, 384), (512, 384), (512, 384), (512, 384), (512, 384), (512, 384), (512, 384), (512, 384), (512, 384), (512, 384), (512, 384), (512, 384), (512, 384), (512, 384), (512, 384), (512, 384), (512, 384), (512, 384), (512, 384), (512, 384), (512, 384), (512, 384), (512, 384), (512, 384), (512, 384), (512, 384), (512, 384), (512, 384), (512, 384), (512, 384), (512, 384), (512, 384), (512, 384), (512, 384), (512, 384), (512, 384), (512, 384), (512, 384), (512, 384), (512, 384), (512, 384), (512, 384), (512, 384), (512, 384), (512, 384), (512, 384), (512, 384), (512, 384), (512, 384), (512, 384), (512, 384), (512, 384), (512, 384), (512, 384), (512, 384), (512, 384), (512, 384), (512, 384), (512, 384), (512, 384), (512, 384), (512, 384), (512, 384), (512, 384), (512, 384), (512, 384), (512, 384), (512, 384), (512, 384), (512, 384), (512, 384), (512, 384), (512, 384), (512, 384), (512, 384), (512, 384), (512, 384), (512, 384), (512, 384), (512, 384), (512, 384), (512, 384), (512, 384), (512, 384), (512, 384), (512, 384), (512, 384), (512, 384), (512, 384), (512, 384), (512, 384), (512, 384), (512, 384), (512, 384), (512, 384), (512, 384), (512, 384), (512, 384), (512, 384), (512, 384), (512, 384), (512, 384), (512, 384), (512, 384), (512, 384), (512, 384), (512, 384), (512, 384), (512, 384), (509, 387), (490, 391), (402, 408), (354, 416), (285, 416), (221, 416)]",173.72464690560452,"[2, 4, 6, 1, 9, 3, 5, 8, 7]","(0, 0.25)",DOT010A,DOT,A,Chinese,Mon Nov  5 13:52:50 2018,Mouse
2,3,1,0,35,3,3,1,1753,1693,60,137,0,500,200,8000,"[(512, 384), (512, 384), (512, 384), (512, 384), (512, 384), (512, 384), (512, 384), (512, 384), (512, 384), (512, 384), (512, 384), (512, 384), (512, 384), (512, 384), (512, 384), (512, 384), (512, 384), (512, 384), (512, 384), (512, 384), (512, 384), (512, 384), (512, 384), (512, 384), (512, 384), (512, 384), (512, 384), (512, 384), (512, 384), (512, 384), (512, 384), (512, 384), (512, 384), (512, 384), (512, 384), (512, 384), (512, 384), (512, 384), (512, 384), (512, 384), (512, 384), (512, 384), (512, 384), (512, 384), (512, 384), (512, 384), (512, 384), (512, 384), (512, 384), (512, 384), (512, 384), (512, 384), (512, 384), (512, 384), (512, 384), (512, 384), (512, 384), (512, 384), (512, 384), (512, 384), (512, 384), (512, 384), (512, 384), (512, 384), (512, 384), (512, 384), (512, 384), (512, 384), (512, 384), (512, 384), (512, 384), (512, 384), (512, 384), (512, 384), (512, 384), (512, 384), (512, 384), (512, 384), (512, 384), (512, 384), (512, 384), (512, 384), (512, 384), (512, 384), (512, 384), (512, 384), (512, 384), (512, 384), (512, 384), (512, 384), (512, 384), (512, 384), (512, 384), (512, 384), (512, 384), (512, 384), (512, 384), (512, 384), (512, 384), (512, 384), (512, 384), (512, 384), (512, 384), (512, 384), (512, 384), (512, 384), (512, 384), (512, 384), (512, 384), (512, 384), (512, 384), (512, 384), (512, 384), (512, 384), (512, 384), (512, 384), (512, 384), (512, 384), (512, 384), (512, 384), (512, 384), (512, 384), (512, 384), (512, 384), (512, 384), (512, 384), (512, 384), (512, 384), (512, 384), (512, 384), (512, 384), (512, 384), (512, 384), (512, 384), (512, 384), (512, 384), (512, 384), (512, 384), (512, 384), (512, 384), (512, 384), (512, 384), (512, 384), (512, 384), (512, 384), (512, 384), (512, 384), (512, 384), (512, 384), (512, 384), (512, 384), (512, 384), (512, 384), (512, 384), (512, 384), (512, 384), (512, 384), (512, 384), (512, 384), (512, 384), (512, 384), (512, 384), (512, 384), (512, 384), (512, 384), (512, 384), (512, 384), (512, 384), (512, 384), (509, 384), (500, 376), (482, 359), (429, 309), (383, 270), (343, 232), (295, 190)]",221.79700759349302,"[2, 4, 6, 1, 9, 3, 5, 8, 7]","(0, 0.25)",DOT010A,DOT,A,Chinese,Mon Nov  5 13:52:50 2018,Mouse
2,3,1,0,36,3,3,1,970,910,60,137,0,500,200,8000,"[(512, 384), (512, 384), (512, 384), (512, 384), (512, 384), (512, 384), (512, 384), (512, 384), (512, 384), (512, 384), (512, 384), (512, 384), (512, 384), (512, 384), (512, 384), (512, 384), (512, 384), (512, 384), (512, 384), (512, 384), (512, 384), (512, 384), (512, 384), (512, 384), (512, 384), (512, 384), (512, 384), (512, 384), (512, 384), (512, 384), (512, 384), (512, 384), (512, 384), (512, 384), (512, 384), (512, 384), (512, 384), (512, 384), (512, 384), (512, 384), (512, 384), (512, 384), (512, 384), (512, 384), (512, 384), (512, 384), (512, 384), (512, 384), (512, 384), (512, 384), (512, 384), (512, 384), (512, 384), (512, 384), (512, 384), (512, 384), (512, 384), (512, 384), (512, 384), (512, 384), (512, 384), (512, 384), (512, 384), (512, 384), (512, 384), (512, 384), (512, 384), (512, 384), (512, 384), (512, 384), (512, 384), (512, 384), (512, 384), (512, 384), (512, 384), (512, 384), (512, 384), (512, 384), (512, 384), (512, 384), (512, 384), (512, 384), (512, 384), (512, 384), (512, 384), (512, 384), (512, 384), (512, 384), (512, 384), (512, 384), (511, 384), (508, 383), (498, 370), (462, 311), (430, 274), (387, 229), (341, 192)]",228.31094151461144,"[2, 4, 6, 1, 9, 3, 5, 8, 7]","(0, 0.25)",DOT010A,DOT,A,Chinese,Mon Nov  5 13:52:50 2018,Mouse
2,3,1,0,37,1,1,1,692,612,80,136,0,500,200,8000,"[(512, 384), (512, 384), (512, 384), (512, 384), (512, 384), (512, 384), (512, 384), (512, 384), (512, 384), (512, 384), (512, 384), (512, 384), (512, 384), (512, 384), (512, 384), (512, 384), (512, 384), (512, 384), (512, 384), (512, 384), (512, 384), (512, 384), (512, 384), (512, 384), (512, 384), (512, 384), (512, 384), (512, 384), (512, 384), (512, 384), (512, 384), (512, 384), (512, 384), (512, 384), (512, 384), (512, 384), (512, 384), (512, 384), (512, 384), (512, 384), (512, 384), (512, 384), (512, 384), (512, 384), (512, 384), (512, 384), (512, 384), (512, 384), (512, 384), (512, 384), (512, 384), (512, 384), (512, 384), (512, 384), (512, 384), (512, 384), (512, 384), (512, 384), (512, 384), (512, 384), (512, 384), (510, 388), (503, 396), (489, 407), (472, 418), (432, 448), (404, 467), (381, 485), (348, 507), (283, 572)]",140.61534970668316,"[2, 4, 6, 1, 9, 3, 5, 8, 7]","(0, 0.25)",DOT010A,DOT,A,Chinese,Mon Nov  5 13:52:50 2018,Mouse
2,3,1,0,38,4,9,0,-1078,1028,50,135,0,500,200,8000,"[(512, 384), (512, 384), (512, 384), (512, 384), (512, 384), (512, 384), (512, 384), (512, 384), (512, 384), (512, 384), (512, 384), (512, 384), (512, 384), (512, 384), (512, 384), (512, 384), (512, 384), (512, 384), (512, 384), (512, 384), (512, 384), (512, 384), (512, 384), (512, 384), (512, 384), (512, 384), (512, 384), (512, 384), (512, 384), (512, 384), (512, 384), (512, 384), (512, 384), (512, 384), (512, 384), (512, 384), (512, 384), (512, 384), (512, 384), (512, 384), (512, 384), (512, 384), (512, 384), (512, 384), (512, 384), (512, 384), (512, 384), (512, 384), (512, 384), (512, 384), (512, 384), (512, 384), (512, 384), (512, 384), (512, 384), (512, 384), (512, 384), (512, 384), (512, 384), (512, 384), (512, 384), (512, 384), (512, 384), (512, 384), (512, 384), (512, 384), (512, 384), (512, 384), (512, 384), (512, 384), (512, 384), (512, 384), (512, 384), (512, 384), (512, 384), (512, 384), (512, 384), (512, 384), (512, 384), (512, 384), (512, 384), (512, 384), (512, 384), (512, 384), (512, 384), (512, 384), (512, 384), (512, 384), (512, 384), (512, 384), (512, 384), (512, 384), (512, 384), (512, 384), (512, 384), (512, 384), (512, 384), (512, 384), (512, 384), (512, 384), (512, 384), (512, 384), (500, 384), (449, 388), (407, 391), (372, 397), (334, 402), (248, 415)]",173.30275567105417,"[2, 4, 6, 1, 9, 3, 5, 8, 7]","(0, 0.25)",DOT010A,DOT,A,Chinese,Mon Nov  5 13:52:50 2018,Mouse
2,3,1,0,39,7,7,1,441,311,130,136,0,500,200,8000,"[(512, 384), (512, 384), (512, 384), (512, 384), (512, 384), (512, 384), (512, 384), (512, 384), (512, 384), (512, 384), (512, 384), (512, 384), (512, 384), (512, 384), (512, 384), (512, 384), (512, 384), (512, 384), (512, 384), (512, 384), (512, 384), (512, 384), (512, 384), (512, 384), (512, 384), (512, 384), (512, 384), (512, 384), (512, 384), (512, 384), (512, 384), (515, 384), (531, 380), (541, 376), (559, 367), (572, 361), (594, 350), (606, 344), (617, 341), (627, 336), (646, 328), (665, 321), (690, 313), (728, 304), (793, 294)]",342.2405328221375,"[2, 4, 6, 1, 9, 3, 5, 8, 7]","(0, 0.25)",DOT010A,DOT,A,Chinese,Mon Nov  5 13:52:50 2018,Mouse
2,3,1,0,40,1,1,1,810,760,50,136,0,500,200,8000,"[(512, 384), (512, 384), (512, 384), (512, 384), (512, 384), (512, 384), (512, 384), (512, 384), (512, 384), (512, 384), (512, 384), (512, 384), (512, 384), (512, 384), (512, 384), (512, 384), (512, 384), (512, 384), (512, 384), (512, 384), (512, 384), (512, 384), (512, 384), (512, 384), (512, 384), (512, 384), (512, 384), (512, 384), (512, 384), (512, 384), (512, 384), (512, 384), (512, 384), (512, 384), (512, 384), (512, 384), (512, 384), (512, 384), (512, 384), (512, 384), (512, 384), (512, 384), (512, 384), (512, 384), (512, 384), (512, 384), (512, 384), (512, 384), (512, 384), (512, 384), (512, 384), (512, 384), (512, 384), (512, 384), (512, 384), (512, 384), (512, 384), (512, 384), (512, 384), (512, 384), (512, 384), (512, 384), (512, 384), (512, 384), (512, 384), (512, 384), (512, 384), (512, 384), (512, 384), (512, 384), (512, 384), (512, 384), (512, 384), (512, 384), (512, 384), (502, 390), (474, 407), (441, 427), (361, 480), (324, 509), (288, 532)]",146.54669054592733,"[2, 4, 6, 1, 9, 3, 5, 8, 7]","(0, 0.25)",DOT010A,DOT,A,Chinese,Mon Nov  5 13:52:50 2018,Mouse
2,3,1,0,41,9,9,1,1039,1009,30,135,0,500,200,8000,"[(512, 384), (512, 384), (512, 384), (512, 384), (512, 384), (512, 384), (512, 384), (512, 384), (512, 384), (512, 384), (512, 384), (512, 384), (512, 384), (512, 384), (512, 384), (512, 384), (512, 384), (512, 384), (512, 384), (512, 384), (512, 384), (512, 384), (512, 384), (512, 384), (512, 384), (512, 384), (512, 384), (512, 384), (512, 384), (512, 384), (512, 384), (512, 384), (512, 384), (512, 384), (512, 384), (512, 384), (512, 384), (512, 384), (512, 384), (512, 384), (512, 384), (512, 384), (512, 384), (512, 384), (512, 384), (512, 384), (512, 384), (512, 384), (512, 384), (512, 384), (512, 384), (512, 384), (512, 384), (512, 384), (512, 384), (512, 384), (512, 384), (512, 384), (512, 384), (512, 384), (512, 384), (512, 384), (512, 384), (512, 384), (512, 384), (512, 384), (512, 384), (512, 384), (512, 384), (512, 384), (512, 384), (512, 384), (512, 384), (512, 384), (512, 384), (512, 384), (512, 384), (512, 384), (512, 384), (512, 384), (512, 384), (512, 384), (512, 384), (512, 384), (512, 384), (512, 384), (512, 384), (512, 384), (512, 384), (512, 384), (512, 384), (512, 384), (512, 384), (512, 384), (512, 384), (512, 384), (512, 384), (512, 384), (512, 384), (512, 384), (501, 384), (395, 384), (320, 384), (243, 384)]",180.0,"[2, 4, 6, 1, 9, 3, 5, 8, 7]","(0, 0.25)",DOT010A,DOT,A,Chinese,Mon Nov  5 13:52:50 2018,Mouse
2,3,1,0,42,7,1,0,-791,681,110,134,0,500,200,8000,"[(512, 384), (512, 384), (512, 384), (512, 384), (512, 384), (512, 384), (512, 384), (512, 384), (512, 384), (512, 384), (512, 384), (512, 384), (512, 384), (512, 384), (512, 384), (512, 384), (512, 384), (512, 384), (512, 384), (512, 384), (512, 384), (512, 384), (512, 384), (512, 384), (512, 384), (512, 384), (512, 384), (512, 384), (512, 384), (512, 384), (512, 384), (512, 384), (512, 384), (512, 384), (512, 384), (512, 384), (512, 384), (512, 384), (512, 384), (512, 384), (512, 384), (512, 384), (512, 384), (512, 384), (512, 384), (512, 384), (512, 384), (512, 384), (512, 384), (512, 384), (512, 384), (512, 384), (512, 384), (512, 384), (512, 384), (512, 384), (512, 384), (512, 384), (512, 384), (512, 384), (512, 384), (512, 384), (512, 384), (512, 384), (512, 384), (512, 384), (512, 384), (512, 384), (508, 384), (485, 397), (460, 413), (413, 442), (386, 459), (374, 467), (359, 478), (325, 500), (314, 507), (305, 513), (301, 516), (298, 523)]",146.9949580651829,"[2, 4, 6, 1, 9, 3, 5, 8, 7]","(0, 0.25)",DOT010A,DOT,A,Chinese,Mon Nov  5 13:52:50 2018,Mouse
2,3,1,0,43,8,7,0,-2262,2192,70,135,0,500,200,8000,"[(512, 384), (512, 384), (512, 384), (512, 384), (512, 384), (512, 384), (512, 384), (512, 384), (512, 384), (512, 384), (512, 384), (512, 384), (512, 384), (512, 384), (512, 384), (512, 384), (512, 384), (512, 384), (512, 384), (512, 384), (512, 384), (512, 384), (512, 384), (512, 384), (512, 384), (512, 384), (512, 384), (512, 384), (512, 384), (512, 384), (512, 384), (512, 384), (512, 384), (512, 384), (512, 384), (512, 384), (512, 384), (512, 384), (512, 384), (512, 384), (512, 384), (512, 384), (512, 384), (512, 384), (512, 384), (512, 384), (512, 384), (512, 384), (512, 384), (512, 384), (512, 384), (512, 384), (512, 384), (512, 384), (512, 384), (512, 384), (512, 384), (512, 384), (512, 384), (512, 384), (512, 384), (512, 384), (512, 384), (512, 384), (512, 384), (512, 384), (512, 384), (512, 384), (512, 384), (512, 384), (512, 384), (512, 384), (512, 384), (512, 384), (512, 384), (512, 384), (512, 384), (512, 384), (512, 384), (512, 384), (512, 384), (512, 384), (512, 384), (512, 384), (512, 384), (512, 384), (512, 384), (512, 384), (512, 384), (512, 384), (512, 384), (512, 384), (512, 384), (512, 384), (512, 384), (512, 384), (512, 384), (512, 384), (512, 384), (512, 384), (512, 384), (512, 384), (512, 384), (512, 384), (512, 384), (512, 384), (512, 384), (512, 384), (512, 384), (512, 384), (512, 384), (512, 384), (512, 384), (512, 384), (512, 384), (512, 384), (512, 384), (512, 384), (512, 384), (512, 384), (512, 384), (512, 384), (512, 384), (512, 384), (512, 384), (512, 384), (512, 384), (512, 384), (512, 384), (512, 384), (512, 384), (512, 384), (512, 384), (512, 384), (512, 384), (512, 384), (512, 384), (512, 384), (512, 384), (512, 384), (512, 384), (512, 384), (512, 384), (512, 384), (512, 384), (512, 384), (512, 384), (512, 384), (512, 384), (512, 384), (512, 384), (512, 384), (512, 384), (512, 384), (512, 384), (512, 384), (512, 384), (512, 384), (512, 384), (512, 384), (512, 384), (512, 384), (512, 384), (512, 384), (512, 384), (512, 384), (512, 384), (512, 384), (512, 384), (512, 384), (512, 384), (512, 384), (512, 384), (512, 384), (512, 384), (512, 384), (512, 384), (512, 384), (512, 384), (512, 384), (512, 384), (512, 384), (512, 384), (512, 384), (512, 384), (512, 384), (512, 384), (512, 384), (512, 384), (512, 384), (512, 384), (512, 384), (512, 384), (512, 384), (512, 384), (512, 384), (512, 384), (512, 384), (512, 384), (512, 384), (512, 384), (512, 384), (512, 384), (512, 384), (512, 384), (512, 384), (512, 384), (512, 384), (512, 384), (512, 384), (512, 384), (512, 384), (512, 384), (512, 384), (512, 384), (512, 384), (512, 384), (512, 384), (512, 384), (513, 384), (526, 385), (547, 385), (582, 378), (619, 368), (702, 341), (752, 325), (815, 312)]",346.63306930368316,"[2, 4, 6, 1, 9, 3, 5, 8, 7]","(0, 0.25)",DOT010A,DOT,A,Chinese,Mon Nov  5 13:52:50 2018,Mouse
2,3,1,0,44,6,7,0,-742,682,60,136,0,500,200,8000,"[(512, 384), (512, 384), (512, 384), (512, 384), (512, 384), (512, 384), (512, 384), (512, 384), (512, 384), (512, 384), (512, 384), (512, 384), (512, 384), (512, 384), (512, 384), (512, 384), (512, 384), (512, 384), (512, 384), (512, 384), (512, 384), (512, 384), (512, 384), (512, 384), (512, 384), (512, 384), (512, 384), (512, 384), (512, 384), (512, 384), (512, 384), (512, 384), (512, 384), (512, 384), (512, 384), (512, 384), (512, 384), (512, 384), (512, 384), (512, 384), (512, 384), (512, 384), (512, 384), (512, 384), (512, 384), (512, 384), (512, 384), (512, 384), (512, 384), (512, 384), (512, 384), (512, 384), (512, 384), (512, 384), (512, 384), (512, 384), (512, 384), (512, 384), (512, 384), (512, 384), (512, 384), (512, 384), (512, 384), (512, 384), (512, 384), (512, 384), (512, 384), (512, 384), (514, 384), (541, 377), (602, 360), (638, 347), (677, 338), (708, 328), (753, 314)]",343.80372106315303,"[2, 4, 6, 1, 9, 3, 5, 8, 7]","(0, 0.25)",DOT010A,DOT,A,Chinese,Mon Nov  5 13:52:50 2018,Mouse
2,3,1,0,45,8,9,0,-1872,1792,80,137,0,500,200,8000,"[(512, 384), (512, 384), (512, 384), (512, 384), (512, 384), (512, 384), (512, 384), (512, 384), (512, 384), (512, 384), (512, 384), (512, 384), (512, 384), (512, 384), (512, 384), (512, 384), (512, 384), (512, 384), (512, 384), (512, 384), (512, 384), (512, 384), (512, 384), (512, 384), (512, 384), (512, 384), (512, 384), (512, 384), (512, 384), (512, 384), (512, 384), (512, 384), (512, 384), (512, 384), (512, 384), (512, 384), (512, 384), (512, 384), (512, 384), (512, 384), (512, 384), (512, 384), (512, 384), (512, 384), (512, 384), (512, 384), (512, 384), (512, 384), (512, 384), (512, 384), (512, 384), (512, 384), (512, 384), (512, 384), (512, 384), (512, 384), (512, 384), (512, 384), (512, 384), (512, 384), (512, 384), (512, 384), (512, 384), (512, 384), (512, 384), (512, 384), (512, 384), (512, 384), (512, 384), (512, 384), (512, 384), (512, 384), (512, 384), (512, 384), (512, 384), (512, 384), (512, 384), (512, 384), (512, 384), (512, 384), (512, 384), (512, 384), (512, 384), (512, 384), (512, 384), (512, 384), (512, 384), (512, 384), (512, 384), (512, 384), (512, 384), (512, 384), (512, 384), (512, 384), (512, 384), (512, 384), (512, 384), (512, 384), (512, 384), (512, 384), (512, 384), (512, 384), (512, 384), (512, 384), (512, 384), (512, 384), (512, 384), (512, 384), (512, 384), (512, 384), (512, 384), (512, 384), (512, 384), (512, 384), (512, 384), (512, 384), (512, 384), (512, 384), (512, 384), (512, 384), (512, 384), (512, 384), (512, 384), (512, 384), (512, 384), (512, 384), (512, 384), (512, 384), (512, 384), (512, 384), (512, 384), (512, 384), (512, 384), (512, 384), (512, 384), (512, 384), (512, 384), (512, 384), (512, 384), (512, 384), (512, 384), (512, 384), (512, 384), (512, 384), (512, 384), (512, 384), (512, 384), (512, 384), (512, 384), (512, 384), (512, 384), (512, 384), (512, 384), (512, 384), (512, 384), (512, 384), (512, 384), (512, 384), (512, 384), (512, 384), (512, 384), (512, 384), (512, 384), (512, 384), (512, 384), (512, 384), (512, 384), (512, 384), (512, 384), (512, 384), (512, 384), (512, 384), (512, 384), (512, 384), (512, 384), (512, 384), (512, 384), (512, 384), (512, 384), (510, 384), (504, 384), (489, 384), (468, 384), (409, 382), (368, 372), (330, 369), (284, 361), (201, 350)]",186.23906975504755,"[2, 4, 6, 1, 9, 3, 5, 8, 7]","(0, 0.25)",DOT010A,DOT,A,Chinese,Mon Nov  5 13:52:50 2018,Mouse
2,3,1,0,46,2,7,0,-1396,1336,60,138,0,500,200,8000,"[(512, 384), (512, 384), (512, 384), (512, 384), (512, 384), (512, 384), (512, 384), (512, 384), (512, 384), (512, 384), (512, 384), (512, 384), (512, 384), (512, 384), (512, 384), (512, 384), (512, 384), (512, 384), (512, 384), (512, 384), (512, 384), (512, 384), (512, 384), (512, 384), (512, 384), (512, 384), (512, 384), (512, 384), (512, 384), (512, 384), (512, 384), (512, 384), (512, 384), (512, 384), (512, 384), (512, 384), (512, 384), (512, 384), (512, 384), (512, 384), (512, 384), (512, 384), (512, 384), (512, 384), (512, 384), (512, 384), (512, 384), (512, 384), (512, 384), (512, 384), (512, 384), (512, 384), (512, 384), (512, 384), (512, 384), (512, 384), (512, 384), (512, 384), (512, 384), (512, 384), (512, 384), (512, 384), (512, 384), (512, 384), (512, 384), (512, 384), (512, 384), (512, 384), (512, 384), (512, 384), (512, 384), (512, 384), (512, 384), (512, 384), (512, 384), (512, 384), (512, 384), (512, 384), (512, 384), (512, 384), (512, 384), (512, 384), (512, 384), (512, 384), (512, 384), (512, 384), (512, 384), (512, 384), (512, 384), (512, 384), (512, 384), (512, 384), (512, 384), (512, 384), (512, 384), (512, 384), (512, 384), (512, 384), (512, 384), (512, 384), (512, 384), (512, 384), (512, 384), (512, 384), (512, 384), (512, 384), (512, 384), (512, 384), (512, 384), (512, 384), (512, 384), (512, 384), (512, 384), (512, 384), (512, 384), (512, 384), (512, 384), (512, 384), (512, 384), (512, 384), (512, 384), (512, 384), (512, 384), (512, 384), (512, 384), (512, 384), (512, 384), (512, 384), (512, 384), (512, 384), (512, 384), (512, 384), (512, 384), (515, 384), (522, 384), (576, 342), (605, 314), (631, 290), (657, 269), (705, 225)]",320.51713597898805,"[2, 4, 6, 1, 9, 3, 5, 8, 7]","(0, 0.25)",DOT010A,DOT,A,Chinese,Mon Nov  5 13:52:50 2018,Mouse
2,3,1,0,47,4,5,0,-2251,2171,80,139,0,500,200,8000,"[(512, 384), (512, 384), (512, 384), (512, 384), (512, 384), (512, 384), (512, 384), (512, 384), (512, 384), (512, 384), (512, 384), (512, 384), (512, 384), (512, 384), (512, 384), (512, 384), (512, 384), (512, 384), (512, 384), (512, 384), (512, 384), (512, 384), (512, 384), (512, 384), (512, 384), (512, 384), (512, 384), (512, 384), (512, 384), (512, 384), (512, 384), (512, 384), (512, 384), (512, 384), (512, 384), (512, 384), (512, 384), (512, 384), (512, 384), (512, 384), (512, 384), (512, 384), (512, 384), (512, 384), (512, 384), (512, 384), (512, 384), (512, 384), (512, 384), (512, 384), (512, 384), (512, 384), (512, 384), (512, 384), (512, 384), (512, 384), (512, 384), (512, 384), (512, 384), (512, 384), (512, 384), (512, 384), (512, 384), (512, 384), (512, 384), (512, 384), (512, 384), (512, 384), (512, 384), (512, 384), (512, 384), (512, 384), (512, 384), (512, 384), (512, 384), (512, 384), (512, 384), (512, 384), (512, 384), (512, 384), (512, 384), (512, 384), (512, 384), (512, 384), (512, 384), (512, 384), (512, 384), (512, 384), (512, 384), (512, 384), (512, 384), (512, 384), (512, 384), (512, 384), (512, 384), (512, 384), (512, 384), (512, 384), (512, 384), (512, 384), (512, 384), (512, 384), (512, 384), (512, 384), (512, 384), (512, 384), (512, 384), (512, 384), (512, 384), (512, 384), (512, 384), (512, 384), (512, 384), (512, 384), (512, 384), (512, 384), (512, 384), (512, 384), (512, 384), (512, 384), (512, 384), (512, 384), (512, 384), (512, 384), (512, 384), (512, 384), (512, 384), (512, 384), (512, 384), (512, 384), (512, 384), (512, 384), (512, 384), (512, 384), (512, 384), (512, 384), (512, 384), (512, 384), (512, 384), (512, 384), (512, 384), (512, 384), (512, 384), (512, 384), (512, 384), (512, 384), (512, 384), (512, 384), (512, 384), (512, 384), (512, 384), (512, 384), (512, 384), (512, 384), (512, 384), (512, 384), (512, 384), (512, 384), (512, 384), (512, 384), (512, 384), (512, 384), (512, 384), (512, 384), (512, 384), (512, 384), (512, 384), (512, 384), (512, 384), (512, 384), (512, 384), (512, 384), (512, 384), (512, 384), (512, 384), (512, 384), (512, 384), (512, 384), (512, 384), (512, 384), (512, 384), (512, 384), (512, 384), (512, 384), (512, 384), (512, 384), (512, 384), (512, 384), (512, 384), (512, 384), (512, 384), (512, 384), (512, 384), (512, 384), (512, 384), (512, 384), (512, 384), (512, 384), (512, 384), (512, 384), (512, 384), (512, 384), (512, 384), (512, 384), (512, 384), (512, 384), (512, 384), (512, 384), (512, 384), (512, 384), (512, 384), (512, 384), (512, 384), (512, 384), (512, 384), (512, 384), (512, 384), (512, 379), (509, 359), (509, 331), (504, 299), (483, 235), (469, 205), (454, 181), (440, 156), (414, 110)]",250.31968691030966,"[2, 4, 6, 1, 9, 3, 5, 8, 7]","(0, 0.25)",DOT010A,DOT,A,Chinese,Mon Nov  5 13:52:50 2018,Mouse
2,3,1,0,48,8,8,1,2584,654,1930,140,0,500,200,8000,"[(512, 384), (512, 384), (512, 384), (512, 384), (512, 384), (512, 384), (512, 384), (512, 384), (512, 384), (512, 384), (512, 384), (512, 384), (512, 384), (512, 384), (512, 384), (512, 384), (512, 384), (512, 384), (512, 384), (512, 384), (512, 384), (512, 384), (512, 384), (512, 384), (512, 384), (512, 384), (512, 384), (512, 384), (512, 384), (512, 384), (512, 384), (512, 384), (512, 384), (512, 384), (512, 384), (512, 384), (512, 384), (512, 384), (512, 384), (512, 384), (512, 384), (512, 384), (512, 384), (512, 384), (512, 384), (512, 384), (512, 384), (512, 384), (512, 384), (512, 384), (512, 384), (512, 384), (512, 384), (512, 384), (512, 384), (512, 384), (512, 384), (512, 384), (512, 384), (512, 384), (512, 384), (512, 384), (512, 384), (512, 384), (512, 384), (513, 385), (525, 372), (536, 360), (545, 349), (554, 340), (562, 334), (572, 322), (575, 318), (577, 315), (581, 312), (586, 300), (589, 295), (590, 292), (592, 287), (592, 287), (592, 287), (592, 287), (592, 287), (592, 287), (592, 287), (592, 287), (592, 287), (592, 287), (592, 287), (592, 287), (592, 287), (592, 287), (592, 287), (592, 287), (592, 288), (592, 289), (592, 289), (591, 290), (590, 290), (590, 291), (590, 291), (590, 291), (590, 291), (590, 291), (590, 291), (590, 291), (590, 291), (590, 291), (590, 291), (590, 291), (590, 291), (590, 291), (589, 291), (589, 291), (589, 291), (589, 292), (589, 292), (589, 292), (589, 292), (589, 292), (589, 292), (589, 292), (589, 292), (589, 292), (589, 292), (589, 292), (589, 292), (589, 292), (589, 292), (589, 292), (589, 292), (589, 292), (588, 294), (588, 294), (587, 294), (587, 294), (587, 294), (587, 294), (586, 296), (583, 300), (578, 306), (576, 310), (565, 325), (558, 334), (549, 344), (538, 358), (522, 372), (479, 405), (472, 410), (471, 410), (447, 419), (435, 423), (424, 424), (419, 424), (409, 424), (406, 424), (404, 424), (404, 424), (404, 424), (404, 424), (404, 424), (404, 424), (404, 424), (404, 424), (404, 424), (404, 424), (404, 424), (404, 424), (404, 424), (404, 424), (404, 424), (404, 424), (404, 424), (404, 424), (404, 424), (404, 424), (404, 424), (404, 424), (404, 424), (404, 424), (404, 424), (402, 423), (408, 400), (410, 390), (416, 377), (416, 369), (421, 349), (422, 344), (425, 338), (426, 335), (430, 330), (431, 329), (432, 328), (433, 328), (435, 328), (435, 328), (436, 328), (438, 328), (440, 328), (443, 328), (447, 328), (457, 331), (476, 341), (487, 347), (493, 352), (500, 359), (507, 366), (510, 371), (511, 375), (511, 379), (508, 393), (502, 401), (497, 408), (493, 413), (487, 418), (486, 418), (485, 418), (485, 418), (485, 418), (483, 417), (482, 410), (478, 397), (472, 363), (469, 347), (462, 325), (462, 311), (461, 284), (461, 273), (461, 267), (465, 260), (479, 252), (487, 251), (494, 251), (499, 251), (509, 251), (519, 251), (527, 251), (535, 251), (552, 251), (560, 251), (568, 251), (575, 251), (585, 248), (587, 248), (589, 247), (590, 247), (592, 246), (593, 243), (597, 240), (600, 234), (604, 224), (607, 220), (610, 215), (614, 207), (622, 194), (626, 184), (631, 175), (634, 167), (641, 148)]",298.661464797459,"[2, 4, 6, 1, 9, 3, 5, 8, 7]","(0, 0.25)",DOT010A,DOT,A,Chinese,Mon Nov  5 13:52:50 2018,Mouse
2,3,1,0,49,6,7,0,-1292,1212,80,140,0,500,200,8000,"[(512, 384), (512, 384), (512, 384), (512, 384), (512, 384), (512, 384), (512, 384), (512, 384), (512, 384), (512, 384), (512, 384), (512, 384), (512, 384), (512, 384), (512, 384), (512, 384), (512, 384), (512, 384), (512, 384), (512, 384), (512, 384), (512, 384), (512, 384), (512, 384), (512, 384), (512, 384), (512, 384), (512, 384), (512, 384), (512, 384), (512, 384), (512, 384), (512, 384), (512, 384), (512, 384), (512, 384), (512, 384), (512, 384), (512, 384), (512, 384), (512, 384), (512, 384), (512, 384), (512, 384), (512, 384), (512, 384), (512, 384), (512, 384), (512, 384), (512, 384), (512, 384), (512, 384), (512, 384), (512, 384), (512, 384), (512, 384), (512, 384), (512, 384), (512, 384), (512, 384), (512, 384), (512, 384), (512, 384), (512, 384), (512, 384), (512, 384), (512, 384), (512, 384), (512, 384), (512, 384), (512, 384), (512, 384), (512, 384), (512, 384), (512, 384), (512, 384), (512, 384), (512, 384), (512, 384), (512, 384), (512, 384), (512, 384), (512, 384), (512, 384), (512, 384), (512, 384), (512, 384), (512, 384), (512, 384), (512, 384), (512, 384), (512, 384), (512, 384), (512, 384), (512, 384), (512, 384), (512, 384), (512, 384), (512, 384), (512, 384), (512, 384), (512, 384), (512, 384), (512, 384), (512, 384), (512, 384), (512, 384), (512, 384), (512, 384), (512, 384), (512, 384), (512, 384), (512, 384), (512, 384), (512, 384), (512, 384), (512, 384), (512, 384), (512, 384), (512, 384), (512, 384), (513, 384), (522, 383), (537, 382), (567, 376), (582, 373), (611, 370), (647, 361), (724, 345), (757, 334)]",348.4653793463553,"[2, 4, 6, 1, 9, 3, 5, 8, 7]","(0, 0.25)",DOT010A,DOT,A,Chinese,Mon Nov  5 13:52:50 2018,Mouse
2,3,1,0,50,8,8,1,1935,1856,79,141,0,500,200,8000,"[(512, 384), (512, 384), (512, 384), (512, 384), (512, 384), (512, 384), (512, 384), (512, 384), (512, 384), (512, 384), (512, 384), (512, 384), (512, 384), (512, 384), (512, 384), (512, 384), (512, 384), (512, 384), (512, 384), (512, 384), (512, 384), (512, 384), (512, 384), (512, 384), (512, 384), (512, 384), (512, 384), (512, 384), (512, 384), (512, 384), (512, 384), (512, 384), (512, 384), (512, 384), (512, 384), (512, 384), (512, 384), (512, 384), (512, 384), (512, 384), (512, 384), (512, 384), (512, 384), (512, 384), (512, 384), (512, 384), (512, 384), (512, 384), (512, 384), (512, 384), (512, 384), (512, 384), (512, 384), (512, 384), (512, 384), (512, 384), (512, 384), (512, 384), (512, 384), (512, 384), (512, 384), (512, 384), (512, 384), (512, 384), (512, 384), (512, 384), (512, 384), (512, 384), (512, 384), (512, 384), (512, 384), (512, 384), (512, 384), (512, 384), (512, 384), (512, 384), (512, 384), (512, 384), (512, 384), (512, 384), (512, 384), (512, 384), (512, 384), (512, 384), (512, 384), (512, 384), (512, 384), (512, 384), (512, 384), (512, 384), (512, 384), (512, 384), (512, 384), (512, 384), (512, 384), (512, 384), (512, 384), (512, 384), (512, 384), (512, 384), (512, 384), (512, 384), (512, 384), (512, 384), (512, 384), (512, 384), (512, 384), (512, 384), (512, 384), (512, 384), (512, 384), (512, 384), (512, 384), (512, 384), (512, 384), (512, 384), (512, 384), (512, 384), (512, 384), (512, 384), (512, 384), (512, 384), (512, 384), (512, 384), (512, 384), (512, 384), (512, 384), (512, 384), (512, 384), (512, 384), (512, 384), (512, 384), (512, 384), (512, 384), (512, 384), (512, 384), (512, 384), (512, 384), (512, 384), (512, 384), (512, 384), (512, 384), (512, 384), (512, 384), (512, 384), (512, 384), (512, 384), (512, 384), (512, 384), (512, 384), (512, 384), (512, 384), (512, 384), (512, 384), (512, 384), (512, 384), (512, 384), (512, 384), (512, 384), (512, 384), (512, 384), (512, 384), (512, 384), (512, 384), (512, 384), (512, 384), (512, 384), (512, 384), (512, 384), (512, 384), (512, 384), (512, 384), (512, 384), (512, 384), (512, 384), (512, 384), (512, 384), (512, 384), (512, 384), (512, 384), (512, 384), (512, 384), (512, 384), (512, 384), (512, 384), (524, 370), (537, 352), (549, 337), (563, 322), (582, 299), (626, 249), (650, 220), (668, 197), (681, 177)]",309.22906377842565,"[2, 4, 6, 1, 9, 3, 5, 8, 7]","(0, 0.25)",DOT010A,DOT,A,Chinese,Mon Nov  5 13:52:50 2018,Mouse
2,3,1,0,51,4,5,0,-819,619,200,141,0,500,200,8000,"[(512, 384), (512, 384), (512, 384), (512, 384), (512, 384), (512, 384), (512, 384), (512, 384), (512, 384), (512, 384), (512, 384), (512, 384), (512, 384), (512, 384), (512, 384), (512, 384), (512, 384), (512, 384), (512, 384), (512, 384), (512, 384), (512, 384), (512, 384), (512, 384), (512, 384), (512, 384), (512, 384), (512, 384), (512, 384), (512, 384), (512, 384), (512, 384), (512, 384), (512, 384), (512, 384), (512, 384), (512, 384), (512, 384), (512, 384), (512, 384), (512, 384), (512, 384), (512, 384), (512, 384), (512, 384), (512, 384), (512, 384), (512, 384), (512, 384), (512, 384), (512, 384), (512, 384), (512, 384), (512, 384), (512, 384), (512, 384), (512, 384), (512, 384), (512, 384), (512, 384), (512, 384), (507, 381), (503, 373), (499, 361), (497, 352), (490, 327), (484, 312), (477, 292), (474, 279), (470, 253), (468, 241), (468, 233), (470, 222), (476, 201), (479, 191), (480, 178), (480, 169), (480, 152), (479, 143), (478, 139), (478, 138), (478, 133)]",262.28577260570114,"[2, 4, 6, 1, 9, 3, 5, 8, 7]","(0, 0.25)",DOT010A,DOT,A,Chinese,Mon Nov  5 13:52:50 2018,Mouse
2,3,1,0,52,1,1,1,348,198,150,142,0,500,200,8000,"[(512, 384), (512, 384), (512, 384), (512, 384), (512, 384), (512, 384), (512, 384), (512, 384), (512, 384), (512, 384), (512, 384), (512, 384), (512, 384), (512, 384), (512, 384), (512, 384), (512, 384), (512, 384), (512, 384), (511, 390), (501, 397), (490, 405), (475, 415), (449, 433), (436, 441), (422, 449), (413, 456), (389, 475), (379, 486), (364, 500), (354, 510), (335, 530), (330, 534), (324, 540), (319, 546)]",139.99063380346226,"[2, 4, 6, 1, 9, 3, 5, 8, 7]","(0, 0.25)",DOT010A,DOT,A,Chinese,Mon Nov  5 13:52:50 2018,Mouse
2,3,1,0,53,5,5,1,448,278,170,142,0,500,200,8000,"[(512, 384), (512, 384), (512, 384), (512, 384), (512, 384), (512, 384), (512, 384), (512, 384), (512, 384), (512, 384), (512, 384), (512, 384), (512, 384), (512, 384), (512, 384), (512, 384), (512, 384), (512, 384), (512, 384), (512, 384), (512, 384), (512, 384), (512, 384), (512, 384), (512, 384), (512, 384), (512, 384), (512, 376), (511, 365), (507, 357), (503, 347), (495, 328), (490, 317), (487, 301), (483, 287), (475, 257), (474, 243), (473, 229), (471, 215), (469, 194), (468, 182), (468, 170), (467, 160), (467, 140), (464, 131)]",259.2573339358377,"[2, 4, 6, 1, 9, 3, 5, 8, 7]","(0, 0.25)",DOT010A,DOT,A,Chinese,Mon Nov  5 13:52:50 2018,Mouse
2,3,1,0,54,7,7,1,1392,1322,70,141,0,500,200,8000,"[(512, 384), (512, 384), (512, 384), (512, 384), (512, 384), (512, 384), (512, 384), (512, 384), (512, 384), (512, 384), (512, 384), (512, 384), (512, 384), (512, 384), (512, 384), (512, 384), (512, 384), (512, 384), (512, 384), (512, 384), (512, 384), (512, 384), (512, 384), (512, 384), (512, 384), (512, 384), (512, 384), (512, 384), (512, 384), (512, 384), (512, 384), (512, 384), (512, 384), (512, 384), (512, 384), (512, 384), (512, 384), (512, 384), (512, 384), (512, 384), (512, 384), (512, 384), (512, 384), (512, 384), (512, 384), (512, 384), (512, 384), (512, 384), (512, 384), (512, 384), (512, 384), (512, 384), (512, 384), (512, 384), (512, 384), (512, 384), (512, 384), (512, 384), (512, 384), (512, 384), (512, 384), (512, 384), (512, 384), (512, 384), (512, 384), (512, 384), (512, 384), (512, 384), (512, 384), (512, 384), (512, 384), (512, 384), (512, 384), (512, 384), (512, 384), (512, 384), (512, 384), (512, 384), (512, 384), (512, 384), (512, 384), (512, 384), (512, 384), (512, 384), (512, 384), (512, 384), (512, 384), (512, 384), (512, 384), (512, 384), (512, 384), (512, 384), (512, 384), (512, 384), (512, 384), (512, 384), (512, 384), (512, 384), (512, 384), (512, 384), (512, 384), (512, 384), (512, 384), (512, 384), (512, 384), (512, 384), (512, 384), (512, 384), (512, 384), (512, 384), (512, 384), (512, 384), (512, 384), (512, 384), (512, 384), (512, 384), (512, 384), (512, 384), (512, 384), (512, 384), (512, 384), (512, 384), (512, 384), (512, 384), (512, 384), (512, 384), (512, 384), (512, 384), (512, 384), (512, 384), (512, 384), (512, 384), (515, 384), (524, 384), (545, 383), (610, 369), (649, 356), (686, 341), (718, 327), (771, 304)]",342.83511127284163,"[2, 4, 6, 1, 9, 3, 5, 8, 7]","(0, 0.25)",DOT010A,DOT,A,Chinese,Mon Nov  5 13:52:50 2018,Mouse
2,3,1,0,55,1,1,1,638,227,411,140,0,500,200,8000,"[(512, 384), (512, 384), (512, 384), (512, 384), (512, 384), (512, 384), (512, 384), (512, 384), (512, 384), (512, 384), (512, 384), (512, 384), (512, 384), (512, 384), (512, 384), (512, 384), (512, 384), (512, 384), (512, 384), (512, 384), (512, 384), (512, 384), (511, 384), (500, 390), (494, 393), (488, 398), (483, 402), (468, 412), (461, 419), (453, 424), (447, 431), (429, 447), (420, 458), (410, 470), (395, 487), (388, 494), (380, 503), (371, 512), (363, 521), (351, 531), (345, 536), (343, 538), (341, 540), (340, 540), (340, 541), (340, 541), (340, 541), (337, 541), (335, 543), (334, 543), (331, 544), (326, 546), (324, 547), (324, 547), (324, 547), (324, 547), (324, 547), (324, 547), (324, 547), (323, 547), (323, 547), (323, 547), (323, 547), (319, 549)]",139.4721300642844,"[2, 4, 6, 1, 9, 3, 5, 8, 7]","(0, 0.25)",DOT010A,DOT,A,Chinese,Mon Nov  5 13:52:50 2018,Mouse
2,3,1,0,56,9,9,1,760,710,50,139,0,500,200,8000,"[(512, 384), (512, 384), (512, 384), (512, 384), (512, 384), (512, 384), (512, 384), (512, 384), (512, 384), (512, 384), (512, 384), (512, 384), (512, 384), (512, 384), (512, 384), (512, 384), (512, 384), (512, 384), (512, 384), (512, 384), (512, 384), (512, 384), (512, 384), (512, 384), (512, 384), (512, 384), (512, 384), (512, 384), (512, 384), (512, 384), (512, 384), (512, 384), (512, 384), (512, 384), (512, 384), (512, 384), (512, 384), (512, 384), (512, 384), (512, 384), (512, 384), (512, 384), (512, 384), (512, 384), (512, 384), (512, 384), (512, 384), (512, 384), (512, 384), (512, 384), (512, 384), (512, 384), (512, 384), (512, 384), (512, 384), (512, 384), (512, 384), (512, 384), (512, 384), (512, 384), (512, 384), (512, 384), (512, 384), (512, 384), (512, 384), (512, 384), (512, 384), (512, 384), (512, 384), (512, 384), (503, 384), (449, 384), (410, 384), (368, 384), (332, 384), (259, 381)]",180.67936475546523,"[2, 4, 6, 1, 9, 3, 5, 8, 7]","(0, 0.25)",DOT010A,DOT,A,Chinese,Mon Nov  5 13:52:50 2018,Mouse
2,3,1,0,57,2,2,1,541,451,90,138,0,500,200,8000,"[(512, 384), (512, 384), (512, 384), (512, 384), (512, 384), (512, 384), (512, 384), (512, 384), (512, 384), (512, 384), (512, 384), (512, 384), (512, 384), (512, 384), (512, 384), (512, 384), (512, 384), (512, 384), (512, 384), (512, 384), (512, 384), (512, 384), (512, 384), (512, 384), (512, 384), (512, 384), (512, 384), (512, 384), (512, 384), (512, 384), (512, 384), (512, 384), (512, 384), (512, 384), (512, 384), (512, 384), (512, 384), (512, 384), (512, 384), (512, 384), (512, 384), (512, 384), (512, 384), (512, 384), (512, 384), (514, 384), (522, 384), (529, 388), (534, 388), (559, 398), (581, 402), (603, 410), (645, 423), (742, 463), (786, 479)]",19.122215286467952,"[2, 4, 6, 1, 9, 3, 5, 8, 7]","(0, 0.25)",DOT010A,DOT,A,Chinese,Mon Nov  5 13:52:50 2018,Mouse
2,3,1,0,58,1,1,1,362,152,210,137,0,500,200,8000,"[(512, 384), (512, 384), (512, 384), (512, 384), (512, 384), (512, 384), (512, 384), (512, 384), (512, 384), (512, 384), (512, 384), (512, 384), (512, 384), (512, 384), (512, 384), (510, 384), (506, 385), (503, 386), (494, 394), (484, 400), (470, 410), (460, 419), (438, 438), (426, 449), (413, 460), (404, 468), (392, 477), (386, 481), (381, 481), (378, 483), (369, 488), (363, 490), (356, 497), (348, 503), (331, 523), (325, 533), (315, 545)]",140.74228327780415,"[2, 4, 6, 1, 9, 3, 5, 8, 7]","(0, 0.25)",DOT010A,DOT,A,Chinese,Mon Nov  5 13:52:50 2018,Mouse
2,3,1,0,59,5,1,0,-884,764,120,136,0,500,200,8000,"[(512, 384), (512, 384), (512, 384), (512, 384), (512, 384), (512, 384), (512, 384), (512, 384), (512, 384), (512, 384), (512, 384), (512, 384), (512, 384), (512, 384), (512, 384), (512, 384), (512, 384), (512, 384), (512, 384), (512, 384), (512, 384), (512, 384), (512, 384), (512, 384), (512, 384), (512, 384), (512, 384), (512, 384), (512, 384), (512, 384), (512, 384), (512, 384), (512, 384), (512, 384), (512, 384), (512, 384), (512, 384), (512, 384), (512, 384), (512, 384), (512, 384), (512, 384), (512, 384), (512, 384), (512, 384), (512, 384), (512, 384), (512, 384), (512, 384), (512, 384), (512, 384), (512, 384), (512, 384), (512, 384), (512, 384), (512, 384), (512, 384), (512, 384), (512, 384), (512, 384), (512, 384), (512, 384), (512, 384), (512, 384), (512, 384), (512, 384), (512, 384), (512, 384), (512, 384), (512, 384), (512, 384), (512, 384), (512, 384), (512, 384), (512, 384), (512, 384), (503, 392), (481, 417), (469, 429), (456, 443), (441, 457), (414, 485), (397, 496), (378, 508), (364, 517), (348, 528), (342, 534), (335, 542), (325, 552)]",138.0636116595517,"[2, 4, 6, 1, 9, 3, 5, 8, 7]","(0, 0.25)",DOT010A,DOT,A,Chinese,Mon Nov  5 13:52:50 2018,Mouse
2,3,1,0,60,5,5,1,582,482,100,137,0,500,200,8000,"[(512, 384), (512, 384), (512, 384), (512, 384), (512, 384), (512, 384), (512, 384), (512, 384), (512, 384), (512, 384), (512, 384), (512, 384), (512, 384), (512, 384), (512, 384), (512, 384), (512, 384), (512, 384), (512, 384), (512, 384), (512, 384), (512, 384), (512, 384), (512, 384), (512, 384), (512, 384), (512, 384), (512, 384), (512, 384), (512, 384), (512, 384), (512, 384), (512, 384), (512, 384), (512, 384), (512, 384), (512, 384), (512, 384), (512, 384), (512, 384), (512, 384), (512, 384), (512, 384), (512, 384), (512, 384), (512, 384), (512, 384), (512, 384), (511, 380), (510, 354), (506, 335), (503, 314), (501, 293), (490, 249), (487, 228), (485, 209), (482, 188), (476, 146), (476, 131)]",261.9016053235773,"[2, 4, 6, 1, 9, 3, 5, 8, 7]","(0, 0.25)",DOT010A,DOT,A,Chinese,Mon Nov  5 13:52:50 2018,Mouse
2,3,1,0,61,6,7,0,-1182,1112,70,137,0,500,200,8000,"[(512, 384), (512, 384), (512, 384), (512, 384), (512, 384), (512, 384), (512, 384), (512, 384), (512, 384), (512, 384), (512, 384), (512, 384), (512, 384), (512, 384), (512, 384), (512, 384), (512, 384), (512, 384), (512, 384), (512, 384), (512, 384), (512, 384), (512, 384), (512, 384), (512, 384), (512, 384), (512, 384), (512, 384), (512, 384), (512, 384), (512, 384), (512, 384), (512, 384), (512, 384), (512, 384), (512, 384), (512, 384), (512, 384), (512, 384), (512, 384), (512, 384), (512, 384), (512, 384), (512, 384), (512, 384), (512, 384), (512, 384), (512, 384), (512, 384), (512, 384), (512, 384), (512, 384), (512, 384), (512, 384), (512, 384), (512, 384), (512, 384), (512, 384), (512, 384), (512, 384), (512, 384), (512, 384), (512, 384), (512, 384), (512, 384), (512, 384), (512, 384), (512, 384), (512, 384), (512, 384), (512, 384), (512, 384), (512, 384), (512, 384), (512, 384), (512, 384), (512, 384), (512, 384), (512, 384), (512, 384), (512, 384), (512, 384), (512, 384), (512, 384), (512, 384), (512, 384), (512, 384), (512, 384), (512, 384), (512, 384), (512, 384), (512, 384), (512, 384), (512, 384), (512, 384), (512, 384), (512, 384), (512, 384), (512, 384), (512, 384), (512, 384), (512, 384), (512, 384), (512, 384), (512, 384), (512, 384), (512, 384), (512, 384), (512, 384), (512, 384), (512, 384), (520, 384), (538, 382), (561, 372), (589, 364), (661, 346), (697, 337), (740, 328), (768, 319)]",345.75330466120437,"[2, 4, 6, 1, 9, 3, 5, 8, 7]","(0, 0.25)",DOT010A,DOT,A,Chinese,Mon Nov  5 13:52:50 2018,Mouse
2,3,1,0,62,3,1,0,-291,211,80,138,0,500,200,8000,"[(512, 384), (512, 384), (512, 384), (512, 384), (512, 384), (512, 384), (512, 384), (512, 384), (512, 384), (512, 384), (512, 384), (512, 384), (512, 384), (512, 384), (512, 384), (512, 384), (512, 384), (512, 384), (512, 384), (512, 384), (512, 384), (494, 395), (475, 406), (456, 417), (439, 430), (389, 460), (368, 472), (343, 487), (318, 502), (273, 532)]",148.23226760651417,"[2, 4, 6, 1, 9, 3, 5, 8, 7]","(0, 0.25)",DOT010A,DOT,A,Chinese,Mon Nov  5 13:52:50 2018,Mouse
2,3,1,0,63,9,9,1,561,461,100,139,0,500,200,8000,"[(512, 384), (512, 384), (512, 384), (512, 384), (512, 384), (512, 384), (512, 384), (512, 384), (512, 384), (512, 384), (512, 384), (512, 384), (512, 384), (512, 384), (512, 384), (512, 384), (512, 384), (512, 384), (512, 384), (512, 384), (512, 384), (512, 384), (512, 384), (512, 384), (512, 384), (512, 384), (512, 384), (512, 384), (512, 384), (512, 384), (512, 384), (512, 384), (512, 384), (512, 384), (512, 384), (512, 384), (512, 384), (512, 384), (512, 384), (512, 384), (512, 384), (512, 384), (512, 384), (512, 384), (512, 384), (512, 384), (506, 385), (486, 390), (439, 395), (410, 398), (374, 398), (346, 398), (307, 398), (290, 398), (278, 398), (271, 398), (256, 398)]",176.8697551377809,"[2, 4, 6, 1, 9, 3, 5, 8, 7]","(0, 0.25)",DOT010A,DOT,A,Chinese,Mon Nov  5 13:52:50 2018,Mouse
2,3,1,0,64,1,1,1,355,95,260,139,0,500,200,8000,"[(512, 384), (512, 384), (512, 384), (512, 384), (512, 384), (512, 384), (512, 384), (512, 384), (512, 384), (505, 385), (498, 389), (482, 400), (473, 406), (466, 411), (462, 414), (455, 416), (454, 417), (452, 419), (450, 421), (441, 432), (434, 441), (426, 452), (418, 462), (400, 480), (391, 487), (385, 492), (380, 496), (372, 500), (369, 501), (369, 501), (369, 501), (363, 505), (356, 511), (347, 523), (337, 535), (315, 562)]",137.90050588515396,"[2, 4, 6, 1, 9, 3, 5, 8, 7]","(0, 0.25)",DOT010A,DOT,A,Chinese,Mon Nov  5 13:52:50 2018,Mouse
2,3,1,0,65,9,9,1,454,274,180,138,0,500,200,8000,"[(512, 384), (512, 384), (512, 384), (512, 384), (512, 384), (512, 384), (512, 384), (512, 384), (512, 384), (512, 384), (512, 384), (512, 384), (512, 384), (512, 384), (512, 384), (512, 384), (512, 384), (512, 384), (512, 384), (512, 384), (512, 384), (512, 384), (512, 384), (512, 384), (512, 384), (512, 384), (512, 384), (507, 383), (492, 383), (478, 385), (459, 386), (413, 390), (385, 390), (357, 390), (332, 390), (301, 390), (294, 389), (291, 389), (289, 389), (284, 388), (283, 388), (280, 386), (279, 385), (267, 385), (265, 385), (257, 385)]",179.7753118203755,"[2, 4, 6, 1, 9, 3, 5, 8, 7]","(0, 0.25)",DOT010A,DOT,A,Chinese,Mon Nov  5 13:52:50 2018,Mouse
2,3,1,0,66,9,1,0,-732,602,130,137,0,500,200,8000,"[(512, 384), (512, 384), (512, 384), (512, 384), (512, 384), (512, 384), (512, 384), (512, 384), (512, 384), (512, 384), (512, 384), (512, 384), (512, 384), (512, 384), (512, 384), (512, 384), (512, 384), (512, 384), (512, 384), (512, 384), (512, 384), (512, 384), (512, 384), (512, 384), (512, 384), (512, 384), (512, 384), (512, 384), (512, 384), (512, 384), (512, 384), (512, 384), (512, 384), (512, 384), (512, 384), (512, 384), (512, 384), (512, 384), (512, 384), (512, 384), (512, 384), (512, 384), (512, 384), (512, 384), (512, 384), (512, 384), (512, 384), (512, 384), (512, 384), (512, 384), (512, 384), (512, 384), (512, 384), (512, 384), (512, 384), (512, 384), (512, 384), (512, 384), (512, 384), (512, 384), (508, 384), (502, 386), (484, 396), (474, 401), (468, 408), (456, 417), (427, 438), (412, 452), (394, 469), (373, 485), (346, 513), (334, 524), (321, 537), (308, 549)]",141.0332530062007,"[2, 4, 6, 1, 9, 3, 5, 8, 7]","(0, 0.25)",DOT010A,DOT,A,Chinese,Mon Nov  5 13:52:50 2018,Mouse
2,3,1,0,67,6,7,0,-1084,1024,60,138,0,500,200,8000,"[(512, 384), (512, 384), (512, 384), (512, 384), (512, 384), (512, 384), (512, 384), (512, 384), (512, 384), (512, 384), (512, 384), (512, 384), (512, 384), (512, 384), (512, 384), (512, 384), (512, 384), (512, 384), (512, 384), (512, 384), (512, 384), (512, 384), (512, 384), (512, 384), (512, 384), (512, 384), (512, 384), (512, 384), (512, 384), (512, 384), (512, 384), (512, 384), (512, 384), (512, 384), (512, 384), (512, 384), (512, 384), (512, 384), (512, 384), (512, 384), (512, 384), (512, 384), (512, 384), (512, 384), (512, 384), (512, 384), (512, 384), (512, 384), (512, 384), (512, 384), (512, 384), (512, 384), (512, 384), (512, 384), (512, 384), (512, 384), (512, 384), (512, 384), (512, 384), (512, 384), (512, 384), (512, 384), (512, 384), (512, 384), (512, 384), (512, 384), (512, 384), (512, 384), (512, 384), (512, 384), (512, 384), (512, 384), (512, 384), (512, 384), (512, 384), (512, 384), (512, 384), (512, 384), (512, 384), (512, 384), (512, 384), (512, 384), (512, 384), (512, 384), (512, 384), (512, 384), (512, 384), (512, 384), (512, 384), (512, 384), (512, 384), (512, 384), (512, 384), (512, 384), (512, 384), (512, 384), (512, 384), (512, 384), (512, 384), (512, 384), (512, 384), (512, 384), (514, 383), (521, 383), (573, 365), (612, 356), (659, 344), (703, 333), (797, 319)]",347.1522951412823,"[2, 4, 6, 1, 9, 3, 5, 8, 7]","(0, 0.25)",DOT010A,DOT,A,Chinese,Mon Nov  5 13:52:50 2018,Mouse
2,3,1,0,68,8,8,1,413,213,200,139,0,500,200,8000,"[(512, 384), (512, 384), (512, 384), (512, 384), (512, 384), (512, 384), (512, 384), (512, 384), (512, 384), (512, 384), (512, 384), (512, 384), (512, 384), (512, 384), (512, 384), (512, 384), (512, 384), (512, 384), (512, 384), (512, 384), (512, 384), (511, 385), (512, 385), (518, 381), (537, 369), (551, 359), (561, 351), (571, 340), (589, 321), (597, 311), (603, 301), (606, 294), (617, 275), (624, 263), (632, 253), (639, 242), (647, 227), (650, 221), (653, 215), (655, 209), (659, 192), (661, 183)]",306.54930110639793,"[2, 4, 6, 1, 9, 3, 5, 8, 7]","(0, 0.25)",DOT010A,DOT,A,Chinese,Mon Nov  5 13:52:50 2018,Mouse
2,3,1,0,69,5,5,1,691,591,100,139,0,500,200,8000,"[(512, 384), (512, 384), (512, 384), (512, 384), (512, 384), (512, 384), (512, 384), (512, 384), (512, 384), (512, 384), (512, 384), (512, 384), (512, 384), (512, 384), (512, 384), (512, 384), (512, 384), (512, 384), (512, 384), (512, 384), (512, 384), (512, 384), (512, 384), (512, 384), (512, 384), (512, 384), (512, 384), (512, 384), (512, 384), (512, 384), (512, 384), (512, 384), (512, 384), (512, 384), (512, 384), (512, 384), (512, 384), (512, 384), (512, 384), (512, 384), (512, 384), (512, 384), (512, 384), (512, 384), (512, 384), (512, 384), (512, 384), (512, 384), (512, 384), (512, 384), (512, 384), (512, 384), (512, 384), (512, 384), (512, 384), (512, 384), (512, 384), (512, 384), (512, 384), (512, 372), (512, 349), (512, 324), (512, 301), (510, 242), (505, 213), (504, 198), (500, 180), (496, 148), (495, 136), (494, 126)]",266.0090869015702,"[2, 4, 6, 1, 9, 3, 5, 8, 7]","(0, 0.25)",DOT010A,DOT,A,Chinese,Mon Nov  5 13:52:50 2018,Mouse
2,3,1,0,70,3,1,0,-292,202,90,138,0,500,200,8000,"[(512, 384), (512, 384), (512, 384), (512, 384), (512, 384), (512, 384), (512, 384), (512, 384), (512, 384), (512, 384), (512, 384), (512, 384), (512, 384), (512, 384), (512, 384), (512, 384), (512, 384), (512, 384), (512, 384), (512, 384), (512, 388), (506, 397), (464, 432), (443, 450), (425, 460), (407, 473), (365, 505), (342, 521), (322, 536), (304, 551)]",141.23955523433065,"[2, 4, 6, 1, 9, 3, 5, 8, 7]","(0, 0.25)",DOT010A,DOT,A,Chinese,Mon Nov  5 13:52:50 2018,Mouse
2,3,1,0,71,2,2,1,1282,1192,90,139,0,500,200,8000,"[(512, 384), (512, 384), (512, 384), (512, 384), (512, 384), (512, 384), (512, 384), (512, 384), (512, 384), (512, 384), (512, 384), (512, 384), (512, 384), (512, 384), (512, 384), (512, 384), (512, 384), (512, 384), (512, 384), (512, 384), (512, 384), (512, 384), (512, 384), (512, 384), (512, 384), (512, 384), (512, 384), (512, 384), (512, 384), (512, 384), (512, 384), (512, 384), (512, 384), (512, 384), (512, 384), (512, 384), (512, 384), (512, 384), (512, 384), (512, 384), (512, 384), (512, 384), (512, 384), (512, 384), (512, 384), (512, 384), (512, 384), (512, 384), (512, 384), (512, 384), (512, 384), (512, 384), (512, 384), (512, 384), (512, 384), (512, 384), (512, 384), (512, 384), (512, 384), (512, 384), (512, 384), (512, 384), (512, 384), (512, 384), (512, 384), (512, 384), (512, 384), (512, 384), (512, 384), (512, 384), (512, 384), (512, 384), (512, 384), (512, 384), (512, 384), (512, 384), (512, 384), (512, 384), (512, 384), (512, 384), (512, 384), (512, 384), (512, 384), (512, 384), (512, 384), (512, 384), (512, 384), (512, 384), (512, 384), (512, 384), (512, 384), (512, 384), (512, 384), (512, 384), (512, 384), (512, 384), (512, 384), (512, 384), (512, 384), (512, 384), (512, 384), (512, 384), (512, 384), (512, 384), (512, 384), (512, 384), (512, 384), (512, 384), (512, 384), (512, 384), (512, 384), (512, 384), (512, 384), (512, 384), (512, 384), (512, 384), (512, 384), (512, 384), (512, 384), (516, 384), (520, 384), (536, 388), (543, 391), (555, 400), (568, 413), (635, 458), (681, 484), (725, 510), (772, 538)]",30.638585338186616,"[2, 4, 6, 1, 9, 3, 5, 8, 7]","(0, 0.25)",DOT010A,DOT,A,Chinese,Mon Nov  5 13:52:50 2018,Mouse
2,3,1,0,72,3,3,1,481,421,60,139,0,500,200,8000,"[(512, 384), (512, 384), (512, 384), (512, 384), (512, 384), (512, 384), (512, 384), (512, 384), (512, 384), (512, 384), (512, 384), (512, 384), (512, 384), (512, 384), (512, 384), (512, 384), (512, 384), (512, 384), (512, 384), (512, 384), (512, 384), (512, 384), (512, 384), (512, 384), (512, 384), (512, 384), (512, 384), (512, 384), (512, 384), (512, 384), (512, 384), (512, 384), (512, 384), (512, 384), (512, 384), (512, 384), (512, 384), (512, 384), (512, 384), (512, 384), (512, 384), (512, 384), (511, 383), (509, 383), (493, 362), (443, 304), (392, 261), (336, 221), (289, 188)]",221.31300685104014,"[2, 4, 6, 1, 9, 3, 5, 8, 7]","(0, 0.25)",DOT010A,DOT,A,Chinese,Mon Nov  5 13:52:50 2018,Mouse
2,3,1,0,73,2,8,0,-1382,1292,90,138,0,500,200,8000,"[(512, 384), (512, 384), (512, 384), (512, 384), (512, 384), (512, 384), (512, 384), (512, 384), (512, 384), (512, 384), (512, 384), (512, 384), (512, 384), (512, 384), (512, 384), (512, 384), (512, 384), (512, 384), (512, 384), (512, 384), (512, 384), (512, 384), (512, 384), (512, 384), (512, 384), (512, 384), (512, 384), (512, 384), (512, 384), (512, 384), (512, 384), (512, 384), (512, 384), (512, 384), (512, 384), (512, 384), (512, 384), (512, 384), (512, 384), (512, 384), (512, 384), (512, 384), (512, 384), (512, 384), (512, 384), (512, 384), (512, 384), (512, 384), (512, 384), (512, 384), (512, 384), (512, 384), (512, 384), (512, 384), (512, 384), (512, 384), (512, 384), (512, 384), (512, 384), (512, 384), (512, 384), (512, 384), (512, 384), (512, 384), (512, 384), (512, 384), (512, 384), (512, 384), (512, 384), (512, 384), (512, 384), (512, 384), (512, 384), (512, 384), (512, 384), (512, 384), (512, 384), (512, 384), (512, 384), (512, 384), (512, 384), (512, 384), (512, 384), (512, 384), (512, 384), (512, 384), (512, 384), (512, 384), (512, 384), (512, 384), (512, 384), (512, 384), (512, 384), (512, 384), (512, 384), (512, 384), (512, 384), (512, 384), (512, 384), (512, 384), (512, 384), (512, 384), (512, 384), (512, 384), (512, 384), (512, 384), (512, 384), (512, 384), (512, 384), (512, 384), (512, 384), (512, 384), (512, 384), (512, 384), (512, 384), (512, 384), (512, 384), (512, 384), (512, 384), (512, 384), (512, 384), (512, 384), (512, 384), (512, 384), (512, 384), (512, 384), (512, 384), (512, 384), (512, 384), (517, 381), (529, 365), (541, 346), (562, 320), (593, 277), (612, 254), (624, 239), (637, 219), (658, 186), (664, 175)]",306.0273733851036,"[2, 4, 6, 1, 9, 3, 5, 8, 7]","(0, 0.25)",DOT010A,DOT,A,Chinese,Mon Nov  5 13:52:50 2018,Mouse
2,3,1,0,74,9,7,0,-812,692,120,139,0,500,200,8000,"[(512, 384), (512, 384), (512, 384), (512, 384), (512, 384), (512, 384), (512, 384), (512, 384), (512, 384), (512, 384), (512, 384), (512, 384), (512, 384), (512, 384), (512, 384), (512, 384), (512, 384), (512, 384), (512, 384), (512, 384), (512, 384), (512, 384), (512, 384), (512, 384), (512, 384), (512, 384), (512, 384), (512, 384), (512, 384), (512, 384), (512, 384), (512, 384), (512, 384), (512, 384), (512, 384), (512, 384), (512, 384), (512, 384), (512, 384), (512, 384), (512, 384), (512, 384), (512, 384), (512, 384), (512, 384), (512, 384), (512, 384), (512, 384), (512, 384), (512, 384), (512, 384), (512, 384), (512, 384), (512, 384), (512, 384), (512, 384), (512, 384), (512, 384), (512, 384), (512, 384), (512, 384), (512, 384), (512, 384), (512, 384), (512, 384), (512, 384), (512, 384), (512, 384), (512, 384), (513, 384), (523, 384), (558, 374), (585, 368), (612, 363), (634, 359), (673, 354), (684, 353), (695, 350), (711, 345), (742, 331), (751, 327), (757, 323)]",346.01879568854736,"[2, 4, 6, 1, 9, 3, 5, 8, 7]","(0, 0.25)",DOT010A,DOT,A,Chinese,Mon Nov  5 13:52:50 2018,Mouse
2,3,1,0,75,5,5,1,702,572,130,140,0,500,200,8000,"[(512, 384), (512, 384), (512, 384), (512, 384), (512, 384), (512, 384), (512, 384), (512, 384), (512, 384), (512, 384), (512, 384), (512, 384), (512, 384), (512, 384), (512, 384), (512, 384), (512, 384), (512, 384), (512, 384), (512, 384), (512, 384), (512, 384), (512, 384), (512, 384), (512, 384), (512, 384), (512, 384), (512, 384), (512, 384), (512, 384), (512, 384), (512, 384), (512, 384), (512, 384), (512, 384), (512, 384), (512, 384), (512, 384), (512, 384), (512, 384), (512, 384), (512, 384), (512, 384), (512, 384), (512, 384), (512, 384), (512, 384), (512, 384), (512, 384), (512, 384), (512, 384), (512, 384), (512, 384), (512, 384), (512, 384), (512, 384), (512, 384), (510, 371), (509, 351), (509, 329), (504, 302), (497, 264), (495, 247), (491, 230), (490, 222), (485, 201), (482, 189), (479, 179), (473, 166), (462, 140), (456, 131)]",257.519158608243,"[2, 4, 6, 1, 9, 3, 5, 8, 7]","(0, 0.25)",DOT010A,DOT,A,Chinese,Mon Nov  5 13:52:50 2018,Mouse
2,3,1,0,76,3,3,1,408,338,70,140,0,500,200,8000,"[(512, 384), (512, 384), (512, 384), (512, 384), (512, 384), (512, 384), (512, 384), (512, 384), (512, 384), (512, 384), (512, 384), (512, 384), (512, 384), (512, 384), (512, 384), (512, 384), (512, 384), (512, 384), (512, 384), (512, 384), (512, 384), (512, 384), (512, 384), (512, 384), (512, 384), (512, 384), (512, 384), (512, 384), (512, 384), (512, 384), (512, 384), (512, 384), (512, 384), (512, 378), (498, 350), (482, 330), (458, 303), (431, 277), (369, 231), (338, 209), (321, 198)]",224.2401535743895,"[2, 4, 6, 1, 9, 3, 5, 8, 7]","(0, 0.25)",DOT010A,DOT,A,Chinese,Mon Nov  5 13:52:50 2018,Mouse
2,3,1,0,77,3,3,1,390,200,190,139,0,500,200,8000,"[(512, 384), (512, 384), (512, 384), (512, 384), (512, 384), (512, 384), (512, 384), (512, 384), (512, 384), (512, 384), (512, 384), (512, 384), (512, 384), (512, 384), (512, 384), (512, 384), (512, 384), (512, 384), (512, 384), (512, 383), (509, 377), (485, 359), (477, 351), (464, 341), (452, 333), (422, 311), (405, 300), (390, 287), (378, 278), (364, 267), (363, 266), (359, 262), (356, 257), (346, 246), (343, 241), (337, 236), (332, 231), (323, 221), (318, 216)]",220.89188782286413,"[2, 4, 6, 1, 9, 3, 5, 8, 7]","(0, 0.25)",DOT010A,DOT,A,Chinese,Mon Nov  5 13:52:50 2018,Mouse
2,3,1,0,78,7,7,1,389,199,190,138,0,500,200,8000,"[(512, 384), (512, 384), (512, 384), (512, 384), (512, 384), (512, 384), (512, 384), (512, 384), (512, 384), (512, 384), (512, 384), (512, 384), (512, 384), (512, 384), (512, 384), (512, 384), (512, 384), (512, 384), (512, 384), (514, 384), (519, 384), (525, 384), (544, 381), (555, 381), (568, 381), (582, 380), (610, 373), (619, 369), (629, 365), (644, 356), (668, 340), (678, 333), (690, 326), (701, 318), (717, 312), (727, 310), (738, 308), (744, 308), (758, 307)]",342.6194556805998,"[2, 4, 6, 1, 9, 3, 5, 8, 7]","(0, 0.25)",DOT010A,DOT,A,Chinese,Mon Nov  5 13:52:50 2018,Mouse
2,3,1,0,79,8,8,1,882,562,320,137,0,500,200,8000,"[(512, 384), (512, 384), (512, 384), (512, 384), (512, 384), (512, 384), (512, 384), (512, 384), (512, 384), (512, 384), (512, 384), (512, 384), (512, 384), (512, 384), (512, 384), (512, 384), (512, 384), (512, 384), (512, 384), (512, 384), (512, 384), (512, 384), (512, 384), (512, 384), (512, 384), (512, 384), (512, 384), (512, 384), (512, 384), (512, 384), (512, 384), (512, 384), (512, 384), (512, 384), (512, 384), (512, 384), (512, 384), (512, 384), (512, 384), (512, 384), (512, 384), (512, 384), (512, 384), (512, 384), (512, 384), (512, 384), (512, 384), (512, 384), (512, 384), (512, 384), (512, 384), (512, 384), (512, 384), (512, 384), (512, 384), (512, 384), (515, 380), (521, 367), (529, 354), (540, 332), (560, 306), (568, 296), (575, 287), (579, 278), (588, 261), (590, 254), (591, 245), (594, 235), (595, 219), (595, 213), (598, 207), (599, 203), (603, 196), (605, 192), (608, 189), (608, 187), (611, 183), (613, 181), (615, 178), (616, 176), (617, 174), (618, 173), (620, 172), (620, 171), (623, 169), (627, 167), (629, 167), (632, 166), (636, 165)]",299.51897500769223,"[2, 4, 6, 1, 9, 3, 5, 8, 7]","(0, 0.25)",DOT010A,DOT,A,Chinese,Mon Nov  5 13:52:50 2018,Mouse
2,3,1,0,80,1,1,1,303,123,180,136,0,500,200,8000,"[(512, 384), (512, 384), (512, 384), (512, 384), (512, 384), (512, 384), (512, 384), (512, 384), (512, 384), (512, 384), (512, 384), (512, 384), (511, 386), (509, 386), (507, 387), (506, 387), (503, 388), (502, 389), (499, 390), (493, 393), (475, 405), (463, 411), (446, 423), (434, 432), (397, 459), (379, 472), (364, 486), (354, 495), (328, 515), (313, 527), (298, 540)]",143.90900001194163,"[2, 4, 6, 1, 9, 3, 5, 8, 7]","(0, 0.25)",DOT010A,DOT,A,Chinese,Mon Nov  5 13:52:50 2018,Mouse
2,3,1,0,81,4,9,0,-1101,1041,60,135,0,500,200,8000,"[(512, 384), (512, 384), (512, 384), (512, 384), (512, 384), (512, 384), (512, 384), (512, 384), (512, 384), (512, 384), (512, 384), (512, 384), (512, 384), (512, 384), (512, 384), (512, 384), (512, 384), (512, 384), (512, 384), (512, 384), (512, 384), (512, 384), (512, 384), (512, 384), (512, 384), (512, 384), (512, 384), (512, 384), (512, 384), (512, 384), (512, 384), (512, 384), (512, 384), (512, 384), (512, 384), (512, 384), (512, 384), (512, 384), (512, 384), (512, 384), (512, 384), (512, 384), (512, 384), (512, 384), (512, 384), (512, 384), (512, 384), (512, 384), (512, 384), (512, 384), (512, 384), (512, 384), (512, 384), (512, 384), (512, 384), (512, 384), (512, 384), (512, 384), (512, 384), (512, 384), (512, 384), (512, 384), (512, 384), (512, 384), (512, 384), (512, 384), (512, 384), (512, 384), (512, 384), (512, 384), (512, 384), (512, 384), (512, 384), (512, 384), (512, 384), (512, 384), (512, 384), (512, 384), (512, 384), (512, 384), (512, 384), (512, 384), (512, 384), (512, 384), (512, 384), (512, 384), (512, 384), (512, 384), (512, 384), (512, 384), (512, 384), (512, 384), (512, 384), (512, 384), (512, 384), (512, 384), (512, 384), (512, 384), (512, 384), (512, 384), (512, 384), (512, 384), (512, 384), (512, 384), (504, 384), (481, 386), (409, 396), (371, 402), (332, 404), (292, 405), (228, 405)]",175.77103656011002,"[2, 4, 6, 1, 9, 3, 5, 8, 7]","(0, 0.25)",DOT010A,DOT,A,Chinese,Mon Nov  5 13:52:50 2018,Mouse
2,3,1,0,82,3,1,0,-1598,1548,50,136,0,500,200,8000,"[(512, 384), (512, 384), (512, 384), (512, 384), (512, 384), (512, 384), (512, 384), (512, 384), (512, 384), (512, 384), (512, 384), (512, 384), (512, 384), (512, 384), (512, 384), (512, 384), (512, 384), (512, 384), (512, 384), (512, 384), (512, 384), (512, 384), (512, 384), (512, 384), (512, 384), (512, 384), (512, 384), (512, 384), (512, 384), (512, 384), (512, 384), (512, 384), (512, 384), (512, 384), (512, 384), (512, 384), (512, 384), (512, 384), (512, 384), (512, 384), (512, 384), (512, 384), (512, 384), (512, 384), (512, 384), (512, 384), (512, 384), (512, 384), (512, 384), (512, 384), (512, 384), (512, 384), (512, 384), (512, 384), (512, 384), (512, 384), (512, 384), (512, 384), (512, 384), (512, 384), (512, 384), (512, 384), (512, 384), (512, 384), (512, 384), (512, 384), (512, 384), (512, 384), (512, 384), (512, 384), (512, 384), (512, 384), (512, 384), (512, 384), (512, 384), (512, 384), (512, 384), (512, 384), (512, 384), (512, 384), (512, 384), (512, 384), (512, 384), (512, 384), (512, 384), (512, 384), (512, 384), (512, 384), (512, 384), (512, 384), (512, 384), (512, 384), (512, 384), (512, 384), (512, 384), (512, 384), (512, 384), (512, 384), (512, 384), (512, 384), (512, 384), (512, 384), (512, 384), (512, 384), (512, 384), (512, 384), (512, 384), (512, 384), (512, 384), (512, 384), (512, 384), (512, 384), (512, 384), (512, 384), (512, 384), (512, 384), (512, 384), (512, 384), (512, 384), (512, 384), (512, 384), (512, 384), (512, 384), (512, 384), (512, 384), (512, 384), (512, 384), (512, 384), (512, 384), (512, 384), (512, 384), (512, 384), (512, 384), (512, 384), (512, 384), (512, 384), (512, 384), (512, 384), (512, 384), (512, 384), (512, 384), (512, 384), (512, 384), (512, 384), (512, 384), (512, 384), (512, 384), (512, 384), (512, 384), (512, 384), (512, 384), (512, 384), (512, 384), (512, 384), (506, 384), (485, 394), (450, 411), (409, 436), (318, 493), (271, 523)]",150.02522157944898,"[2, 4, 6, 1, 9, 3, 5, 8, 7]","(0, 0.25)",DOT010A,DOT,A,Chinese,Mon Nov  5 13:52:50 2018,Mouse
2,3,1,0,83,5,5,1,344,244,100,137,0,500,200,8000,"[(512, 384), (512, 384), (512, 384), (512, 384), (512, 384), (512, 384), (512, 384), (512, 384), (512, 384), (512, 384), (512, 384), (512, 384), (512, 384), (512, 384), (512, 384), (512, 384), (512, 384), (512, 384), (512, 384), (512, 384), (512, 384), (512, 384), (512, 384), (512, 384), (512, 382), (512, 363), (512, 315), (512, 293), (512, 265), (512, 243), (512, 209), (512, 192), (512, 167), (512, 145), (515, 109)]",270.62502007401747,"[2, 4, 6, 1, 9, 3, 5, 8, 7]","(0, 0.25)",DOT010A,DOT,A,Chinese,Mon Nov  5 13:52:50 2018,Mouse
2,3,1,0,84,9,9,1,385,275,110,137,0,500,200,8000,"[(512, 384), (512, 384), (512, 384), (512, 384), (512, 384), (512, 384), (512, 384), (512, 384), (512, 384), (512, 384), (512, 384), (512, 384), (512, 384), (512, 384), (512, 384), (512, 384), (512, 384), (512, 384), (512, 384), (512, 384), (512, 384), (512, 384), (512, 384), (512, 384), (512, 384), (512, 384), (512, 384), (504, 385), (485, 385), (460, 385), (431, 388), (375, 396), (351, 400), (330, 403), (316, 404), (287, 403), (278, 401), (268, 400), (262, 400)]",176.33806442448022,"[2, 4, 6, 1, 9, 3, 5, 8, 7]","(0, 0.25)",DOT010A,DOT,A,Chinese,Mon Nov  5 13:52:50 2018,Mouse
2,3,1,0,85,5,5,1,686,576,110,136,0,500,200,8000,"[(512, 384), (512, 384), (512, 384), (512, 384), (512, 384), (512, 384), (512, 384), (512, 384), (512, 384), (512, 384), (512, 384), (512, 384), (512, 384), (512, 384), (512, 384), (512, 384), (512, 384), (512, 384), (512, 384), (512, 384), (512, 384), (512, 384), (512, 384), (512, 384), (512, 384), (512, 384), (512, 384), (512, 384), (512, 384), (512, 384), (512, 384), (512, 384), (512, 384), (512, 384), (512, 384), (512, 384), (512, 384), (512, 384), (512, 384), (512, 384), (512, 384), (512, 384), (512, 384), (512, 384), (512, 384), (512, 384), (512, 384), (512, 384), (512, 384), (512, 384), (512, 384), (512, 384), (512, 384), (512, 384), (512, 384), (512, 384), (512, 384), (513, 384), (515, 381), (517, 369), (517, 337), (517, 320), (517, 303), (517, 286), (517, 241), (517, 219), (517, 191), (516, 149), (499, 80)]",267.5513434161756,"[2, 4, 6, 1, 9, 3, 5, 8, 7]","(0, 0.25)",DOT010A,DOT,A,Chinese,Mon Nov  5 13:52:50 2018,Mouse
2,3,1,0,86,1,1,1,292,202,90,135,0,500,200,8000,"[(512, 384), (512, 384), (512, 384), (512, 384), (512, 384), (512, 384), (512, 384), (512, 384), (512, 384), (512, 384), (512, 384), (512, 384), (512, 384), (512, 384), (512, 384), (512, 384), (512, 384), (512, 384), (512, 384), (512, 384), (505, 386), (491, 396), (473, 406), (446, 419), (406, 449), (386, 464), (370, 480), (351, 499), (324, 527), (315, 539)]",141.80425956260842,"[2, 4, 6, 1, 9, 3, 5, 8, 7]","(0, 0.25)",DOT010A,DOT,A,Chinese,Mon Nov  5 13:52:50 2018,Mouse
2,3,1,0,87,7,7,1,681,631,50,134,0,500,200,8000,"[(512, 384), (512, 384), (512, 384), (512, 384), (512, 384), (512, 384), (512, 384), (512, 384), (512, 384), (512, 384), (512, 384), (512, 384), (512, 384), (512, 384), (512, 384), (512, 384), (512, 384), (512, 384), (512, 384), (512, 384), (512, 384), (512, 384), (512, 384), (512, 384), (512, 384), (512, 384), (512, 384), (512, 384), (512, 384), (512, 384), (512, 384), (512, 384), (512, 384), (512, 384), (512, 384), (512, 384), (512, 384), (512, 384), (512, 384), (512, 384), (512, 384), (512, 384), (512, 384), (512, 384), (512, 384), (512, 384), (512, 384), (512, 384), (512, 384), (512, 384), (512, 384), (512, 384), (512, 384), (512, 384), (512, 384), (512, 384), (512, 384), (512, 384), (512, 384), (512, 384), (512, 384), (512, 384), (512, 384), (528, 384), (549, 384), (580, 381), (631, 375), (730, 355), (782, 345)]",351.78079075110094,"[2, 4, 6, 1, 9, 3, 5, 8, 7]","(0, 0.25)",DOT010A,DOT,A,Chinese,Mon Nov  5 13:52:50 2018,Mouse
2,3,1,0,88,6,4,0,-792,262,530,133,0,500,200,8000,"[(512, 384), (512, 384), (512, 384), (512, 384), (512, 384), (512, 384), (512, 384), (512, 384), (512, 384), (512, 384), (512, 384), (512, 384), (512, 384), (512, 384), (512, 384), (512, 384), (512, 384), (512, 384), (512, 384), (512, 384), (512, 384), (512, 384), (512, 384), (512, 384), (512, 384), (512, 384), (508, 380), (489, 352), (480, 339), (469, 324), (456, 307), (441, 283), (434, 271), (427, 261), (425, 258), (423, 254), (423, 254), (423, 254), (423, 254), (423, 254), (423, 254), (423, 254), (423, 254), (423, 254), (423, 254), (423, 254), (423, 254), (426, 258), (434, 263), (443, 272), (459, 289), (496, 330), (519, 348), (540, 366), (565, 386), (621, 425), (643, 439), (659, 447), (672, 454), (697, 472), (704, 477), (710, 481), (713, 483), (715, 485), (715, 485), (715, 485), (715, 486), (715, 487), (715, 487), (715, 487), (715, 487), (715, 488), (715, 490), (715, 493), (714, 497), (699, 518), (692, 531), (684, 549), (676, 565), (666, 583)]",52.2648105840843,"[2, 4, 6, 1, 9, 3, 5, 8, 7]","(0, 0.25)",DOT010A,DOT,A,Chinese,Mon Nov  5 13:52:50 2018,Mouse
2,3,1,0,89,8,9,0,-652,592,60,134,0,500,200,8000,"[(512, 384), (512, 384), (512, 384), (512, 384), (512, 384), (512, 384), (512, 384), (512, 384), (512, 384), (512, 384), (512, 384), (512, 384), (512, 384), (512, 384), (512, 384), (512, 384), (512, 384), (512, 384), (512, 384), (512, 384), (512, 384), (512, 384), (512, 384), (512, 384), (512, 384), (512, 384), (512, 384), (512, 384), (512, 384), (512, 384), (512, 384), (512, 384), (512, 384), (512, 384), (512, 384), (512, 384), (512, 384), (512, 384), (512, 384), (512, 384), (512, 384), (512, 384), (512, 384), (512, 384), (512, 384), (512, 384), (512, 384), (512, 384), (512, 384), (512, 384), (512, 384), (512, 384), (512, 384), (512, 384), (512, 384), (512, 384), (512, 384), (512, 384), (512, 384), (509, 384), (466, 389), (433, 396), (392, 404), (351, 415), (272, 428), (246, 433)]",169.56252464888183,"[2, 4, 6, 1, 9, 3, 5, 8, 7]","(0, 0.25)",DOT010A,DOT,A,Chinese,Mon Nov  5 13:52:50 2018,Mouse
2,3,1,0,90,3,3,1,482,352,130,135,0,500,200,8000,"[(512, 384), (512, 384), (512, 384), (512, 384), (512, 384), (512, 384), (512, 384), (512, 384), (512, 384), (512, 384), (512, 384), (512, 384), (512, 384), (512, 384), (512, 384), (512, 384), (512, 384), (512, 384), (512, 384), (512, 384), (512, 384), (512, 384), (512, 384), (512, 384), (512, 384), (512, 384), (512, 384), (512, 384), (512, 384), (512, 384), (512, 384), (512, 384), (512, 384), (512, 384), (512, 384), (512, 383), (511, 382), (507, 382), (505, 380), (488, 370), (477, 362), (466, 353), (454, 343), (407, 314), (385, 302), (363, 287), (340, 271), (308, 252), (294, 245)]",212.52218229178618,"[2, 4, 6, 1, 9, 3, 5, 8, 7]","(0, 0.25)",DOT010A,DOT,A,Chinese,Mon Nov  5 13:52:50 2018,Mouse
2,3,1,0,91,7,7,1,369,289,80,135,0,500,200,8000,"[(512, 384), (512, 384), (512, 384), (512, 384), (512, 384), (512, 384), (512, 384), (512, 384), (512, 384), (512, 384), (512, 384), (512, 384), (512, 384), (512, 384), (512, 384), (512, 384), (512, 384), (512, 384), (512, 384), (512, 384), (512, 384), (512, 384), (512, 384), (512, 384), (512, 384), (512, 384), (512, 384), (512, 384), (517, 383), (523, 379), (539, 377), (556, 373), (577, 370), (610, 363), (685, 352), (725, 339), (763, 328)]",347.42286182613003,"[2, 4, 6, 1, 9, 3, 5, 8, 7]","(0, 0.25)",DOT010A,DOT,A,Chinese,Mon Nov  5 13:52:50 2018,Mouse
2,3,1,0,92,8,8,1,616,516,100,134,0,500,200,8000,"[(512, 384), (512, 384), (512, 384), (512, 384), (512, 384), (512, 384), (512, 384), (512, 384), (512, 384), (512, 384), (512, 384), (512, 384), (512, 384), (512, 384), (512, 384), (512, 384), (512, 384), (512, 384), (512, 384), (512, 384), (512, 384), (512, 384), (512, 384), (512, 384), (512, 384), (512, 384), (512, 384), (512, 384), (512, 384), (512, 384), (512, 384), (512, 384), (512, 384), (512, 384), (512, 384), (512, 384), (512, 384), (512, 384), (512, 384), (512, 384), (512, 384), (512, 384), (512, 384), (512, 384), (512, 384), (512, 384), (512, 384), (512, 384), (512, 384), (512, 384), (512, 384), (516, 376), (526, 363), (548, 331), (563, 314), (579, 291), (596, 273), (622, 238), (632, 224), (639, 212), (646, 201), (659, 178)]",305.5113591077836,"[2, 4, 6, 1, 9, 3, 5, 8, 7]","(0, 0.25)",DOT010A,DOT,A,Chinese,Mon Nov  5 13:52:50 2018,Mouse
2,3,1,0,93,8,8,1,1101,1031,70,133,0,500,200,8000,"[(512, 384), (512, 384), (512, 384), (512, 384), (512, 384), (512, 384), (512, 384), (512, 384), (512, 384), (512, 384), (512, 384), (512, 384), (512, 384), (512, 384), (512, 384), (512, 384), (512, 384), (512, 384), (512, 384), (512, 384), (512, 384), (512, 384), (512, 384), (512, 384), (512, 384), (512, 384), (512, 384), (512, 384), (512, 384), (512, 384), (512, 384), (512, 384), (512, 384), (512, 384), (512, 384), (512, 384), (512, 384), (512, 384), (512, 384), (512, 384), (512, 384), (512, 384), (512, 384), (512, 384), (512, 384), (512, 384), (512, 384), (512, 384), (512, 384), (512, 384), (512, 384), (512, 384), (512, 384), (512, 384), (512, 384), (512, 384), (512, 384), (512, 384), (512, 384), (512, 384), (512, 384), (512, 384), (512, 384), (512, 384), (512, 384), (512, 384), (512, 384), (512, 384), (512, 384), (512, 384), (512, 384), (512, 384), (512, 384), (512, 384), (512, 384), (512, 384), (512, 384), (512, 384), (512, 384), (512, 384), (512, 384), (512, 384), (512, 384), (512, 384), (512, 384), (512, 384), (512, 384), (512, 384), (512, 384), (512, 384), (512, 384), (512, 384), (512, 384), (512, 384), (512, 384), (512, 384), (512, 384), (512, 384), (512, 384), (512, 384), (512, 384), (512, 384), (512, 384), (516, 383), (562, 351), (582, 336), (608, 315), (637, 290), (686, 251), (703, 230), (709, 215)]",319.37476228095545,"[2, 4, 6, 1, 9, 3, 5, 8, 7]","(0, 0.25)",DOT010A,DOT,A,Chinese,Mon Nov  5 13:52:50 2018,Mouse
