NativeLangNumber,LanuageNumber,SessionNumber,Block,TrialNum,ConditionNumber,Response,Accuracy,RT,MovementOnsetTime,TimeInMotion,SignalContrast,SignalContrastNumber,StimDisplayTime,MaskTime,MaxResponseTime,MousePositionXY,MouseAngle,WheelOrder,NoiseMuSigma,ParticipantID,LanuageTested,SessionTested,NativeLanuage,Date,ResponseDevice
2,3,3,0,1,1,1,1,844,584,260,153,0,500,200,8000,"[(512, 384), (512, 384), (512, 384), (512, 384), (512, 384), (512, 384), (512, 384), (512, 384), (512, 384), (512, 384), (512, 384), (512, 384), (512, 384), (512, 384), (512, 384), (512, 384), (512, 384), (512, 384), (512, 384), (512, 384), (512, 384), (512, 384), (512, 384), (512, 384), (512, 384), (512, 384), (512, 384), (512, 384), (512, 384), (512, 384), (512, 384), (512, 384), (512, 384), (512, 384), (512, 384), (512, 384), (512, 384), (512, 384), (512, 384), (512, 384), (512, 384), (512, 384), (512, 384), (512, 384), (512, 384), (512, 384), (512, 384), (512, 384), (512, 384), (512, 384), (512, 384), (512, 384), (512, 384), (512, 384), (512, 384), (512, 384), (512, 384), (512, 384), (506, 380), (493, 375), (483, 374), (470, 370), (462, 370), (445, 368), (440, 367), (432, 365), (427, 364), (415, 360), (409, 356), (401, 353), (395, 350), (385, 347), (378, 344), (372, 343), (369, 343), (360, 342), (358, 342), (354, 341), (351, 341), (343, 341), (337, 341), (329, 341), (317, 341), (279, 341), (243, 341)]",189.08196957282877,"[3, 6, 5, 7, 1, 2, 4, 9, 8]","(0, 0.25)",DOT002C,DOT,C,Chinese,Wed Sep 19 13:29:47 2018,Mouse
2,3,3,0,2,6,6,1,532,242,290,153,0,500,200,8000,"[(512, 384), (512, 384), (512, 384), (512, 384), (512, 384), (512, 384), (512, 384), (512, 384), (512, 384), (512, 384), (512, 384), (512, 384), (512, 384), (512, 384), (512, 384), (512, 384), (512, 384), (512, 384), (512, 384), (512, 384), (512, 384), (512, 384), (512, 384), (512, 384), (513, 385), (513, 385), (513, 385), (513, 385), (513, 385), (513, 385), (513, 385), (513, 385), (513, 385), (513, 385), (520, 388), (539, 400), (544, 406), (551, 414), (557, 422), (568, 439), (574, 449), (582, 458), (587, 468), (595, 483), (599, 493), (605, 503), (610, 513), (621, 532), (627, 542), (632, 552), (635, 562), (641, 582), (645, 589), (645, 596)]",57.89754652559818,"[3, 6, 5, 7, 1, 2, 4, 9, 8]","(0, 0.25)",DOT002C,DOT,C,Chinese,Wed Sep 19 13:29:47 2018,Mouse
2,3,3,0,3,1,1,1,375,155,220,152,0,500,200,8000,"[(512, 384), (512, 384), (512, 384), (512, 384), (512, 384), (512, 384), (512, 384), (512, 384), (512, 384), (512, 384), (512, 384), (512, 384), (512, 384), (512, 384), (512, 384), (510, 384), (507, 384), (501, 384), (499, 384), (497, 384), (495, 384), (489, 384), (488, 383), (483, 383), (481, 382), (473, 381), (468, 381), (461, 380), (454, 379), (438, 377), (429, 376), (419, 375), (410, 375), (381, 374), (369, 374), (350, 371), (321, 368), (252, 363)]",184.61771197249394,"[3, 6, 5, 7, 1, 2, 4, 9, 8]","(0, 0.25)",DOT002C,DOT,C,Chinese,Wed Sep 19 13:29:47 2018,Mouse
2,3,3,0,4,4,4,1,1014,854,160,151,0,500,200,8000,"[(512, 384), (512, 384), (512, 384), (512, 384), (512, 384), (512, 384), (512, 384), (512, 384), (512, 384), (512, 384), (512, 384), (512, 384), (512, 384), (512, 384), (512, 384), (512, 384), (512, 384), (512, 384), (512, 384), (512, 384), (512, 384), (512, 384), (512, 384), (512, 384), (512, 384), (512, 384), (512, 384), (512, 384), (512, 384), (512, 384), (512, 384), (512, 384), (512, 384), (512, 384), (512, 384), (512, 384), (512, 384), (512, 384), (512, 384), (512, 384), (512, 384), (512, 384), (512, 384), (512, 384), (512, 384), (512, 384), (512, 384), (512, 384), (512, 384), (512, 384), (512, 384), (512, 384), (512, 384), (512, 384), (512, 384), (512, 384), (512, 384), (512, 384), (512, 384), (512, 384), (512, 384), (512, 384), (512, 384), (512, 384), (512, 384), (512, 384), (512, 384), (512, 384), (512, 384), (512, 384), (512, 384), (512, 384), (512, 384), (512, 384), (512, 384), (512, 384), (512, 384), (512, 384), (512, 384), (512, 384), (512, 384), (512, 384), (512, 384), (512, 384), (512, 384), (513, 377), (515, 367), (515, 345), (515, 331), (517, 312), (517, 292), (517, 255), (517, 242), (517, 230), (517, 217), (515, 199), (514, 190), (511, 180), (509, 173), (503, 152), (499, 142), (497, 131)]",266.60698893091126,"[3, 6, 5, 7, 1, 2, 4, 9, 8]","(0, 0.25)",DOT002C,DOT,C,Chinese,Wed Sep 19 13:29:47 2018,Mouse
2,3,3,0,5,7,7,1,596,426,170,150,0,500,200,8000,"[(512, 384), (512, 384), (512, 384), (512, 384), (512, 384), (512, 384), (512, 384), (512, 384), (512, 384), (512, 384), (512, 384), (512, 384), (512, 384), (512, 384), (512, 384), (512, 384), (512, 384), (512, 384), (512, 384), (512, 384), (512, 384), (512, 384), (512, 384), (512, 384), (512, 384), (512, 384), (512, 384), (512, 384), (512, 384), (512, 384), (512, 384), (512, 384), (512, 384), (512, 384), (512, 384), (512, 384), (512, 384), (512, 384), (512, 384), (512, 384), (512, 384), (512, 384), (512, 387), (503, 392), (494, 398), (485, 403), (466, 418), (457, 424), (444, 431), (437, 437), (418, 451), (409, 458), (399, 466), (385, 477), (364, 494), (351, 505), (342, 513), (334, 519), (314, 534), (307, 541)]",142.55316977502923,"[3, 6, 5, 7, 1, 2, 4, 9, 8]","(0, 0.25)",DOT002C,DOT,C,Chinese,Wed Sep 19 13:29:47 2018,Mouse
2,3,3,0,6,9,9,1,856,516,340,149,0,500,200,8000,"[(512, 384), (512, 384), (512, 384), (512, 384), (512, 384), (512, 384), (512, 384), (512, 384), (512, 384), (512, 384), (512, 384), (512, 384), (512, 384), (512, 384), (512, 384), (512, 384), (512, 384), (512, 384), (512, 384), (512, 384), (512, 384), (512, 384), (512, 384), (512, 384), (512, 384), (512, 384), (512, 384), (512, 384), (512, 384), (512, 384), (512, 384), (512, 384), (512, 384), (512, 384), (512, 384), (512, 384), (512, 384), (512, 384), (512, 384), (512, 384), (512, 384), (512, 384), (512, 384), (512, 384), (512, 384), (512, 384), (512, 384), (512, 384), (512, 384), (512, 384), (512, 384), (512, 381), (512, 377), (516, 369), (525, 355), (529, 351), (533, 346), (537, 338), (538, 336), (540, 332), (541, 331), (543, 329), (547, 325), (548, 322), (549, 321), (550, 318), (550, 318), (550, 318), (550, 318), (550, 318), (550, 318), (550, 318), (550, 318), (550, 318), (550, 318), (550, 317), (552, 315), (556, 306), (559, 303), (563, 295), (567, 288), (583, 266), (594, 252), (611, 231), (635, 202), (694, 121)]",304.6838235374103,"[3, 6, 5, 7, 1, 2, 4, 9, 8]","(0, 0.25)",DOT002C,DOT,C,Chinese,Wed Sep 19 13:29:47 2018,Mouse
2,3,3,0,7,8,8,1,502,232,270,148,0,500,200,8000,"[(512, 384), (512, 384), (512, 384), (512, 384), (512, 384), (512, 384), (512, 384), (512, 384), (512, 384), (512, 384), (512, 384), (512, 384), (512, 384), (512, 384), (512, 384), (512, 384), (512, 384), (512, 384), (512, 384), (512, 384), (512, 384), (512, 384), (512, 384), (521, 383), (526, 382), (534, 381), (540, 381), (554, 378), (561, 377), (566, 377), (574, 376), (583, 372), (587, 372), (589, 371), (592, 371), (596, 370), (597, 369), (599, 369), (601, 368), (606, 367), (610, 366), (614, 364), (619, 361), (633, 358), (642, 356), (650, 354), (662, 349), (688, 342), (714, 334), (733, 329), (759, 321)]",345.69118114069386,"[3, 6, 5, 7, 1, 2, 4, 9, 8]","(0, 0.25)",DOT002C,DOT,C,Chinese,Wed Sep 19 13:29:47 2018,Mouse
2,3,3,0,8,3,3,1,492,372,120,147,0,500,200,8000,"[(512, 384), (512, 384), (512, 384), (512, 384), (512, 384), (512, 384), (512, 384), (512, 384), (512, 384), (512, 384), (512, 384), (512, 384), (512, 384), (512, 384), (512, 384), (512, 384), (512, 384), (512, 384), (512, 384), (512, 384), (512, 384), (512, 384), (512, 384), (512, 384), (512, 384), (512, 384), (512, 384), (512, 384), (512, 384), (512, 384), (512, 384), (512, 384), (512, 384), (512, 384), (512, 384), (512, 384), (512, 384), (511, 387), (517, 390), (528, 396), (540, 404), (562, 413), (578, 418), (594, 424), (616, 432), (656, 443), (674, 447), (692, 453), (712, 460), (747, 473)]",20.742849614310288,"[3, 6, 5, 7, 1, 2, 4, 9, 8]","(0, 0.25)",DOT002C,DOT,C,Chinese,Wed Sep 19 13:29:47 2018,Mouse
2,3,3,0,9,6,6,1,723,493,230,146,0,500,200,8000,"[(512, 384), (512, 384), (512, 384), (512, 384), (512, 384), (512, 384), (512, 384), (512, 384), (512, 384), (512, 384), (512, 384), (512, 384), (512, 384), (512, 384), (512, 384), (512, 384), (512, 384), (512, 384), (512, 384), (512, 384), (512, 384), (512, 384), (512, 384), (512, 384), (512, 384), (512, 384), (512, 384), (512, 384), (512, 384), (512, 384), (512, 384), (512, 384), (512, 384), (512, 384), (512, 384), (512, 384), (512, 384), (512, 384), (512, 384), (512, 384), (512, 384), (512, 384), (512, 384), (512, 384), (512, 384), (512, 384), (512, 384), (512, 384), (512, 384), (512, 389), (514, 394), (516, 400), (519, 412), (523, 419), (525, 424), (527, 429), (536, 444), (539, 449), (547, 459), (552, 468), (566, 483), (572, 492), (577, 498), (581, 505), (590, 524), (593, 533), (599, 545), (605, 555), (615, 577), (621, 587), (626, 596), (630, 602), (637, 614)]",61.476881393687975,"[3, 6, 5, 7, 1, 2, 4, 9, 8]","(0, 0.25)",DOT002C,DOT,C,Chinese,Wed Sep 19 13:29:47 2018,Mouse
2,3,3,0,10,8,8,1,922,682,240,145,0,500,200,8000,"[(512, 384), (512, 384), (512, 384), (512, 384), (512, 384), (512, 384), (512, 384), (512, 384), (512, 384), (512, 384), (512, 384), (512, 384), (512, 384), (512, 384), (512, 384), (512, 384), (512, 384), (512, 384), (512, 384), (512, 384), (512, 384), (512, 384), (512, 384), (512, 384), (512, 384), (512, 384), (512, 384), (512, 384), (512, 384), (512, 384), (512, 384), (512, 384), (512, 384), (512, 384), (512, 384), (512, 384), (512, 384), (512, 384), (512, 384), (512, 384), (512, 384), (512, 384), (512, 384), (512, 384), (512, 384), (512, 384), (512, 384), (512, 384), (512, 384), (512, 384), (512, 384), (512, 384), (512, 384), (512, 384), (512, 384), (512, 384), (512, 384), (512, 384), (512, 384), (512, 384), (512, 384), (512, 384), (512, 384), (512, 384), (512, 384), (512, 384), (512, 384), (512, 384), (515, 378), (519, 377), (524, 374), (533, 371), (553, 363), (564, 358), (576, 356), (588, 352), (607, 346), (617, 343), (623, 342), (630, 340), (640, 337), (645, 336), (650, 333), (653, 332), (665, 325), (672, 321), (682, 315), (691, 311), (711, 302), (721, 299), (731, 297), (737, 295), (753, 289)]",338.4860938042481,"[3, 6, 5, 7, 1, 2, 4, 9, 8]","(0, 0.25)",DOT002C,DOT,C,Chinese,Wed Sep 19 13:29:47 2018,Mouse
2,3,3,0,11,4,4,1,751,541,210,144,0,500,200,8000,"[(512, 384), (512, 384), (512, 384), (512, 384), (512, 384), (512, 384), (512, 384), (512, 384), (512, 384), (512, 384), (512, 384), (512, 384), (512, 384), (512, 384), (512, 384), (512, 384), (512, 384), (512, 384), (512, 384), (512, 384), (512, 384), (512, 384), (512, 384), (512, 384), (512, 384), (512, 384), (512, 384), (512, 384), (512, 384), (512, 384), (512, 384), (512, 384), (512, 384), (512, 384), (512, 384), (512, 384), (512, 384), (512, 384), (512, 384), (512, 384), (512, 384), (512, 384), (512, 384), (512, 384), (512, 384), (512, 384), (512, 384), (512, 384), (512, 384), (512, 384), (512, 384), (512, 384), (512, 384), (512, 384), (511, 384), (504, 376), (500, 367), (492, 348), (488, 338), (486, 328), (483, 317), (477, 297), (476, 289), (475, 281), (475, 274), (474, 257), (474, 249), (474, 242), (474, 232), (474, 215), (474, 201), (474, 190), (474, 178), (474, 155), (475, 143), (478, 129)]",262.40535663140855,"[3, 6, 5, 7, 1, 2, 4, 9, 8]","(0, 0.25)",DOT002C,DOT,C,Chinese,Wed Sep 19 13:29:47 2018,Mouse
2,3,3,0,12,8,8,1,612,382,230,143,0,500,200,8000,"[(512, 384), (512, 384), (512, 384), (512, 384), (512, 384), (512, 384), (512, 384), (512, 384), (512, 384), (512, 384), (512, 384), (512, 384), (512, 384), (512, 384), (512, 384), (512, 384), (512, 384), (512, 384), (512, 384), (512, 384), (512, 384), (512, 384), (512, 384), (512, 384), (512, 384), (512, 384), (512, 384), (512, 384), (512, 384), (512, 384), (512, 384), (512, 384), (512, 384), (512, 384), (512, 384), (512, 384), (512, 384), (512, 384), (514, 385), (518, 385), (523, 385), (535, 382), (544, 380), (551, 379), (559, 378), (573, 374), (580, 373), (589, 372), (597, 370), (616, 364), (624, 362), (633, 359), (643, 356), (659, 345), (666, 340), (675, 335), (684, 331), (704, 319), (713, 314), (723, 311), (731, 306), (749, 298)]",340.05572490523696,"[3, 6, 5, 7, 1, 2, 4, 9, 8]","(0, 0.25)",DOT002C,DOT,C,Chinese,Wed Sep 19 13:29:47 2018,Mouse
2,3,3,0,13,3,3,1,972,662,310,142,0,500,200,8000,"[(512, 384), (512, 384), (512, 384), (512, 384), (512, 384), (512, 384), (512, 384), (512, 384), (512, 384), (512, 384), (512, 384), (512, 384), (512, 384), (512, 384), (512, 384), (512, 384), (512, 384), (512, 384), (512, 384), (512, 384), (512, 384), (512, 384), (512, 384), (512, 384), (512, 384), (512, 384), (512, 384), (512, 384), (512, 384), (512, 384), (512, 384), (512, 384), (512, 384), (512, 384), (512, 384), (512, 384), (512, 384), (512, 384), (512, 384), (512, 384), (512, 384), (512, 384), (512, 384), (512, 384), (512, 384), (512, 384), (512, 384), (512, 384), (512, 384), (512, 384), (512, 384), (512, 384), (512, 384), (512, 384), (512, 384), (512, 384), (512, 384), (512, 384), (512, 384), (512, 384), (512, 384), (512, 384), (512, 384), (512, 384), (512, 384), (512, 384), (518, 386), (531, 392), (555, 402), (568, 407), (580, 413), (599, 419), (630, 433), (645, 439), (660, 446), (672, 451), (690, 458), (698, 462), (706, 465), (710, 467), (715, 470), (717, 470), (717, 470), (718, 470), (718, 470), (718, 470), (718, 470), (718, 470), (718, 470), (718, 470), (718, 470), (720, 470), (725, 471), (728, 472), (730, 473), (733, 474), (741, 476), (748, 480)]",22.135491878100353,"[3, 6, 5, 7, 1, 2, 4, 9, 8]","(0, 0.25)",DOT002C,DOT,C,Chinese,Wed Sep 19 13:29:47 2018,Mouse
2,3,3,0,14,6,6,1,1072,962,110,141,0,500,200,8000,"[(512, 384), (512, 384), (512, 384), (512, 384), (512, 384), (512, 384), (512, 384), (512, 384), (512, 384), (512, 384), (512, 384), (512, 384), (512, 384), (512, 384), (512, 384), (512, 384), (512, 384), (512, 384), (512, 384), (512, 384), (512, 384), (512, 384), (512, 384), (512, 384), (512, 384), (512, 384), (512, 384), (512, 384), (512, 384), (512, 384), (512, 384), (512, 384), (512, 384), (512, 384), (512, 384), (512, 384), (512, 384), (512, 384), (512, 384), (512, 384), (512, 384), (512, 384), (512, 384), (512, 384), (512, 384), (512, 384), (512, 384), (512, 384), (512, 384), (512, 384), (512, 384), (512, 384), (512, 384), (512, 384), (512, 384), (512, 384), (512, 384), (512, 384), (512, 384), (512, 384), (512, 384), (512, 384), (512, 384), (512, 384), (512, 384), (512, 384), (512, 384), (512, 384), (512, 384), (512, 384), (512, 384), (512, 384), (512, 384), (512, 384), (512, 384), (512, 384), (512, 384), (512, 384), (512, 384), (512, 384), (512, 384), (512, 384), (512, 384), (512, 384), (512, 384), (512, 384), (512, 384), (512, 384), (512, 384), (512, 384), (512, 384), (512, 384), (512, 384), (512, 384), (512, 384), (512, 384), (511, 385), (513, 395), (518, 407), (532, 433), (540, 449), (553, 473), (561, 489), (583, 530), (597, 549), (606, 563), (617, 580), (635, 605)]",60.90138993452743,"[3, 6, 5, 7, 1, 2, 4, 9, 8]","(0, 0.25)",DOT002C,DOT,C,Chinese,Wed Sep 19 13:29:47 2018,Mouse
2,3,3,0,15,6,6,1,633,463,170,140,0,500,200,8000,"[(512, 384), (512, 384), (512, 384), (512, 384), (512, 384), (512, 384), (512, 384), (512, 384), (512, 384), (512, 384), (512, 384), (512, 384), (512, 384), (512, 384), (512, 384), (512, 384), (512, 384), (512, 384), (512, 384), (512, 384), (512, 384), (512, 384), (512, 384), (512, 384), (512, 384), (512, 384), (512, 384), (512, 384), (512, 384), (512, 384), (512, 384), (512, 384), (512, 384), (512, 384), (512, 384), (512, 384), (512, 384), (512, 384), (512, 384), (512, 384), (512, 384), (512, 384), (512, 384), (512, 384), (512, 384), (512, 384), (511, 385), (513, 394), (517, 403), (521, 412), (526, 422), (534, 443), (538, 452), (542, 462), (547, 472), (556, 494), (564, 507), (574, 526), (585, 543), (605, 570), (613, 582), (621, 593), (629, 602), (640, 617)]",61.217533106818394,"[3, 6, 5, 7, 1, 2, 4, 9, 8]","(0, 0.25)",DOT002C,DOT,C,Chinese,Wed Sep 19 13:29:47 2018,Mouse
2,3,3,0,16,9,8,0,-550,350,200,139,0,500,200,8000,"[(512, 384), (512, 384), (512, 384), (512, 384), (512, 384), (512, 384), (512, 384), (512, 384), (512, 384), (512, 384), (512, 384), (512, 384), (512, 384), (512, 384), (512, 384), (512, 384), (512, 384), (512, 384), (512, 384), (512, 384), (512, 384), (512, 384), (512, 384), (512, 384), (512, 384), (512, 384), (512, 384), (512, 384), (512, 384), (512, 384), (512, 384), (512, 384), (512, 384), (512, 384), (514, 381), (521, 379), (536, 371), (544, 368), (552, 365), (562, 363), (581, 359), (591, 358), (599, 357), (609, 355), (632, 352), (642, 348), (652, 343), (661, 340), (682, 331), (693, 326), (705, 323), (716, 321), (739, 318), (749, 316), (760, 314)]",344.23785223602744,"[3, 6, 5, 7, 1, 2, 4, 9, 8]","(0, 0.25)",DOT002C,DOT,C,Chinese,Wed Sep 19 13:29:47 2018,Mouse
2,3,3,0,17,1,1,1,468,408,60,140,0,500,200,8000,"[(512, 384), (512, 384), (512, 384), (512, 384), (512, 384), (512, 384), (512, 384), (512, 384), (512, 384), (512, 384), (512, 384), (512, 384), (512, 384), (512, 384), (512, 384), (512, 384), (512, 384), (512, 384), (512, 384), (512, 384), (512, 384), (512, 384), (512, 384), (512, 384), (512, 384), (512, 384), (512, 384), (512, 384), (512, 384), (512, 384), (512, 384), (512, 384), (512, 384), (512, 384), (512, 384), (512, 384), (512, 384), (512, 384), (512, 384), (512, 384), (495, 384), (476, 384), (449, 384), (410, 384), (318, 384), (265, 384), (204, 384)]",180.0,"[3, 6, 5, 7, 1, 2, 4, 9, 8]","(0, 0.25)",DOT002C,DOT,C,Chinese,Wed Sep 19 13:29:47 2018,Mouse
2,3,3,0,18,7,7,1,582,472,110,140,0,500,200,8000,"[(512, 384), (512, 384), (512, 384), (512, 384), (512, 384), (512, 384), (512, 384), (512, 384), (512, 384), (512, 384), (512, 384), (512, 384), (512, 384), (512, 384), (512, 384), (512, 384), (512, 384), (512, 384), (512, 384), (512, 384), (512, 384), (512, 384), (512, 384), (512, 384), (512, 384), (512, 384), (512, 384), (512, 384), (512, 384), (512, 384), (512, 384), (512, 384), (512, 384), (512, 384), (512, 384), (512, 384), (512, 384), (512, 384), (512, 384), (512, 384), (512, 384), (512, 384), (512, 384), (512, 384), (512, 384), (512, 384), (512, 384), (507, 387), (497, 395), (485, 404), (462, 419), (449, 426), (436, 434), (419, 443), (384, 465), (364, 476), (345, 488), (318, 505), (268, 539)]",147.57441325498297,"[3, 6, 5, 7, 1, 2, 4, 9, 8]","(0, 0.25)",DOT002C,DOT,C,Chinese,Wed Sep 19 13:29:47 2018,Mouse
2,3,3,0,19,2,2,1,1141,331,810,139,0,500,200,8000,"[(512, 384), (512, 384), (512, 384), (512, 384), (512, 384), (512, 384), (512, 384), (512, 384), (512, 384), (512, 384), (512, 384), (512, 384), (512, 384), (512, 384), (512, 384), (512, 384), (512, 384), (512, 384), (512, 384), (512, 384), (512, 384), (512, 384), (512, 384), (512, 384), (512, 384), (512, 384), (512, 384), (512, 384), (512, 384), (512, 384), (512, 384), (512, 384), (512, 384), (523, 384), (540, 385), (559, 389), (584, 394), (591, 398), (598, 400), (604, 402), (613, 403), (617, 406), (618, 407), (619, 407), (619, 407), (619, 407), (619, 407), (619, 407), (619, 407), (619, 407), (619, 407), (619, 407), (619, 407), (619, 407), (619, 407), (619, 407), (619, 407), (619, 407), (619, 407), (619, 407), (619, 407), (619, 407), (619, 407), (619, 407), (619, 407), (619, 407), (619, 407), (619, 407), (619, 407), (619, 407), (619, 407), (619, 407), (619, 407), (619, 407), (619, 407), (619, 407), (619, 407), (619, 407), (619, 407), (617, 406), (610, 402), (605, 399), (601, 395), (593, 390), (578, 379), (570, 374), (565, 370), (562, 367), (554, 362), (551, 360), (549, 359), (548, 358), (546, 357), (546, 357), (546, 357), (546, 357), (546, 357), (546, 357), (546, 357), (546, 357), (546, 357), (546, 357), (546, 357), (546, 357), (543, 356), (538, 352), (532, 348), (522, 341), (499, 325), (483, 316), (461, 304), (434, 288), (373, 262), (349, 251), (312, 234)]",216.86989764584402,"[3, 6, 5, 7, 1, 2, 4, 9, 8]","(0, 0.25)",DOT002C,DOT,C,Chinese,Wed Sep 19 13:29:47 2018,Mouse
2,3,3,0,20,5,5,1,724,544,180,138,0,500,200,8000,"[(512, 384), (512, 384), (512, 384), (512, 384), (512, 384), (512, 384), (512, 384), (512, 384), (512, 384), (512, 384), (512, 384), (512, 384), (512, 384), (512, 384), (512, 384), (512, 384), (512, 384), (512, 384), (512, 384), (512, 384), (512, 384), (512, 384), (512, 384), (512, 384), (512, 384), (512, 384), (512, 384), (512, 384), (512, 384), (512, 384), (512, 384), (512, 384), (512, 384), (512, 384), (512, 384), (512, 384), (512, 384), (512, 384), (512, 384), (512, 384), (512, 384), (512, 384), (512, 384), (512, 384), (512, 384), (512, 384), (512, 384), (512, 384), (512, 384), (512, 384), (512, 384), (512, 384), (512, 384), (512, 384), (512, 389), (510, 393), (507, 400), (502, 411), (500, 420), (497, 431), (495, 438), (490, 460), (489, 474), (486, 490), (486, 500), (486, 529), (486, 544), (486, 557), (486, 572), (486, 602), (486, 617), (486, 631), (486, 644)]",95.71059313749964,"[3, 6, 5, 7, 1, 2, 4, 9, 8]","(0, 0.25)",DOT002C,DOT,C,Chinese,Wed Sep 19 13:29:47 2018,Mouse
2,3,3,0,21,2,2,1,523,403,120,137,0,500,200,8000,"[(512, 384), (512, 384), (512, 384), (512, 384), (512, 384), (512, 384), (512, 384), (512, 384), (512, 384), (512, 384), (512, 384), (512, 384), (512, 384), (512, 384), (512, 384), (512, 384), (512, 384), (512, 384), (512, 384), (512, 384), (512, 384), (512, 384), (512, 384), (512, 384), (512, 384), (512, 384), (512, 384), (512, 384), (512, 384), (512, 384), (512, 384), (512, 384), (512, 384), (512, 384), (512, 384), (512, 384), (512, 384), (512, 384), (512, 384), (512, 384), (508, 379), (493, 369), (485, 365), (479, 362), (471, 357), (453, 348), (442, 341), (430, 333), (420, 325), (383, 294), (355, 271), (326, 245), (295, 222)]",216.7429500407722,"[3, 6, 5, 7, 1, 2, 4, 9, 8]","(0, 0.25)",DOT002C,DOT,C,Chinese,Wed Sep 19 13:29:47 2018,Mouse
2,3,3,0,22,7,7,1,335,165,170,136,0,500,200,8000,"[(512, 384), (512, 384), (512, 384), (512, 384), (512, 384), (512, 384), (512, 384), (512, 384), (512, 384), (512, 384), (512, 384), (512, 384), (512, 384), (512, 384), (512, 384), (512, 384), (513, 385), (512, 388), (504, 391), (497, 397), (480, 409), (472, 414), (464, 420), (447, 428), (437, 434), (429, 438), (420, 444), (409, 454), (399, 463), (387, 473), (372, 487), (336, 518), (319, 529), (307, 539)]",142.90716270295846,"[3, 6, 5, 7, 1, 2, 4, 9, 8]","(0, 0.25)",DOT002C,DOT,C,Chinese,Wed Sep 19 13:29:47 2018,Mouse
2,3,3,0,23,5,5,1,902,792,110,135,0,500,200,8000,"[(512, 384), (512, 384), (512, 384), (512, 384), (512, 384), (512, 384), (512, 384), (512, 384), (512, 384), (512, 384), (512, 384), (512, 384), (512, 384), (512, 384), (512, 384), (512, 384), (512, 384), (512, 384), (512, 384), (512, 384), (512, 384), (512, 384), (512, 384), (512, 384), (512, 384), (512, 384), (512, 384), (512, 384), (512, 384), (512, 384), (512, 384), (512, 384), (512, 384), (512, 384), (512, 384), (512, 384), (512, 384), (512, 384), (512, 384), (512, 384), (512, 384), (512, 384), (512, 384), (512, 384), (512, 384), (512, 384), (512, 384), (512, 384), (512, 384), (512, 384), (512, 384), (512, 384), (512, 384), (512, 384), (512, 384), (512, 384), (512, 384), (512, 384), (512, 384), (512, 384), (512, 384), (512, 384), (512, 384), (512, 384), (512, 384), (512, 384), (512, 384), (512, 384), (512, 384), (512, 384), (512, 384), (512, 384), (512, 384), (512, 384), (512, 384), (512, 384), (512, 384), (512, 384), (512, 384), (512, 390), (512, 397), (510, 408), (505, 431), (504, 443), (504, 456), (504, 471), (504, 518), (504, 548), (504, 579), (505, 610), (509, 662)]",90.61827577951671,"[3, 6, 5, 7, 1, 2, 4, 9, 8]","(0, 0.25)",DOT002C,DOT,C,Chinese,Wed Sep 19 13:29:47 2018,Mouse
2,3,3,0,24,8,8,1,1632,1492,140,134,0,500,200,8000,"[(512, 384), (512, 384), (512, 384), (512, 384), (512, 384), (512, 384), (512, 384), (512, 384), (512, 384), (512, 384), (512, 384), (512, 384), (512, 384), (512, 384), (512, 384), (512, 384), (512, 384), (512, 384), (512, 384), (512, 384), (512, 384), (512, 384), (512, 384), (512, 384), (512, 384), (512, 384), (512, 384), (512, 384), (512, 384), (512, 384), (512, 384), (512, 384), (512, 384), (512, 384), (512, 384), (512, 384), (512, 384), (512, 384), (512, 384), (512, 384), (512, 384), (512, 384), (512, 384), (512, 384), (512, 384), (512, 384), (512, 384), (512, 384), (512, 384), (512, 384), (512, 384), (512, 384), (512, 384), (512, 384), (512, 384), (512, 384), (512, 384), (512, 384), (512, 384), (512, 384), (512, 384), (512, 384), (512, 384), (512, 384), (512, 384), (512, 384), (512, 384), (512, 384), (512, 384), (512, 384), (512, 384), (512, 384), (512, 384), (512, 384), (512, 384), (512, 384), (512, 384), (512, 384), (512, 384), (512, 384), (512, 384), (512, 384), (512, 384), (512, 384), (512, 384), (512, 384), (512, 384), (512, 384), (512, 384), (512, 384), (512, 384), (512, 384), (512, 384), (512, 384), (512, 384), (512, 384), (512, 384), (512, 384), (512, 384), (512, 384), (512, 384), (512, 384), (512, 384), (512, 384), (512, 384), (512, 384), (512, 384), (512, 384), (512, 384), (512, 384), (512, 384), (512, 384), (512, 384), (512, 384), (512, 384), (512, 384), (512, 384), (512, 384), (512, 384), (512, 384), (512, 384), (512, 384), (512, 384), (512, 384), (512, 384), (512, 384), (512, 384), (512, 384), (512, 384), (512, 384), (512, 384), (512, 384), (512, 384), (512, 384), (512, 384), (512, 384), (512, 384), (512, 384), (512, 384), (512, 384), (512, 384), (512, 384), (512, 384), (512, 384), (512, 384), (512, 384), (512, 384), (512, 384), (512, 384), (512, 383), (512, 380), (516, 378), (531, 369), (541, 365), (553, 363), (566, 359), (597, 351), (610, 346), (626, 341), (638, 338), (671, 323), (693, 311), (725, 297), (759, 282)]",337.5615545880444,"[3, 6, 5, 7, 1, 2, 4, 9, 8]","(0, 0.25)",DOT002C,DOT,C,Chinese,Wed Sep 19 13:29:47 2018,Mouse
2,3,3,0,25,2,4,0,-762,692,70,133,0,500,200,8000,"[(512, 384), (512, 384), (512, 384), (512, 384), (512, 384), (512, 384), (512, 384), (512, 384), (512, 384), (512, 384), (512, 384), (512, 384), (512, 384), (512, 384), (512, 384), (512, 384), (512, 384), (512, 384), (512, 384), (512, 384), (512, 384), (512, 384), (512, 384), (512, 384), (512, 384), (512, 384), (512, 384), (512, 384), (512, 384), (512, 384), (512, 384), (512, 384), (512, 384), (512, 384), (512, 384), (512, 384), (512, 384), (512, 384), (512, 384), (512, 384), (512, 384), (512, 384), (512, 384), (512, 384), (512, 384), (512, 384), (512, 384), (512, 384), (512, 384), (512, 384), (512, 384), (512, 384), (512, 384), (512, 384), (512, 384), (512, 384), (512, 384), (512, 384), (512, 384), (512, 384), (512, 384), (512, 384), (512, 384), (512, 384), (512, 384), (512, 384), (512, 384), (512, 384), (512, 384), (512, 368), (512, 354), (512, 338), (512, 315), (508, 239), (506, 192), (503, 152), (495, 109)]",266.4625805700125,"[3, 6, 5, 7, 1, 2, 4, 9, 8]","(0, 0.25)",DOT002C,DOT,C,Chinese,Wed Sep 19 13:29:47 2018,Mouse
2,3,3,0,26,2,2,1,258,168,90,134,0,500,200,8000,"[(512, 384), (512, 384), (512, 384), (512, 384), (512, 384), (512, 384), (512, 384), (512, 384), (512, 384), (512, 384), (512, 384), (512, 384), (512, 384), (512, 384), (512, 384), (512, 384), (512, 386), (510, 387), (500, 387), (486, 383), (442, 363), (411, 353), (381, 339), (344, 324), (290, 296), (260, 274)]",203.5816511448499,"[3, 6, 5, 7, 1, 2, 4, 9, 8]","(0, 0.25)",DOT002C,DOT,C,Chinese,Wed Sep 19 13:29:47 2018,Mouse
2,3,3,0,27,1,3,0,-1583,1493,90,134,0,500,200,8000,"[(512, 384), (512, 384), (512, 384), (512, 384), (512, 384), (512, 384), (512, 384), (512, 384), (512, 384), (512, 384), (512, 384), (512, 384), (512, 384), (512, 384), (512, 384), (512, 384), (512, 384), (512, 384), (512, 384), (512, 384), (512, 384), (512, 384), (512, 384), (512, 384), (512, 384), (512, 384), (512, 384), (512, 384), (512, 384), (512, 384), (512, 384), (512, 384), (512, 384), (512, 384), (512, 384), (512, 384), (512, 384), (512, 384), (512, 384), (512, 384), (512, 384), (512, 384), (512, 384), (512, 384), (512, 384), (512, 384), (512, 384), (512, 384), (512, 384), (512, 384), (512, 384), (512, 384), (512, 384), (512, 384), (512, 384), (512, 384), (512, 384), (512, 384), (512, 384), (512, 384), (512, 384), (512, 384), (512, 384), (512, 384), (512, 384), (512, 384), (512, 384), (512, 384), (512, 384), (512, 384), (512, 384), (512, 384), (512, 384), (512, 384), (512, 384), (512, 384), (512, 384), (512, 384), (512, 384), (512, 384), (512, 384), (512, 384), (512, 384), (512, 384), (512, 384), (512, 384), (512, 384), (512, 384), (512, 384), (512, 384), (512, 384), (512, 384), (512, 384), (512, 384), (512, 384), (512, 384), (512, 384), (512, 384), (512, 384), (512, 384), (512, 384), (512, 384), (512, 384), (512, 384), (512, 384), (512, 384), (512, 384), (512, 384), (512, 384), (512, 384), (512, 384), (512, 384), (512, 384), (512, 384), (512, 384), (512, 384), (512, 384), (512, 384), (512, 384), (512, 384), (512, 384), (512, 384), (512, 384), (512, 384), (512, 384), (512, 384), (512, 384), (512, 384), (512, 384), (512, 384), (512, 384), (512, 384), (512, 384), (512, 384), (512, 384), (512, 384), (512, 384), (512, 384), (512, 384), (512, 384), (512, 384), (512, 384), (512, 384), (512, 384), (512, 384), (512, 384), (512, 384), (512, 384), (512, 384), (515, 387), (536, 395), (549, 400), (567, 407), (590, 413), (643, 429), (671, 437), (696, 445), (719, 453), (754, 466)]",18.71858897867983,"[3, 6, 5, 7, 1, 2, 4, 9, 8]","(0, 0.25)",DOT002C,DOT,C,Chinese,Wed Sep 19 13:29:47 2018,Mouse
2,3,3,0,28,4,2,0,-1105,645,460,135,0,500,200,8000,"[(512, 384), (512, 384), (512, 384), (512, 384), (512, 384), (512, 384), (512, 384), (512, 384), (512, 384), (512, 384), (512, 384), (512, 384), (512, 384), (512, 384), (512, 384), (512, 384), (512, 384), (512, 384), (512, 384), (512, 384), (512, 384), (512, 384), (512, 384), (512, 384), (512, 384), (512, 384), (512, 384), (512, 384), (512, 384), (512, 384), (512, 384), (512, 384), (512, 384), (512, 384), (512, 384), (512, 384), (512, 384), (512, 384), (512, 384), (512, 384), (512, 384), (512, 384), (512, 384), (512, 384), (512, 384), (512, 384), (512, 384), (512, 384), (512, 384), (512, 384), (512, 384), (512, 384), (512, 384), (512, 384), (512, 384), (512, 384), (512, 384), (512, 384), (512, 384), (512, 384), (512, 384), (512, 384), (512, 384), (512, 384), (509, 384), (506, 384), (505, 384), (502, 384), (502, 384), (502, 384), (501, 384), (501, 384), (501, 384), (501, 384), (501, 384), (501, 384), (501, 384), (501, 384), (501, 384), (501, 384), (501, 384), (501, 384), (501, 384), (501, 384), (501, 384), (501, 384), (501, 384), (501, 384), (501, 384), (501, 384), (501, 384), (501, 384), (501, 384), (501, 384), (501, 384), (501, 384), (501, 384), (501, 384), (501, 384), (501, 384), (501, 384), (501, 384), (501, 384), (501, 384), (496, 384), (489, 384), (477, 378), (436, 329), (398, 288), (354, 242), (314, 202)]",222.58897025338877,"[3, 6, 5, 7, 1, 2, 4, 9, 8]","(0, 0.25)",DOT002C,DOT,C,Chinese,Wed Sep 19 13:29:47 2018,Mouse
2,3,3,0,29,9,3,0,-1552,1492,60,136,0,500,200,8000,"[(512, 384), (512, 384), (512, 384), (512, 384), (512, 384), (512, 384), (512, 384), (512, 384), (512, 384), (512, 384), (512, 384), (512, 384), (512, 384), (512, 384), (512, 384), (512, 384), (512, 384), (512, 384), (512, 384), (512, 384), (512, 384), (512, 384), (512, 384), (512, 384), (512, 384), (512, 384), (512, 384), (512, 384), (512, 384), (512, 384), (512, 384), (512, 384), (512, 384), (512, 384), (512, 384), (512, 384), (512, 384), (512, 384), (512, 384), (512, 384), (512, 384), (512, 384), (512, 384), (512, 384), (512, 384), (512, 384), (512, 384), (512, 384), (512, 384), (512, 384), (512, 384), (512, 384), (512, 384), (512, 384), (512, 384), (512, 384), (512, 384), (512, 384), (512, 384), (512, 384), (512, 384), (512, 384), (512, 384), (512, 384), (512, 384), (512, 384), (512, 384), (512, 384), (512, 384), (512, 384), (512, 384), (512, 384), (512, 384), (512, 384), (512, 384), (512, 384), (512, 384), (512, 384), (512, 384), (512, 384), (512, 384), (512, 384), (512, 384), (512, 384), (512, 384), (512, 384), (512, 384), (512, 384), (512, 384), (512, 384), (512, 384), (512, 384), (512, 384), (512, 384), (512, 384), (512, 384), (512, 384), (512, 384), (512, 384), (512, 384), (512, 384), (512, 384), (512, 384), (512, 384), (512, 384), (512, 384), (512, 384), (512, 384), (512, 384), (512, 384), (512, 384), (512, 384), (512, 384), (512, 384), (512, 384), (512, 384), (512, 384), (512, 384), (512, 384), (512, 384), (512, 384), (512, 384), (512, 384), (512, 384), (512, 384), (512, 384), (512, 384), (512, 384), (512, 384), (512, 384), (512, 384), (512, 384), (512, 384), (512, 384), (512, 384), (512, 384), (512, 384), (512, 384), (512, 384), (512, 384), (512, 384), (512, 384), (512, 384), (512, 384), (512, 384), (512, 384), (512, 384), (512, 384), (512, 384), (524, 393), (538, 399), (563, 411), (597, 426), (671, 458), (711, 473), (751, 488)]",23.516095361656653,"[3, 6, 5, 7, 1, 2, 4, 9, 8]","(0, 0.25)",DOT002C,DOT,C,Chinese,Wed Sep 19 13:29:47 2018,Mouse
2,3,3,0,30,1,7,0,-752,692,60,137,0,500,200,8000,"[(512, 384), (512, 384), (512, 384), (512, 384), (512, 384), (512, 384), (512, 384), (512, 384), (512, 384), (512, 384), (512, 384), (512, 384), (512, 384), (512, 384), (512, 384), (512, 384), (512, 384), (512, 384), (512, 384), (512, 384), (512, 384), (512, 384), (512, 384), (512, 384), (512, 384), (512, 384), (512, 384), (512, 384), (512, 384), (512, 384), (512, 384), (512, 384), (512, 384), (512, 384), (512, 384), (512, 384), (512, 384), (512, 384), (512, 384), (512, 384), (512, 384), (512, 384), (512, 384), (512, 384), (512, 384), (512, 384), (512, 384), (512, 384), (512, 384), (512, 384), (512, 384), (512, 384), (512, 384), (512, 384), (512, 384), (512, 384), (512, 384), (512, 384), (512, 384), (512, 384), (512, 384), (512, 384), (512, 384), (512, 384), (512, 384), (512, 384), (512, 384), (512, 384), (512, 384), (510, 384), (476, 408), (451, 424), (422, 446), (392, 467), (316, 526), (281, 557)]",143.1698083627083,"[3, 6, 5, 7, 1, 2, 4, 9, 8]","(0, 0.25)",DOT002C,DOT,C,Chinese,Wed Sep 19 13:29:47 2018,Mouse
2,3,3,0,31,3,2,0,-552,422,130,138,0,500,200,8000,"[(512, 384), (512, 384), (512, 384), (512, 384), (512, 384), (512, 384), (512, 384), (512, 384), (512, 384), (512, 384), (512, 384), (512, 384), (512, 384), (512, 384), (512, 384), (512, 384), (512, 384), (512, 384), (512, 384), (512, 384), (512, 384), (512, 384), (512, 384), (512, 384), (512, 384), (512, 384), (512, 384), (512, 384), (512, 384), (512, 384), (512, 384), (512, 384), (512, 384), (512, 384), (512, 384), (512, 384), (512, 384), (512, 384), (512, 384), (512, 384), (512, 384), (512, 384), (510, 381), (498, 372), (489, 363), (480, 355), (470, 346), (444, 324), (432, 314), (422, 305), (405, 289), (380, 257), (367, 239), (351, 217), (342, 206), (325, 185)]",226.7806424459987,"[3, 6, 5, 7, 1, 2, 4, 9, 8]","(0, 0.25)",DOT002C,DOT,C,Chinese,Wed Sep 19 13:29:47 2018,Mouse
2,3,3,0,32,4,7,0,-2327,2277,50,139,0,500,200,8000,"[(512, 384), (512, 384), (512, 384), (512, 384), (512, 384), (512, 384), (512, 384), (512, 384), (512, 384), (512, 384), (512, 384), (512, 384), (512, 384), (512, 384), (512, 384), (512, 384), (512, 384), (512, 384), (512, 384), (512, 384), (512, 384), (512, 384), (512, 384), (512, 384), (512, 384), (512, 384), (512, 384), (512, 384), (512, 384), (512, 384), (512, 384), (512, 384), (512, 384), (512, 384), (512, 384), (512, 384), (512, 384), (512, 384), (512, 384), (512, 384), (512, 384), (512, 384), (512, 384), (512, 384), (512, 384), (512, 384), (512, 384), (512, 384), (512, 384), (512, 384), (512, 384), (512, 384), (512, 384), (512, 384), (512, 384), (512, 384), (512, 384), (512, 384), (512, 384), (512, 384), (512, 384), (512, 384), (512, 384), (512, 384), (512, 384), (512, 384), (512, 384), (512, 384), (512, 384), (512, 384), (512, 384), (512, 384), (512, 384), (512, 384), (512, 384), (512, 384), (512, 384), (512, 384), (512, 384), (512, 384), (512, 384), (512, 384), (512, 384), (512, 384), (512, 384), (512, 384), (512, 384), (512, 384), (512, 384), (512, 384), (512, 384), (512, 384), (512, 384), (512, 384), (512, 384), (512, 384), (512, 384), (512, 384), (512, 384), (512, 384), (512, 384), (512, 384), (512, 384), (512, 384), (512, 384), (512, 384), (512, 384), (512, 384), (512, 384), (512, 384), (512, 384), (512, 384), (512, 384), (512, 384), (512, 384), (512, 384), (512, 384), (512, 384), (512, 384), (512, 384), (512, 384), (512, 384), (512, 384), (512, 384), (512, 384), (512, 384), (512, 384), (512, 384), (512, 384), (512, 384), (512, 384), (512, 384), (512, 384), (512, 384), (512, 384), (512, 384), (512, 384), (512, 384), (512, 384), (512, 384), (512, 384), (512, 384), (512, 384), (512, 384), (512, 384), (512, 384), (512, 384), (512, 384), (512, 384), (512, 384), (512, 384), (512, 384), (512, 384), (512, 384), (512, 384), (512, 384), (512, 384), (512, 384), (512, 384), (512, 384), (512, 384), (512, 384), (512, 384), (512, 384), (512, 384), (512, 384), (512, 384), (512, 384), (512, 384), (512, 384), (512, 384), (512, 384), (512, 384), (512, 384), (512, 384), (512, 384), (512, 384), (512, 384), (512, 384), (512, 384), (512, 384), (512, 384), (512, 384), (512, 384), (512, 384), (512, 384), (512, 384), (512, 384), (512, 384), (512, 384), (512, 384), (512, 384), (512, 384), (512, 384), (512, 384), (512, 384), (512, 384), (512, 384), (512, 384), (512, 384), (512, 384), (512, 384), (512, 384), (512, 384), (512, 384), (512, 384), (512, 384), (512, 384), (512, 384), (512, 384), (512, 384), (512, 384), (512, 384), (512, 384), (512, 384), (512, 384), (512, 384), (512, 384), (512, 384), (512, 384), (512, 384), (512, 384), (512, 384), (512, 384), (512, 384), (512, 384), (512, 384), (512, 388), (500, 416), (476, 444), (439, 480), (349, 549), (300, 578)]",137.5385445983988,"[3, 6, 5, 7, 1, 2, 4, 9, 8]","(0, 0.25)",DOT002C,DOT,C,Chinese,Wed Sep 19 13:29:47 2018,Mouse
2,3,3,0,33,5,6,0,-559,449,110,140,0,500,200,8000,"[(512, 384), (512, 384), (512, 384), (512, 384), (512, 384), (512, 384), (512, 384), (512, 384), (512, 384), (512, 384), (512, 384), (512, 384), (512, 384), (512, 384), (512, 384), (512, 384), (512, 384), (512, 384), (512, 384), (512, 384), (512, 384), (512, 384), (512, 384), (512, 384), (512, 384), (512, 384), (512, 384), (512, 384), (512, 384), (512, 384), (512, 384), (512, 384), (512, 384), (512, 384), (512, 384), (512, 384), (512, 384), (512, 384), (512, 384), (512, 384), (512, 384), (512, 384), (512, 384), (512, 384), (514, 385), (517, 389), (526, 405), (531, 418), (537, 433), (542, 444), (553, 469), (561, 486), (569, 502), (584, 526), (624, 583), (643, 608)]",59.67998918210186,"[3, 6, 5, 7, 1, 2, 4, 9, 8]","(0, 0.25)",DOT002C,DOT,C,Chinese,Wed Sep 19 13:29:47 2018,Mouse
2,3,3,0,34,6,7,0,-712,532,180,141,0,500,200,8000,"[(512, 384), (512, 384), (512, 384), (512, 384), (512, 384), (512, 384), (512, 384), (512, 384), (512, 384), (512, 384), (512, 384), (512, 384), (512, 384), (512, 384), (512, 384), (512, 384), (512, 384), (512, 384), (512, 384), (512, 384), (512, 384), (512, 384), (512, 384), (512, 384), (512, 384), (512, 384), (512, 384), (512, 384), (512, 384), (512, 384), (512, 384), (512, 384), (512, 384), (512, 384), (512, 384), (512, 384), (512, 384), (512, 384), (512, 384), (512, 384), (512, 384), (512, 384), (512, 384), (512, 384), (512, 384), (512, 384), (512, 384), (512, 384), (512, 384), (512, 384), (512, 384), (512, 384), (512, 384), (510, 384), (509, 386), (505, 389), (503, 391), (498, 395), (495, 397), (489, 400), (485, 402), (478, 405), (472, 411), (455, 430), (438, 446), (420, 461), (395, 482), (369, 505), (357, 514), (343, 523), (335, 531), (314, 548)]",140.36563092663985,"[3, 6, 5, 7, 1, 2, 4, 9, 8]","(0, 0.25)",DOT002C,DOT,C,Chinese,Wed Sep 19 13:29:47 2018,Mouse
2,3,3,0,35,8,8,1,735,675,60,142,0,500,200,8000,"[(512, 384), (512, 384), (512, 384), (512, 384), (512, 384), (512, 384), (512, 384), (512, 384), (512, 384), (512, 384), (512, 384), (512, 384), (512, 384), (512, 384), (512, 384), (512, 384), (512, 384), (512, 384), (512, 384), (512, 384), (512, 384), (512, 384), (512, 384), (512, 384), (512, 384), (512, 384), (512, 384), (512, 384), (512, 384), (512, 384), (512, 384), (512, 384), (512, 384), (512, 384), (512, 384), (512, 384), (512, 384), (512, 384), (512, 384), (512, 384), (512, 384), (512, 384), (512, 384), (512, 384), (512, 384), (512, 384), (512, 384), (512, 384), (512, 384), (512, 384), (512, 384), (512, 384), (512, 384), (512, 384), (512, 384), (512, 384), (512, 384), (512, 384), (512, 384), (512, 384), (512, 384), (512, 384), (512, 384), (512, 384), (512, 384), (512, 384), (512, 384), (517, 379), (527, 377), (543, 372), (573, 365), (661, 346), (713, 332), (782, 311)]",344.8706479361533,"[3, 6, 5, 7, 1, 2, 4, 9, 8]","(0, 0.25)",DOT002C,DOT,C,Chinese,Wed Sep 19 13:29:47 2018,Mouse
2,3,3,0,36,1,7,0,-844,774,70,142,0,500,200,8000,"[(512, 384), (512, 384), (512, 384), (512, 384), (512, 384), (512, 384), (512, 384), (512, 384), (512, 384), (512, 384), (512, 384), (512, 384), (512, 384), (512, 384), (512, 384), (512, 384), (512, 384), (512, 384), (512, 384), (512, 384), (512, 384), (512, 384), (512, 384), (512, 384), (512, 384), (512, 384), (512, 384), (512, 384), (512, 384), (512, 384), (512, 384), (512, 384), (512, 384), (512, 384), (512, 384), (512, 384), (512, 384), (512, 384), (512, 384), (512, 384), (512, 384), (512, 384), (512, 384), (512, 384), (512, 384), (512, 384), (512, 384), (512, 384), (512, 384), (512, 384), (512, 384), (512, 384), (512, 384), (512, 384), (512, 384), (512, 384), (512, 384), (512, 384), (512, 384), (512, 384), (512, 384), (512, 384), (512, 384), (512, 384), (512, 384), (512, 384), (512, 384), (512, 384), (512, 384), (512, 384), (512, 384), (512, 384), (512, 384), (512, 384), (512, 384), (512, 384), (512, 384), (503, 387), (495, 393), (484, 402), (472, 411), (423, 443), (384, 470), (337, 501), (295, 531)]",145.88552705465875,"[3, 6, 5, 7, 1, 2, 4, 9, 8]","(0, 0.25)",DOT002C,DOT,C,Chinese,Wed Sep 19 13:29:47 2018,Mouse
2,3,3,0,37,1,2,0,-1013,453,560,143,0,500,200,8000,"[(512, 384), (512, 384), (512, 384), (512, 384), (512, 384), (512, 384), (512, 384), (512, 384), (512, 384), (512, 384), (512, 384), (512, 384), (512, 384), (512, 384), (512, 384), (512, 384), (512, 384), (512, 384), (512, 384), (512, 384), (512, 384), (512, 384), (512, 384), (512, 384), (512, 384), (512, 384), (512, 384), (512, 384), (512, 384), (512, 384), (512, 384), (512, 384), (512, 384), (512, 384), (512, 384), (512, 384), (512, 384), (512, 384), (512, 384), (512, 384), (512, 384), (512, 384), (512, 384), (512, 384), (512, 384), (511, 384), (510, 384), (510, 384), (509, 384), (508, 384), (508, 384), (508, 384), (508, 384), (508, 384), (508, 384), (508, 384), (508, 384), (508, 384), (508, 384), (508, 384), (508, 384), (508, 384), (508, 384), (508, 384), (508, 384), (508, 384), (508, 384), (508, 384), (508, 384), (508, 384), (508, 384), (508, 384), (508, 384), (508, 384), (508, 384), (508, 384), (508, 384), (508, 384), (508, 384), (508, 384), (508, 384), (508, 384), (508, 384), (508, 384), (508, 384), (508, 384), (508, 384), (508, 384), (508, 384), (508, 384), (508, 384), (508, 384), (507, 384), (507, 383), (504, 380), (493, 372), (482, 365), (453, 343), (425, 320), (395, 290), (355, 250), (274, 171)]",221.82720608045813,"[3, 6, 5, 7, 1, 2, 4, 9, 8]","(0, 0.25)",DOT002C,DOT,C,Chinese,Wed Sep 19 13:29:47 2018,Mouse
2,3,3,0,38,9,8,0,-1111,802,309,144,0,500,200,8000,"[(512, 384), (512, 384), (512, 384), (512, 384), (512, 384), (512, 384), (512, 384), (512, 384), (512, 384), (512, 384), (512, 384), (512, 384), (512, 384), (512, 384), (512, 384), (512, 384), (512, 384), (512, 384), (512, 384), (512, 384), (512, 384), (512, 384), (512, 384), (512, 384), (512, 384), (512, 384), (512, 384), (512, 384), (512, 384), (512, 384), (512, 384), (512, 384), (512, 384), (512, 384), (512, 384), (512, 384), (512, 384), (512, 384), (512, 384), (512, 384), (512, 384), (512, 384), (512, 384), (512, 384), (512, 384), (512, 384), (512, 384), (512, 384), (512, 384), (512, 384), (512, 384), (512, 384), (512, 384), (512, 384), (512, 384), (512, 384), (512, 384), (512, 384), (512, 384), (512, 384), (512, 384), (512, 384), (512, 384), (512, 384), (512, 384), (512, 384), (512, 384), (512, 384), (512, 384), (512, 384), (512, 384), (512, 384), (512, 384), (512, 384), (512, 384), (512, 384), (512, 384), (512, 384), (512, 384), (512, 384), (518, 384), (523, 384), (526, 383), (530, 382), (538, 382), (539, 381), (541, 381), (541, 381), (541, 381), (541, 381), (541, 381), (541, 381), (541, 381), (541, 381), (541, 381), (541, 381), (541, 381), (541, 381), (541, 381), (541, 381), (541, 381), (541, 381), (541, 381), (541, 381), (541, 381), (547, 378), (554, 375), (568, 370), (636, 347), (687, 327), (734, 309), (779, 297)]",341.95217893122896,"[3, 6, 5, 7, 1, 2, 4, 9, 8]","(0, 0.25)",DOT002C,DOT,C,Chinese,Wed Sep 19 13:29:47 2018,Mouse
2,3,3,0,39,3,3,1,495,375,120,145,0,500,200,8000,"[(512, 384), (512, 384), (512, 384), (512, 384), (512, 384), (512, 384), (512, 384), (512, 384), (512, 384), (512, 384), (512, 384), (512, 384), (512, 384), (512, 384), (512, 384), (512, 384), (512, 384), (512, 384), (512, 384), (512, 384), (512, 384), (512, 384), (512, 384), (512, 384), (512, 384), (512, 384), (512, 384), (512, 384), (512, 384), (512, 384), (512, 384), (512, 384), (512, 384), (512, 384), (512, 384), (512, 384), (512, 384), (512, 385), (519, 389), (528, 393), (551, 402), (564, 407), (577, 412), (596, 422), (628, 435), (647, 443), (664, 450), (682, 459), (725, 473), (745, 479)]",22.181966263220286,"[3, 6, 5, 7, 1, 2, 4, 9, 8]","(0, 0.25)",DOT002C,DOT,C,Chinese,Wed Sep 19 13:29:47 2018,Mouse
2,3,3,0,40,9,9,1,532,292,240,145,0,500,200,8000,"[(512, 384), (512, 384), (512, 384), (512, 384), (512, 384), (512, 384), (512, 384), (512, 384), (512, 384), (512, 384), (512, 384), (512, 384), (512, 384), (512, 384), (512, 384), (512, 384), (512, 384), (512, 384), (512, 384), (512, 384), (512, 384), (512, 384), (512, 384), (512, 384), (512, 384), (512, 384), (512, 384), (512, 384), (512, 384), (512, 383), (512, 383), (512, 382), (513, 382), (514, 381), (514, 381), (514, 381), (514, 381), (514, 381), (515, 380), (518, 379), (519, 377), (521, 375), (523, 372), (530, 364), (534, 360), (541, 355), (547, 348), (560, 334), (568, 323), (576, 312), (590, 292), (639, 234), (662, 206), (687, 177)]",310.2115334496864,"[3, 6, 5, 7, 1, 2, 4, 9, 8]","(0, 0.25)",DOT002C,DOT,C,Chinese,Wed Sep 19 13:29:47 2018,Mouse
2,3,3,0,41,3,3,1,592,502,90,144,0,500,200,8000,"[(512, 384), (512, 384), (512, 384), (512, 384), (512, 384), (512, 384), (512, 384), (512, 384), (512, 384), (512, 384), (512, 384), (512, 384), (512, 384), (512, 384), (512, 384), (512, 384), (512, 384), (512, 384), (512, 384), (512, 384), (512, 384), (512, 384), (512, 384), (512, 384), (512, 384), (512, 384), (512, 384), (512, 384), (512, 384), (512, 384), (512, 384), (512, 384), (512, 384), (512, 384), (512, 384), (512, 384), (512, 384), (512, 384), (512, 384), (512, 384), (512, 384), (512, 384), (512, 384), (512, 384), (512, 384), (512, 384), (512, 384), (512, 384), (512, 384), (512, 384), (512, 385), (512, 385), (512, 385), (518, 387), (544, 395), (573, 407), (604, 418), (651, 431), (742, 471), (793, 491)]",20.84597856953324,"[3, 6, 5, 7, 1, 2, 4, 9, 8]","(0, 0.25)",DOT002C,DOT,C,Chinese,Wed Sep 19 13:29:47 2018,Mouse
2,3,3,0,42,6,8,0,-592,532,60,143,0,500,200,8000,"[(512, 384), (512, 384), (512, 384), (512, 384), (512, 384), (512, 384), (512, 384), (512, 384), (512, 384), (512, 384), (512, 384), (512, 384), (512, 384), (512, 384), (512, 384), (512, 384), (512, 384), (512, 384), (512, 384), (512, 384), (512, 384), (512, 384), (512, 384), (512, 384), (512, 384), (512, 384), (512, 384), (512, 384), (512, 384), (512, 384), (512, 384), (512, 384), (512, 384), (512, 384), (512, 384), (512, 384), (512, 384), (512, 384), (512, 384), (512, 384), (512, 384), (512, 384), (512, 384), (512, 384), (512, 384), (512, 384), (512, 384), (512, 384), (512, 384), (512, 384), (512, 384), (512, 384), (512, 384), (511, 384), (511, 383), (572, 367), (609, 354), (650, 343), (697, 329), (803, 299)]",343.7171158709779,"[3, 6, 5, 7, 1, 2, 4, 9, 8]","(0, 0.25)",DOT002C,DOT,C,Chinese,Wed Sep 19 13:29:47 2018,Mouse
2,3,3,0,43,6,5,0,-365,15,350,144,0,500,200,8000,"[(500, 388), (488, 392), (475, 395), (452, 401), (443, 404), (435, 406), (429, 408), (424, 409), (422, 409), (422, 409), (422, 409), (422, 409), (422, 409), (422, 409), (422, 409), (422, 409), (422, 409), (422, 409), (422, 409), (422, 409), (422, 409), (422, 409), (422, 409), (422, 416), (425, 426), (431, 436), (433, 445), (442, 465), (449, 477), (456, 488), (462, 500), (481, 530), (490, 548), (503, 565), (517, 587), (541, 622), (555, 637)]",80.35415574338803,"[3, 6, 5, 7, 1, 2, 4, 9, 8]","(0, 0.25)",DOT002C,DOT,C,Chinese,Wed Sep 19 13:29:47 2018,Mouse
2,3,3,0,44,8,8,1,481,21,460,145,0,500,200,8000,"[(512, 384), (512, 384), (512, 382), (512, 378), (514, 378), (515, 378), (520, 377), (526, 377), (529, 377), (534, 376), (540, 375), (550, 373), (557, 372), (562, 370), (569, 368), (578, 363), (582, 362), (584, 360), (587, 359), (587, 359), (587, 359), (587, 359), (587, 359), (587, 359), (587, 359), (587, 359), (587, 359), (587, 359), (587, 359), (587, 359), (587, 359), (587, 359), (587, 359), (587, 359), (587, 359), (587, 359), (587, 359), (587, 359), (587, 359), (589, 357), (592, 356), (597, 352), (606, 347), (625, 339), (639, 333), (654, 328), (676, 320), (748, 302), (782, 292)]",341.18393187905684,"[3, 6, 5, 7, 1, 2, 4, 9, 8]","(0, 0.25)",DOT002C,DOT,C,Chinese,Wed Sep 19 13:29:47 2018,Mouse
2,3,3,0,45,3,3,1,453,243,210,145,0,500,200,8000,"[(512, 384), (512, 384), (512, 384), (512, 384), (512, 384), (512, 384), (512, 384), (512, 384), (512, 384), (512, 384), (512, 384), (512, 384), (512, 384), (512, 384), (512, 384), (512, 384), (512, 384), (512, 384), (512, 384), (512, 384), (512, 384), (512, 384), (512, 384), (512, 384), (512, 385), (513, 388), (525, 394), (535, 398), (541, 400), (551, 405), (564, 411), (572, 414), (579, 417), (586, 420), (605, 430), (615, 436), (624, 441), (637, 447), (659, 456), (670, 461), (682, 466), (692, 471), (714, 476), (727, 481), (739, 483), (753, 488)]",23.341901319120595,"[3, 6, 5, 7, 1, 2, 4, 9, 8]","(0, 0.25)",DOT002C,DOT,C,Chinese,Wed Sep 19 13:29:47 2018,Mouse
2,3,3,0,46,2,2,1,582,522,60,144,0,500,200,8000,"[(512, 384), (512, 384), (512, 384), (512, 384), (512, 384), (512, 384), (512, 384), (512, 384), (512, 384), (512, 384), (512, 384), (512, 384), (512, 384), (512, 384), (512, 384), (512, 384), (512, 384), (512, 384), (512, 384), (512, 384), (512, 384), (512, 384), (512, 384), (512, 384), (512, 384), (512, 384), (512, 384), (512, 384), (512, 384), (512, 384), (512, 384), (512, 384), (512, 384), (512, 384), (512, 384), (512, 384), (512, 384), (512, 384), (512, 384), (512, 384), (512, 384), (512, 384), (512, 384), (512, 384), (512, 384), (512, 384), (512, 384), (512, 384), (512, 384), (512, 384), (512, 384), (512, 384), (509, 384), (481, 354), (456, 327), (430, 305), (404, 282), (327, 234), (289, 213)]",217.4815731205578,"[3, 6, 5, 7, 1, 2, 4, 9, 8]","(0, 0.25)",DOT002C,DOT,C,Chinese,Wed Sep 19 13:29:47 2018,Mouse
2,3,3,0,47,5,5,1,992,952,40,143,0,500,200,8000,"[(512, 384), (512, 384), (512, 384), (512, 384), (512, 384), (512, 384), (512, 384), (512, 384), (512, 384), (512, 384), (512, 384), (512, 384), (512, 384), (512, 384), (512, 384), (512, 384), (512, 384), (512, 384), (512, 384), (512, 384), (512, 384), (512, 384), (512, 384), (512, 384), (512, 384), (512, 384), (512, 384), (512, 384), (512, 384), (512, 384), (512, 384), (512, 384), (512, 384), (512, 384), (512, 384), (512, 384), (512, 384), (512, 384), (512, 384), (512, 384), (512, 384), (512, 384), (512, 384), (512, 384), (512, 384), (512, 384), (512, 384), (512, 384), (512, 384), (512, 384), (512, 384), (512, 384), (512, 384), (512, 384), (512, 384), (512, 384), (512, 384), (512, 384), (512, 384), (512, 384), (512, 384), (512, 384), (512, 384), (512, 384), (512, 384), (512, 384), (512, 384), (512, 384), (512, 384), (512, 384), (512, 384), (512, 384), (512, 384), (512, 384), (512, 384), (512, 384), (512, 384), (512, 384), (512, 384), (512, 384), (512, 384), (512, 384), (512, 384), (512, 384), (512, 384), (512, 384), (512, 384), (512, 384), (512, 384), (512, 384), (512, 384), (512, 384), (512, 384), (512, 384), (512, 384), (512, 392), (506, 418), (494, 460), (469, 524), (409, 646)]",111.46126703402422,"[3, 6, 5, 7, 1, 2, 4, 9, 8]","(0, 0.25)",DOT002C,DOT,C,Chinese,Wed Sep 19 13:29:47 2018,Mouse
2,3,3,0,48,4,4,1,1352,1322,30,142,0,500,200,8000,"[(512, 384), (512, 384), (512, 384), (512, 384), (512, 384), (512, 384), (512, 384), (512, 384), (512, 384), (512, 384), (512, 384), (512, 384), (512, 384), (512, 384), (512, 384), (512, 384), (512, 384), (512, 384), (512, 384), (512, 384), (512, 384), (512, 384), (512, 384), (512, 384), (512, 384), (512, 384), (512, 384), (512, 384), (512, 384), (512, 384), (512, 384), (512, 384), (512, 384), (512, 384), (512, 384), (512, 384), (512, 384), (512, 384), (512, 384), (512, 384), (512, 384), (512, 384), (512, 384), (512, 384), (512, 384), (512, 384), (512, 384), (512, 384), (512, 384), (512, 384), (512, 384), (512, 384), (512, 384), (512, 384), (512, 384), (512, 384), (512, 384), (512, 384), (512, 384), (512, 384), (512, 384), (512, 384), (512, 384), (512, 384), (512, 384), (512, 384), (512, 384), (512, 384), (512, 384), (512, 384), (512, 384), (512, 384), (512, 384), (512, 384), (512, 384), (512, 384), (512, 384), (512, 384), (512, 384), (512, 384), (512, 384), (512, 384), (512, 384), (512, 384), (512, 384), (512, 384), (512, 384), (512, 384), (512, 384), (512, 384), (512, 384), (512, 384), (512, 384), (512, 384), (512, 384), (512, 384), (512, 384), (512, 384), (512, 384), (512, 384), (512, 384), (512, 384), (512, 384), (512, 384), (512, 384), (512, 384), (512, 384), (512, 384), (512, 384), (512, 384), (512, 384), (512, 384), (512, 384), (512, 384), (512, 384), (512, 384), (512, 384), (512, 384), (512, 384), (512, 384), (512, 384), (512, 384), (512, 384), (512, 384), (512, 384), (512, 384), (512, 384), (512, 384), (512, 384), (512, 384), (512, 384), (512, 384), (491, 298), (468, 236), (445, 175), (426, 111)]",252.5146180335138,"[3, 6, 5, 7, 1, 2, 4, 9, 8]","(0, 0.25)",DOT002C,DOT,C,Chinese,Wed Sep 19 13:29:47 2018,Mouse
2,3,3,0,49,4,2,0,-418,368,50,141,0,500,200,8000,"[(512, 384), (512, 384), (512, 384), (512, 384), (512, 384), (512, 384), (512, 384), (512, 384), (512, 384), (512, 384), (512, 384), (512, 384), (512, 384), (512, 384), (512, 384), (512, 384), (512, 384), (512, 384), (512, 384), (512, 384), (512, 384), (512, 384), (512, 384), (512, 384), (512, 384), (512, 384), (512, 384), (512, 384), (512, 384), (512, 384), (512, 384), (512, 384), (512, 384), (512, 384), (512, 384), (512, 384), (511, 385), (494, 383), (465, 370), (425, 350), (334, 298), (287, 268)]",207.2736200991848,"[3, 6, 5, 7, 1, 2, 4, 9, 8]","(0, 0.25)",DOT002C,DOT,C,Chinese,Wed Sep 19 13:29:47 2018,Mouse
2,3,3,0,50,5,7,0,-1331,1281,50,142,0,500,200,8000,"[(512, 384), (512, 384), (512, 384), (512, 384), (512, 384), (512, 384), (512, 384), (512, 384), (512, 384), (512, 384), (512, 384), (512, 384), (512, 384), (512, 384), (512, 384), (512, 384), (512, 384), (512, 384), (512, 384), (512, 384), (512, 384), (512, 384), (512, 384), (512, 384), (512, 384), (512, 384), (512, 384), (512, 384), (512, 384), (512, 384), (512, 384), (512, 384), (512, 384), (512, 384), (512, 384), (512, 384), (512, 384), (512, 384), (512, 384), (512, 384), (512, 384), (512, 384), (512, 384), (512, 384), (512, 384), (512, 384), (512, 384), (512, 384), (512, 384), (512, 384), (512, 384), (512, 384), (512, 384), (512, 384), (512, 384), (512, 384), (512, 384), (512, 384), (512, 384), (512, 384), (512, 384), (512, 384), (512, 384), (512, 384), (512, 384), (512, 384), (512, 384), (512, 384), (512, 384), (512, 384), (512, 384), (512, 384), (512, 384), (512, 384), (512, 384), (512, 384), (512, 384), (512, 384), (512, 384), (512, 384), (512, 384), (512, 384), (512, 384), (512, 384), (512, 384), (512, 384), (512, 384), (512, 384), (512, 384), (512, 384), (512, 384), (512, 384), (512, 384), (512, 384), (512, 384), (512, 384), (512, 384), (512, 384), (512, 384), (512, 384), (512, 384), (512, 384), (512, 384), (512, 384), (512, 384), (512, 384), (512, 384), (512, 384), (512, 384), (512, 384), (512, 384), (512, 384), (512, 384), (512, 384), (512, 384), (512, 384), (512, 384), (512, 384), (512, 384), (512, 384), (512, 384), (512, 384), (512, 384), (512, 384), (512, 384), (512, 384), (512, 384), (512, 384), (512, 388), (503, 405), (463, 441), (368, 512), (324, 544), (278, 581)]",139.90663335654932,"[3, 6, 5, 7, 1, 2, 4, 9, 8]","(0, 0.25)",DOT002C,DOT,C,Chinese,Wed Sep 19 13:29:47 2018,Mouse
2,3,3,0,51,9,9,1,1102,1052,50,143,0,500,200,8000,"[(512, 384), (512, 384), (512, 384), (512, 384), (512, 384), (512, 384), (512, 384), (512, 384), (512, 384), (512, 384), (512, 384), (512, 384), (512, 384), (512, 384), (512, 384), (512, 384), (512, 384), (512, 384), (512, 384), (512, 384), (512, 384), (512, 384), (512, 384), (512, 384), (512, 384), (512, 384), (512, 384), (512, 384), (512, 384), (512, 384), (512, 384), (512, 384), (512, 384), (512, 384), (512, 384), (512, 384), (512, 384), (512, 384), (512, 384), (512, 384), (512, 384), (512, 384), (512, 384), (512, 384), (512, 384), (512, 384), (512, 384), (512, 384), (512, 384), (512, 384), (512, 384), (512, 384), (512, 384), (512, 384), (512, 384), (512, 384), (512, 384), (512, 384), (512, 384), (512, 384), (512, 384), (512, 384), (512, 384), (512, 384), (512, 384), (512, 384), (512, 384), (512, 384), (512, 384), (512, 384), (512, 384), (512, 384), (512, 384), (512, 384), (512, 384), (512, 384), (512, 384), (512, 384), (512, 384), (512, 384), (512, 384), (512, 384), (512, 384), (512, 384), (512, 384), (512, 384), (512, 384), (512, 384), (512, 384), (512, 384), (512, 384), (512, 384), (512, 384), (512, 384), (512, 384), (512, 384), (512, 384), (512, 384), (512, 384), (512, 384), (512, 384), (512, 384), (512, 384), (512, 384), (512, 384), (513, 379), (536, 343), (548, 311), (568, 268), (588, 217), (658, 105)]",297.62294959960127,"[3, 6, 5, 7, 1, 2, 4, 9, 8]","(0, 0.25)",DOT002C,DOT,C,Chinese,Wed Sep 19 13:29:47 2018,Mouse
2,3,3,0,52,6,6,1,802,722,80,143,0,500,200,8000,"[(512, 384), (512, 384), (512, 384), (512, 384), (512, 384), (512, 384), (512, 384), (512, 384), (512, 384), (512, 384), (512, 384), (512, 384), (512, 384), (512, 384), (512, 384), (512, 384), (512, 384), (512, 384), (512, 384), (512, 384), (512, 384), (512, 384), (512, 384), (512, 384), (512, 384), (512, 384), (512, 384), (512, 384), (512, 384), (512, 384), (512, 384), (512, 384), (512, 384), (512, 384), (512, 384), (512, 384), (512, 384), (512, 384), (512, 384), (512, 384), (512, 384), (512, 384), (512, 384), (512, 384), (512, 384), (512, 384), (512, 384), (512, 384), (512, 384), (512, 384), (512, 384), (512, 384), (512, 384), (512, 384), (512, 384), (512, 384), (512, 384), (512, 384), (512, 384), (512, 384), (512, 384), (512, 384), (512, 384), (512, 384), (512, 384), (512, 384), (512, 384), (512, 384), (512, 384), (512, 384), (512, 384), (512, 384), (532, 414), (542, 428), (555, 445), (565, 457), (596, 505), (612, 527), (631, 555), (650, 583), (686, 648)]",56.61148642388849,"[3, 6, 5, 7, 1, 2, 4, 9, 8]","(0, 0.25)",DOT002C,DOT,C,Chinese,Wed Sep 19 13:29:47 2018,Mouse
2,3,3,0,53,9,9,1,452,372,80,142,0,500,200,8000,"[(512, 384), (512, 384), (512, 384), (512, 384), (512, 384), (512, 384), (512, 384), (512, 384), (512, 384), (512, 384), (512, 384), (512, 384), (512, 384), (512, 384), (512, 384), (512, 384), (512, 384), (512, 384), (512, 384), (512, 384), (512, 384), (512, 384), (512, 384), (512, 384), (512, 384), (512, 384), (512, 384), (512, 384), (512, 384), (512, 384), (512, 384), (512, 384), (512, 384), (512, 384), (512, 384), (512, 384), (512, 384), (511, 376), (511, 368), (517, 359), (532, 343), (545, 328), (563, 305), (584, 277), (644, 193), (678, 148)]",305.12216371014443,"[3, 6, 5, 7, 1, 2, 4, 9, 8]","(0, 0.25)",DOT002C,DOT,C,Chinese,Wed Sep 19 13:29:47 2018,Mouse
2,3,3,0,54,3,3,1,581,511,70,141,0,500,200,8000,"[(512, 384), (512, 384), (512, 384), (512, 384), (512, 384), (512, 384), (512, 384), (512, 384), (512, 384), (512, 384), (512, 384), (512, 384), (512, 384), (512, 384), (512, 384), (512, 384), (512, 384), (512, 384), (512, 384), (512, 384), (512, 384), (512, 384), (512, 384), (512, 384), (512, 384), (512, 384), (512, 384), (512, 384), (512, 384), (512, 384), (512, 384), (512, 384), (512, 384), (512, 384), (512, 384), (512, 384), (512, 384), (512, 384), (512, 384), (512, 384), (512, 384), (512, 384), (512, 384), (512, 384), (512, 384), (512, 384), (512, 384), (512, 384), (512, 384), (512, 384), (512, 384), (515, 391), (528, 402), (548, 416), (569, 426), (627, 459), (669, 475), (706, 490), (738, 506)]",28.361194329573717,"[3, 6, 5, 7, 1, 2, 4, 9, 8]","(0, 0.25)",DOT002C,DOT,C,Chinese,Wed Sep 19 13:29:47 2018,Mouse
2,3,3,0,55,6,3,0,-173,83,90,140,0,500,200,8000,"[(512, 384), (512, 384), (512, 384), (512, 384), (512, 384), (512, 384), (512, 384), (512, 384), (515, 384), (547, 401), (562, 412), (580, 420), (598, 429), (637, 446), (669, 460), (698, 472), (724, 483), (779, 507)]",24.734302529052496,"[3, 6, 5, 7, 1, 2, 4, 9, 8]","(0, 0.25)",DOT002C,DOT,C,Chinese,Wed Sep 19 13:29:47 2018,Mouse
2,3,3,0,56,1,1,1,532,132,400,141,0,500,200,8000,"[(512, 384), (512, 384), (512, 384), (512, 384), (512, 384), (512, 384), (512, 384), (512, 384), (512, 384), (512, 384), (512, 384), (512, 384), (512, 384), (510, 382), (505, 381), (503, 380), (495, 377), (491, 376), (484, 373), (473, 371), (447, 365), (439, 361), (434, 359), (431, 359), (425, 356), (422, 355), (420, 355), (418, 354), (416, 354), (416, 354), (416, 354), (416, 354), (416, 354), (416, 354), (416, 354), (416, 354), (416, 354), (416, 354), (416, 354), (416, 354), (416, 354), (416, 354), (416, 354), (416, 354), (416, 354), (415, 354), (412, 354), (407, 354), (391, 359), (379, 363), (363, 366), (341, 372), (278, 388), (235, 393)]",178.13905893398697,"[3, 6, 5, 7, 1, 2, 4, 9, 8]","(0, 0.25)",DOT002C,DOT,C,Chinese,Wed Sep 19 13:29:47 2018,Mouse
2,3,3,0,57,3,3,1,187,97,90,141,0,500,200,8000,"[(512, 384), (512, 384), (512, 384), (512, 384), (512, 384), (512, 384), (512, 384), (512, 384), (512, 384), (517, 384), (543, 392), (554, 396), (572, 403), (595, 410), (657, 433), (691, 441), (719, 450), (738, 454), (782, 467)]",17.08781596066632,"[3, 6, 5, 7, 1, 2, 4, 9, 8]","(0, 0.25)",DOT002C,DOT,C,Chinese,Wed Sep 19 13:29:47 2018,Mouse
2,3,3,0,58,9,8,0,-772,682,90,140,0,500,200,8000,"[(512, 384), (512, 384), (512, 384), (512, 384), (512, 384), (512, 384), (512, 384), (512, 384), (512, 384), (512, 384), (512, 384), (512, 384), (512, 384), (512, 384), (512, 384), (512, 384), (512, 384), (512, 384), (512, 384), (512, 384), (512, 384), (512, 384), (512, 384), (512, 384), (512, 384), (512, 384), (512, 384), (512, 384), (512, 384), (512, 384), (512, 384), (512, 384), (512, 384), (512, 384), (512, 384), (512, 384), (512, 384), (512, 384), (512, 384), (512, 384), (512, 384), (512, 384), (512, 384), (512, 384), (512, 384), (512, 384), (512, 384), (512, 384), (512, 384), (512, 384), (512, 384), (512, 384), (512, 384), (512, 384), (512, 384), (512, 384), (512, 384), (512, 384), (512, 384), (512, 384), (512, 384), (512, 384), (512, 384), (512, 384), (512, 384), (512, 384), (512, 384), (512, 384), (512, 381), (520, 376), (531, 371), (546, 362), (593, 340), (619, 330), (645, 323), (678, 314), (730, 301), (747, 296)]",339.47067855623663,"[3, 6, 5, 7, 1, 2, 4, 9, 8]","(0, 0.25)",DOT002C,DOT,C,Chinese,Wed Sep 19 13:29:47 2018,Mouse
2,3,3,0,59,1,1,1,712,282,430,141,0,500,200,8000,"[(512, 384), (512, 384), (512, 384), (512, 384), (512, 384), (512, 384), (512, 384), (512, 384), (512, 384), (512, 384), (512, 384), (512, 384), (512, 384), (512, 384), (512, 384), (512, 384), (512, 384), (512, 384), (512, 384), (512, 384), (512, 384), (512, 384), (512, 384), (512, 384), (512, 384), (512, 384), (512, 384), (512, 384), (511, 384), (509, 386), (508, 386), (507, 386), (507, 386), (507, 386), (507, 386), (507, 386), (507, 386), (507, 386), (507, 386), (507, 386), (507, 386), (507, 386), (507, 386), (507, 386), (507, 386), (507, 386), (507, 386), (507, 386), (507, 386), (507, 386), (507, 386), (507, 386), (507, 386), (507, 386), (507, 386), (507, 386), (507, 386), (507, 386), (507, 386), (507, 386), (507, 386), (507, 386), (507, 386), (507, 386), (506, 387), (500, 390), (488, 393), (454, 403), (423, 409), (386, 415), (338, 418), (235, 418)]",173.00230739598558,"[3, 6, 5, 7, 1, 2, 4, 9, 8]","(0, 0.25)",DOT002C,DOT,C,Chinese,Wed Sep 19 13:29:47 2018,Mouse
2,3,3,0,60,2,7,0,-574,524,50,141,0,500,200,8000,"[(512, 384), (512, 384), (512, 384), (512, 384), (512, 384), (512, 384), (512, 384), (512, 384), (512, 384), (512, 384), (512, 384), (512, 384), (512, 384), (512, 384), (512, 384), (512, 384), (512, 384), (512, 384), (512, 384), (512, 384), (512, 384), (512, 384), (512, 384), (512, 384), (512, 384), (512, 384), (512, 384), (512, 384), (512, 384), (512, 384), (512, 384), (512, 384), (512, 384), (512, 384), (512, 384), (512, 384), (512, 384), (512, 384), (512, 384), (512, 384), (512, 384), (512, 384), (512, 384), (512, 384), (512, 384), (512, 384), (512, 384), (512, 384), (512, 384), (512, 384), (512, 384), (512, 384), (504, 392), (481, 415), (452, 438), (362, 492), (318, 516), (274, 542)]",146.4211862749993,"[3, 6, 5, 7, 1, 2, 4, 9, 8]","(0, 0.25)",DOT002C,DOT,C,Chinese,Wed Sep 19 13:29:47 2018,Mouse
2,3,3,0,61,2,7,0,-243,173,70,142,0,500,200,8000,"[(512, 384), (512, 384), (512, 384), (512, 384), (512, 384), (512, 384), (512, 384), (512, 384), (512, 384), (512, 384), (512, 384), (512, 384), (512, 384), (512, 384), (512, 384), (512, 384), (512, 384), (511, 393), (495, 433), (482, 455), (464, 485), (444, 511), (396, 566), (374, 587), (353, 606)]",125.61085243866876,"[3, 6, 5, 7, 1, 2, 4, 9, 8]","(0, 0.25)",DOT002C,DOT,C,Chinese,Wed Sep 19 13:29:47 2018,Mouse
2,3,3,0,62,8,8,1,742,702,40,143,0,500,200,8000,"[(512, 384), (512, 384), (512, 384), (512, 384), (512, 384), (512, 384), (512, 384), (512, 384), (512, 384), (512, 384), (512, 384), (512, 384), (512, 384), (512, 384), (512, 384), (512, 384), (512, 384), (512, 384), (512, 384), (512, 384), (512, 384), (512, 384), (512, 384), (512, 384), (512, 384), (512, 384), (512, 384), (512, 384), (512, 384), (512, 384), (512, 384), (512, 384), (512, 384), (512, 384), (512, 384), (512, 384), (512, 384), (512, 384), (512, 384), (512, 384), (512, 384), (512, 384), (512, 384), (512, 384), (512, 384), (512, 384), (512, 384), (512, 384), (512, 384), (512, 384), (512, 384), (512, 384), (512, 384), (512, 384), (512, 384), (512, 384), (512, 384), (512, 384), (512, 384), (512, 384), (512, 384), (512, 384), (512, 384), (512, 384), (512, 384), (512, 384), (512, 384), (512, 384), (512, 384), (512, 384), (525, 379), (570, 361), (607, 348), (651, 336), (765, 299)]",341.42927944184436,"[3, 6, 5, 7, 1, 2, 4, 9, 8]","(0, 0.25)",DOT002C,DOT,C,Chinese,Wed Sep 19 13:29:47 2018,Mouse
2,3,3,0,63,8,6,0,-1241,441,800,143,0,500,200,8000,"[(512, 384), (512, 384), (512, 384), (512, 384), (512, 384), (512, 384), (512, 384), (512, 384), (512, 384), (512, 384), (512, 384), (512, 384), (512, 384), (512, 384), (512, 384), (512, 384), (512, 384), (512, 384), (512, 384), (512, 384), (512, 384), (512, 384), (512, 384), (512, 384), (512, 384), (512, 384), (512, 384), (512, 384), (512, 384), (512, 384), (512, 384), (512, 384), (512, 384), (512, 384), (512, 384), (512, 384), (512, 384), (512, 384), (512, 384), (512, 384), (512, 384), (512, 384), (512, 384), (512, 384), (516, 395), (517, 408), (518, 420), (523, 434), (528, 454), (531, 461), (532, 468), (534, 474), (542, 489), (544, 495), (546, 499), (549, 507), (553, 517), (556, 523), (558, 528), (559, 531), (562, 537), (565, 539), (565, 540), (565, 540), (565, 540), (565, 540), (565, 540), (565, 540), (565, 540), (565, 540), (565, 540), (565, 540), (565, 540), (565, 540), (565, 540), (565, 540), (565, 540), (565, 540), (565, 540), (565, 540), (565, 540), (565, 540), (565, 540), (565, 540), (565, 540), (565, 540), (565, 540), (565, 541), (571, 555), (577, 565), (583, 575), (588, 584), (597, 596), (601, 602), (603, 606), (606, 608), (607, 610), (607, 610), (608, 611), (608, 611), (608, 611), (608, 611), (608, 611), (608, 611), (608, 611), (608, 611), (608, 611), (608, 611), (608, 611), (608, 611), (608, 611), (608, 611), (608, 611), (608, 611), (608, 611), (608, 611), (608, 611), (608, 611), (608, 611), (608, 611), (608, 611), (608, 611), (608, 611), (608, 612), (612, 625)]",67.4645922129485,"[3, 6, 5, 7, 1, 2, 4, 9, 8]","(0, 0.25)",DOT002C,DOT,C,Chinese,Wed Sep 19 13:29:47 2018,Mouse
2,3,3,0,64,1,1,1,672,632,40,144,0,500,200,8000,"[(512, 384), (512, 384), (512, 384), (512, 384), (512, 384), (512, 384), (512, 384), (512, 384), (512, 384), (512, 384), (512, 384), (512, 384), (512, 384), (512, 384), (512, 384), (512, 384), (512, 384), (512, 384), (512, 384), (512, 384), (512, 384), (512, 384), (512, 384), (512, 384), (512, 384), (512, 384), (512, 384), (512, 384), (512, 384), (512, 384), (512, 384), (512, 384), (512, 384), (512, 384), (512, 384), (512, 384), (512, 384), (512, 384), (512, 384), (512, 384), (512, 384), (512, 384), (512, 384), (512, 384), (512, 384), (512, 384), (512, 384), (512, 384), (512, 384), (512, 384), (512, 384), (512, 384), (512, 384), (512, 384), (512, 384), (512, 384), (512, 384), (512, 384), (512, 384), (512, 384), (512, 384), (512, 384), (512, 384), (506, 386), (409, 398), (349, 406), (292, 417), (230, 425)]",171.72772478748706,"[3, 6, 5, 7, 1, 2, 4, 9, 8]","(0, 0.25)",DOT002C,DOT,C,Chinese,Wed Sep 19 13:29:47 2018,Mouse
2,3,3,0,65,8,8,1,2124,1994,130,144,0,500,200,8000,"[(512, 384), (512, 384), (512, 384), (512, 384), (512, 384), (512, 384), (512, 384), (512, 384), (512, 384), (512, 384), (512, 384), (512, 384), (512, 384), (512, 384), (512, 384), (512, 384), (512, 384), (512, 384), (512, 384), (512, 384), (512, 384), (512, 384), (512, 384), (512, 384), (512, 384), (512, 384), (512, 384), (512, 384), (512, 384), (512, 384), (512, 384), (512, 384), (512, 384), (512, 384), (512, 384), (512, 384), (512, 384), (512, 384), (512, 384), (512, 384), (512, 384), (512, 384), (512, 384), (512, 384), (512, 384), (512, 384), (512, 384), (512, 384), (512, 384), (512, 384), (512, 384), (512, 384), (512, 384), (512, 384), (512, 384), (512, 384), (512, 384), (512, 384), (512, 384), (512, 384), (512, 384), (512, 384), (512, 384), (512, 384), (512, 384), (512, 384), (512, 384), (512, 384), (512, 384), (512, 384), (512, 384), (512, 384), (512, 384), (512, 384), (512, 384), (512, 384), (512, 384), (512, 384), (512, 384), (512, 384), (512, 384), (512, 384), (512, 384), (512, 384), (512, 384), (512, 384), (512, 384), (512, 384), (512, 384), (512, 384), (512, 384), (512, 384), (512, 384), (512, 384), (512, 384), (512, 384), (512, 384), (512, 384), (512, 384), (512, 384), (512, 384), (512, 384), (512, 384), (512, 384), (512, 384), (512, 384), (512, 384), (512, 384), (512, 384), (512, 384), (512, 384), (512, 384), (512, 384), (512, 384), (512, 384), (512, 384), (512, 384), (512, 384), (512, 384), (512, 384), (512, 384), (512, 384), (512, 384), (512, 384), (512, 384), (512, 384), (512, 384), (512, 384), (512, 384), (512, 384), (512, 384), (512, 384), (512, 384), (512, 384), (512, 384), (512, 384), (512, 384), (512, 384), (512, 384), (512, 384), (512, 384), (512, 384), (512, 384), (512, 384), (512, 384), (512, 384), (512, 384), (512, 384), (512, 384), (512, 384), (512, 384), (512, 384), (512, 384), (512, 384), (512, 384), (512, 384), (512, 384), (512, 384), (512, 384), (512, 384), (512, 384), (512, 384), (512, 384), (512, 384), (512, 384), (512, 384), (512, 384), (512, 384), (512, 384), (512, 384), (512, 384), (512, 384), (512, 384), (512, 384), (512, 384), (512, 384), (512, 384), (512, 384), (512, 384), (512, 384), (512, 384), (512, 384), (512, 384), (512, 384), (512, 384), (512, 384), (512, 384), (512, 384), (512, 384), (512, 384), (512, 384), (512, 384), (512, 384), (512, 384), (512, 384), (512, 384), (512, 384), (512, 384), (512, 384), (513, 384), (545, 370), (563, 363), (589, 353), (614, 346), (653, 334), (670, 331), (682, 326), (695, 323), (716, 315), (727, 309), (737, 305), (743, 303), (756, 296)]",340.1678701497816,"[3, 6, 5, 7, 1, 2, 4, 9, 8]","(0, 0.25)",DOT002C,DOT,C,Chinese,Wed Sep 19 13:29:47 2018,Mouse
2,3,3,0,66,7,7,1,580,510,70,143,0,500,200,8000,"[(512, 384), (512, 384), (512, 384), (512, 384), (512, 384), (512, 384), (512, 384), (512, 384), (512, 384), (512, 384), (512, 384), (512, 384), (512, 384), (512, 384), (512, 384), (512, 384), (512, 384), (512, 384), (512, 384), (512, 384), (512, 384), (512, 384), (512, 384), (512, 384), (512, 384), (512, 384), (512, 384), (512, 384), (512, 384), (512, 384), (512, 384), (512, 384), (512, 384), (512, 384), (512, 384), (512, 384), (512, 384), (512, 384), (512, 384), (512, 384), (512, 384), (512, 384), (512, 384), (512, 384), (512, 384), (512, 384), (512, 384), (512, 384), (512, 384), (512, 384), (509, 400), (500, 410), (486, 421), (460, 444), (404, 484), (365, 505), (325, 527), (295, 544)]",143.59763913886277,"[3, 6, 5, 7, 1, 2, 4, 9, 8]","(0, 0.25)",DOT002C,DOT,C,Chinese,Wed Sep 19 13:29:47 2018,Mouse
2,3,3,0,67,7,7,1,405,325,80,142,0,500,200,8000,"[(512, 384), (512, 384), (512, 384), (512, 384), (512, 384), (512, 384), (512, 384), (512, 384), (512, 384), (512, 384), (512, 384), (512, 384), (512, 384), (512, 384), (512, 384), (512, 384), (512, 384), (512, 384), (512, 384), (512, 384), (512, 384), (512, 384), (512, 384), (512, 384), (512, 384), (512, 384), (512, 384), (512, 384), (512, 384), (512, 384), (512, 384), (512, 384), (503, 391), (472, 415), (444, 436), (413, 458), (370, 491), (355, 503), (341, 514), (325, 528), (306, 545)]",141.990474343059,"[3, 6, 5, 7, 1, 2, 4, 9, 8]","(0, 0.25)",DOT002C,DOT,C,Chinese,Wed Sep 19 13:29:47 2018,Mouse
2,3,3,0,68,9,9,1,471,401,70,141,0,500,200,8000,"[(512, 384), (512, 384), (512, 384), (512, 384), (512, 384), (512, 384), (512, 384), (512, 384), (512, 384), (512, 384), (512, 384), (512, 384), (512, 384), (512, 384), (512, 384), (512, 384), (512, 384), (512, 384), (512, 384), (512, 384), (512, 384), (512, 384), (512, 384), (512, 384), (512, 384), (512, 384), (512, 384), (512, 384), (512, 384), (512, 384), (512, 384), (512, 384), (512, 384), (512, 384), (512, 384), (512, 384), (512, 384), (512, 384), (512, 384), (512, 384), (523, 368), (536, 352), (546, 340), (565, 319), (608, 279), (634, 256), (663, 231), (692, 207)]",315.48146580583835,"[3, 6, 5, 7, 1, 2, 4, 9, 8]","(0, 0.25)",DOT002C,DOT,C,Chinese,Wed Sep 19 13:29:47 2018,Mouse
2,3,3,0,69,7,7,1,1172,252,920,140,0,500,200,8000,"[(512, 384), (512, 384), (512, 384), (512, 384), (512, 384), (512, 384), (512, 384), (512, 384), (512, 384), (512, 384), (512, 384), (512, 384), (512, 384), (512, 384), (512, 384), (512, 384), (512, 384), (512, 384), (512, 384), (512, 384), (512, 384), (512, 384), (512, 384), (512, 384), (512, 384), (513, 383), (513, 383), (513, 389), (514, 396), (514, 416), (514, 426), (514, 437), (514, 446), (514, 465), (514, 475), (514, 485), (514, 497), (514, 519), (514, 529), (514, 539), (514, 546), (514, 558), (514, 561), (514, 564), (514, 566), (514, 567), (514, 568), (514, 568), (514, 568), (514, 568), (514, 568), (514, 568), (514, 568), (514, 568), (514, 568), (514, 568), (514, 568), (514, 568), (514, 568), (514, 568), (514, 568), (514, 568), (514, 568), (514, 568), (514, 568), (514, 568), (514, 568), (514, 568), (514, 568), (514, 568), (514, 568), (514, 568), (514, 568), (514, 568), (514, 568), (514, 568), (514, 568), (514, 568), (514, 568), (514, 568), (514, 568), (514, 568), (514, 568), (514, 568), (514, 568), (514, 568), (514, 568), (514, 568), (514, 568), (514, 568), (514, 568), (514, 568), (514, 568), (514, 568), (514, 568), (514, 568), (514, 568), (514, 568), (514, 568), (514, 568), (514, 568), (514, 568), (514, 568), (514, 568), (514, 568), (514, 568), (514, 568), (514, 568), (514, 568), (514, 568), (514, 568), (514, 568), (514, 569), (501, 576), (479, 587), (457, 595), (426, 605), (367, 622)]",121.35159896180492,"[3, 6, 5, 7, 1, 2, 4, 9, 8]","(0, 0.25)",DOT002C,DOT,C,Chinese,Wed Sep 19 13:29:47 2018,Mouse
2,3,3,0,70,7,5,0,-322,212,110,139,0,500,200,8000,"[(512, 384), (512, 384), (512, 384), (512, 384), (512, 384), (512, 384), (512, 384), (512, 384), (512, 384), (512, 384), (512, 384), (512, 384), (512, 384), (512, 384), (512, 384), (512, 384), (512, 384), (512, 384), (512, 384), (512, 384), (512, 384), (513, 392), (514, 403), (515, 414), (515, 440), (515, 455), (515, 470), (515, 488), (515, 530), (515, 550), (515, 578), (509, 613), (500, 662)]",92.4716647616334,"[3, 6, 5, 7, 1, 2, 4, 9, 8]","(0, 0.25)",DOT002C,DOT,C,Chinese,Wed Sep 19 13:29:47 2018,Mouse
2,3,3,0,71,7,7,1,322,12,310,140,0,500,200,8000,"[(508, 381), (505, 378), (502, 376), (499, 373), (493, 368), (491, 367), (490, 366), (490, 366), (489, 365), (489, 365), (489, 363), (489, 362), (487, 360), (487, 360), (487, 360), (487, 360), (487, 360), (487, 360), (487, 360), (487, 359), (487, 359), (487, 359), (487, 359), (487, 359), (485, 359), (481, 361), (477, 365), (473, 372), (452, 396), (426, 427), (391, 472), (346, 526), (234, 655)]",135.73050769426888,"[3, 6, 5, 7, 1, 2, 4, 9, 8]","(0, 0.25)",DOT002C,DOT,C,Chinese,Wed Sep 19 13:29:47 2018,Mouse
2,3,3,0,72,8,8,1,596,76,520,140,0,500,200,8000,"[(512, 384), (512, 384), (512, 384), (512, 384), (512, 384), (512, 384), (512, 384), (530, 377), (539, 374), (543, 372), (546, 372), (549, 371), (551, 371), (553, 370), (553, 370), (555, 370), (555, 370), (555, 370), (555, 370), (555, 370), (555, 370), (555, 370), (555, 370), (555, 370), (555, 370), (555, 370), (555, 370), (557, 370), (559, 369), (562, 368), (563, 367), (563, 367), (563, 367), (563, 367), (563, 367), (563, 367), (563, 367), (563, 367), (563, 367), (563, 367), (563, 367), (563, 367), (563, 367), (563, 367), (563, 367), (563, 367), (563, 367), (563, 367), (563, 367), (563, 367), (563, 367), (569, 365), (577, 363), (591, 358), (607, 355), (657, 340), (680, 333), (710, 326), (746, 315), (822, 293)]",343.6404836524816,"[3, 6, 5, 7, 1, 2, 4, 9, 8]","(0, 0.25)",DOT002C,DOT,C,Chinese,Wed Sep 19 13:29:47 2018,Mouse
2,3,3,0,73,3,6,0,-683,633,50,139,0,500,200,8000,"[(512, 384), (512, 384), (512, 384), (512, 384), (512, 384), (512, 384), (512, 384), (512, 384), (512, 384), (512, 384), (512, 384), (512, 384), (512, 384), (512, 384), (512, 384), (512, 384), (512, 384), (512, 384), (512, 384), (512, 384), (512, 384), (512, 384), (512, 384), (512, 384), (512, 384), (512, 384), (512, 384), (512, 384), (512, 384), (512, 384), (512, 384), (512, 384), (512, 384), (512, 384), (512, 384), (512, 384), (512, 384), (512, 384), (512, 384), (512, 384), (512, 384), (512, 384), (512, 384), (512, 384), (512, 384), (512, 384), (512, 384), (512, 384), (512, 384), (512, 384), (512, 384), (512, 384), (512, 384), (512, 384), (512, 384), (512, 384), (512, 384), (512, 384), (512, 384), (512, 384), (512, 384), (512, 384), (512, 384), (514, 396), (541, 443), (558, 470), (581, 506), (600, 534), (644, 598)]",58.33278357056383,"[3, 6, 5, 7, 1, 2, 4, 9, 8]","(0, 0.25)",DOT002C,DOT,C,Chinese,Wed Sep 19 13:29:47 2018,Mouse
2,3,3,0,74,1,5,0,-412,382,30,140,0,500,200,8000,"[(512, 384), (512, 384), (512, 384), (512, 384), (512, 384), (512, 384), (512, 384), (512, 384), (512, 384), (512, 384), (512, 384), (512, 384), (512, 384), (512, 384), (512, 384), (512, 384), (512, 384), (512, 384), (512, 384), (512, 384), (512, 384), (512, 384), (512, 384), (512, 384), (512, 384), (512, 384), (512, 384), (512, 384), (512, 384), (512, 384), (512, 384), (512, 384), (512, 384), (512, 384), (512, 384), (512, 384), (512, 384), (512, 384), (513, 391), (513, 522), (513, 591), (515, 655)]",89.36575528557388,"[3, 6, 5, 7, 1, 2, 4, 9, 8]","(0, 0.25)",DOT002C,DOT,C,Chinese,Wed Sep 19 13:29:47 2018,Mouse
2,3,3,0,75,2,3,0,-511,441,70,141,0,500,200,8000,"[(512, 384), (512, 384), (512, 384), (512, 384), (512, 384), (512, 384), (512, 384), (512, 384), (512, 384), (512, 384), (512, 384), (512, 384), (512, 384), (512, 384), (512, 384), (512, 384), (512, 384), (512, 384), (512, 384), (512, 384), (512, 384), (512, 384), (512, 384), (512, 384), (512, 384), (512, 384), (512, 384), (512, 384), (512, 384), (512, 384), (512, 384), (512, 384), (512, 384), (512, 384), (512, 384), (512, 384), (512, 384), (512, 384), (512, 384), (512, 384), (512, 384), (512, 384), (512, 384), (512, 384), (513, 385), (524, 389), (536, 390), (591, 406), (634, 415), (676, 426), (723, 442), (820, 454)]",12.804266065286752,"[3, 6, 5, 7, 1, 2, 4, 9, 8]","(0, 0.25)",DOT002C,DOT,C,Chinese,Wed Sep 19 13:29:47 2018,Mouse
2,3,3,0,76,8,3,0,-362,282,80,142,0,500,200,8000,"[(512, 384), (512, 384), (512, 384), (512, 384), (512, 384), (512, 384), (512, 384), (512, 384), (512, 384), (512, 384), (512, 384), (512, 384), (512, 384), (512, 384), (512, 384), (512, 384), (512, 384), (512, 384), (512, 384), (512, 384), (512, 384), (512, 384), (512, 384), (512, 384), (512, 384), (512, 384), (512, 384), (512, 384), (543, 402), (562, 412), (583, 421), (601, 429), (658, 451), (689, 462), (715, 470), (742, 476), (782, 490)]",21.43460412941803,"[3, 6, 5, 7, 1, 2, 4, 9, 8]","(0, 0.25)",DOT002C,DOT,C,Chinese,Wed Sep 19 13:29:47 2018,Mouse
2,3,3,0,77,5,7,0,-1012,582,430,143,0,500,200,8000,"[(512, 384), (512, 384), (512, 384), (512, 384), (512, 384), (512, 384), (512, 384), (512, 384), (512, 384), (512, 384), (512, 384), (512, 384), (512, 384), (512, 384), (512, 384), (512, 384), (512, 384), (512, 384), (512, 384), (512, 384), (512, 384), (512, 384), (512, 384), (512, 384), (512, 384), (512, 384), (512, 384), (512, 384), (512, 384), (512, 384), (512, 384), (512, 384), (512, 384), (512, 384), (512, 384), (512, 384), (512, 384), (512, 384), (512, 384), (512, 384), (512, 384), (512, 384), (512, 384), (512, 384), (512, 384), (512, 384), (512, 384), (512, 384), (512, 384), (512, 384), (512, 384), (512, 384), (512, 384), (512, 384), (512, 384), (512, 384), (512, 384), (512, 384), (511, 384), (510, 384), (509, 384), (509, 384), (509, 384), (509, 384), (509, 384), (509, 384), (509, 384), (509, 384), (508, 384), (505, 388), (501, 393), (500, 394), (499, 395), (498, 396), (498, 396), (498, 396), (498, 396), (498, 396), (498, 396), (498, 396), (496, 399), (495, 399), (495, 400), (493, 402), (491, 404), (489, 405), (486, 407), (481, 411), (472, 417), (465, 421), (458, 425), (449, 430), (429, 442), (418, 447), (407, 454), (396, 461), (374, 482), (363, 494), (351, 507), (339, 522), (324, 541), (317, 551)]",139.42291142855035,"[3, 6, 5, 7, 1, 2, 4, 9, 8]","(0, 0.25)",DOT002C,DOT,C,Chinese,Wed Sep 19 13:29:47 2018,Mouse
2,3,3,0,78,3,6,0,-952,262,690,144,0,500,200,8000,"[(512, 384), (512, 384), (512, 384), (512, 384), (512, 384), (512, 384), (512, 384), (512, 384), (512, 384), (512, 384), (512, 384), (512, 384), (512, 384), (512, 384), (512, 384), (512, 384), (512, 384), (512, 384), (512, 384), (512, 384), (512, 384), (512, 384), (512, 384), (512, 384), (512, 384), (512, 384), (513, 384), (516, 384), (517, 384), (517, 384), (519, 384), (522, 386), (523, 387), (523, 387), (524, 387), (524, 387), (524, 387), (524, 387), (524, 387), (524, 387), (524, 387), (524, 387), (524, 387), (524, 387), (524, 387), (524, 387), (524, 387), (524, 387), (524, 387), (524, 387), (524, 387), (524, 387), (524, 387), (524, 387), (524, 387), (524, 387), (524, 387), (524, 387), (524, 387), (524, 387), (524, 387), (524, 387), (524, 387), (524, 387), (524, 387), (524, 387), (524, 387), (524, 387), (524, 387), (524, 387), (524, 387), (524, 387), (524, 387), (524, 387), (524, 387), (524, 387), (524, 387), (524, 387), (524, 387), (525, 387), (525, 387), (525, 389), (525, 396), (530, 413), (533, 420), (535, 426), (539, 435), (546, 451), (550, 458), (553, 467), (557, 479), (581, 523), (596, 550), (607, 574), (617, 597), (635, 641)]",64.4242595588851,"[3, 6, 5, 7, 1, 2, 4, 9, 8]","(0, 0.25)",DOT002C,DOT,C,Chinese,Wed Sep 19 13:29:47 2018,Mouse
2,3,3,0,79,5,5,1,913,833,80,145,0,500,200,8000,"[(512, 384), (512, 384), (512, 384), (512, 384), (512, 384), (512, 384), (512, 384), (512, 384), (512, 384), (512, 384), (512, 384), (512, 384), (512, 384), (512, 384), (512, 384), (512, 384), (512, 384), (512, 384), (512, 384), (512, 384), (512, 384), (512, 384), (512, 384), (512, 384), (512, 384), (512, 384), (512, 384), (512, 384), (512, 384), (512, 384), (512, 384), (512, 384), (512, 384), (512, 384), (512, 384), (512, 384), (512, 384), (512, 384), (512, 384), (512, 384), (512, 384), (512, 384), (512, 384), (512, 384), (512, 384), (512, 384), (512, 384), (512, 384), (512, 384), (512, 384), (512, 384), (512, 384), (512, 384), (512, 384), (512, 384), (512, 384), (512, 384), (512, 384), (512, 384), (512, 384), (512, 384), (512, 384), (512, 384), (512, 384), (512, 384), (512, 384), (512, 384), (512, 384), (512, 384), (512, 384), (512, 384), (512, 384), (512, 384), (512, 384), (512, 384), (512, 384), (512, 384), (512, 384), (512, 384), (512, 384), (512, 384), (512, 384), (512, 384), (513, 407), (514, 422), (517, 440), (518, 457), (518, 513), (514, 540), (508, 573), (501, 605), (494, 651)]",93.85680098558984,"[3, 6, 5, 7, 1, 2, 4, 9, 8]","(0, 0.25)",DOT002C,DOT,C,Chinese,Wed Sep 19 13:29:47 2018,Mouse
2,3,3,0,80,5,5,1,74,14,60,145,0,500,200,8000,"[(512, 401), (512, 420), (511, 443), (502, 510), (495, 533), (486, 563), (476, 594), (465, 631)]",100.77363818777619,"[3, 6, 5, 7, 1, 2, 4, 9, 8]","(0, 0.25)",DOT002C,DOT,C,Chinese,Wed Sep 19 13:29:47 2018,Mouse
2,3,3,0,81,7,1,0,-750,700,50,144,0,500,200,8000,"[(512, 384), (512, 384), (512, 384), (512, 384), (512, 384), (512, 384), (512, 384), (512, 384), (512, 384), (512, 384), (512, 384), (512, 384), (512, 384), (512, 384), (512, 384), (512, 384), (512, 384), (512, 384), (512, 384), (512, 384), (512, 384), (512, 384), (512, 384), (512, 384), (512, 384), (512, 384), (512, 384), (512, 384), (512, 384), (512, 384), (512, 384), (512, 384), (512, 384), (512, 384), (512, 384), (512, 384), (512, 384), (512, 384), (512, 384), (512, 384), (512, 384), (512, 384), (512, 384), (512, 384), (512, 384), (512, 384), (512, 384), (512, 384), (512, 384), (512, 384), (512, 384), (512, 384), (512, 384), (512, 384), (512, 384), (512, 384), (512, 384), (512, 384), (512, 384), (512, 384), (512, 384), (512, 384), (512, 384), (512, 384), (512, 384), (512, 384), (512, 384), (512, 384), (512, 384), (508, 385), (490, 385), (456, 385), (365, 385), (317, 385), (259, 382)]",180.4529216289612,"[3, 6, 5, 7, 1, 2, 4, 9, 8]","(0, 0.25)",DOT002C,DOT,C,Chinese,Wed Sep 19 13:29:47 2018,Mouse
2,3,3,0,82,4,4,1,1132,1092,40,145,0,500,200,8000,"[(512, 384), (512, 384), (512, 384), (512, 384), (512, 384), (512, 384), (512, 384), (512, 384), (512, 384), (512, 384), (512, 384), (512, 384), (512, 384), (512, 384), (512, 384), (512, 384), (512, 384), (512, 384), (512, 384), (512, 384), (512, 384), (512, 384), (512, 384), (512, 384), (512, 384), (512, 384), (512, 384), (512, 384), (512, 384), (512, 384), (512, 384), (512, 384), (512, 384), (512, 384), (512, 384), (512, 384), (512, 384), (512, 384), (512, 384), (512, 384), (512, 384), (512, 384), (512, 384), (512, 384), (512, 384), (512, 384), (512, 384), (512, 384), (512, 384), (512, 384), (512, 384), (512, 384), (512, 384), (512, 384), (512, 384), (512, 384), (512, 384), (512, 384), (512, 384), (512, 384), (512, 384), (512, 384), (512, 384), (512, 384), (512, 384), (512, 384), (512, 384), (512, 384), (512, 384), (512, 384), (512, 384), (512, 384), (512, 384), (512, 384), (512, 384), (512, 384), (512, 384), (512, 384), (512, 384), (512, 384), (512, 384), (512, 384), (512, 384), (512, 384), (512, 384), (512, 384), (512, 384), (512, 384), (512, 384), (512, 384), (512, 384), (512, 384), (512, 384), (512, 384), (512, 384), (512, 384), (512, 384), (512, 384), (512, 384), (512, 384), (512, 384), (512, 384), (512, 384), (512, 384), (512, 384), (512, 384), (512, 384), (512, 384), (512, 384), (512, 373), (506, 270), (496, 207), (485, 147), (469, 86)]",261.7891615139638,"[3, 6, 5, 7, 1, 2, 4, 9, 8]","(0, 0.25)",DOT002C,DOT,C,Chinese,Wed Sep 19 13:29:47 2018,Mouse
2,3,3,0,83,2,6,0,-162,82,80,145,0,500,200,8000,"[(512, 384), (512, 384), (512, 384), (512, 384), (512, 384), (512, 384), (512, 384), (512, 384), (512, 390), (528, 421), (537, 433), (552, 455), (569, 476), (609, 520), (630, 542), (654, 564), (677, 584)]",50.47736872882888,"[3, 6, 5, 7, 1, 2, 4, 9, 8]","(0, 0.25)",DOT002C,DOT,C,Chinese,Wed Sep 19 13:29:47 2018,Mouse
2,3,3,0,84,9,9,1,322,272,50,146,0,500,200,8000,"[(512, 384), (512, 384), (512, 384), (512, 384), (512, 384), (512, 384), (512, 384), (512, 384), (512, 384), (512, 384), (512, 384), (512, 384), (512, 384), (512, 384), (512, 384), (512, 384), (512, 384), (512, 384), (512, 384), (512, 384), (512, 384), (512, 384), (512, 384), (512, 384), (512, 384), (512, 384), (512, 384), (514, 384), (527, 364), (579, 289), (611, 249), (647, 207), (732, 136)]",311.5761287550693,"[3, 6, 5, 7, 1, 2, 4, 9, 8]","(0, 0.25)",DOT002C,DOT,C,Chinese,Wed Sep 19 13:29:47 2018,Mouse
2,3,3,0,85,8,6,0,-363,283,80,146,0,500,200,8000,"[(512, 384), (512, 384), (512, 384), (512, 384), (512, 384), (512, 384), (512, 384), (512, 384), (512, 384), (512, 384), (512, 384), (512, 384), (512, 384), (512, 384), (512, 384), (512, 384), (512, 384), (512, 384), (512, 384), (512, 384), (512, 384), (512, 384), (512, 384), (512, 384), (512, 384), (512, 384), (512, 384), (512, 384), (514, 393), (519, 409), (522, 433), (528, 461), (550, 530), (558, 564), (570, 592), (579, 613), (602, 654)]",71.56505117707799,"[3, 6, 5, 7, 1, 2, 4, 9, 8]","(0, 0.25)",DOT002C,DOT,C,Chinese,Wed Sep 19 13:29:47 2018,Mouse
2,3,3,0,86,5,5,1,302,242,60,147,0,500,200,8000,"[(512, 384), (512, 384), (512, 384), (512, 384), (512, 384), (512, 384), (512, 384), (512, 384), (512, 384), (512, 384), (512, 384), (512, 384), (512, 384), (512, 384), (512, 384), (512, 384), (512, 384), (512, 384), (512, 384), (512, 384), (512, 384), (512, 384), (512, 384), (512, 384), (512, 393), (511, 411), (499, 440), (485, 469), (452, 554), (433, 597), (411, 645)]",111.15510096707095,"[3, 6, 5, 7, 1, 2, 4, 9, 8]","(0, 0.25)",DOT002C,DOT,C,Chinese,Wed Sep 19 13:29:47 2018,Mouse
2,3,3,0,87,7,7,1,751,261,490,147,0,500,200,8000,"[(512, 384), (512, 384), (512, 384), (512, 384), (512, 384), (512, 384), (512, 384), (512, 384), (512, 384), (512, 384), (512, 384), (512, 384), (512, 384), (512, 384), (512, 384), (512, 384), (512, 384), (512, 384), (512, 384), (512, 384), (512, 384), (512, 384), (512, 384), (512, 384), (512, 384), (512, 384), (511, 393), (508, 410), (507, 414), (507, 416), (507, 417), (506, 419), (506, 419), (506, 419), (506, 419), (506, 419), (506, 419), (506, 419), (506, 419), (506, 419), (506, 419), (506, 419), (506, 419), (506, 419), (506, 419), (506, 419), (506, 419), (506, 419), (506, 419), (506, 419), (506, 419), (506, 419), (506, 419), (506, 419), (506, 419), (506, 419), (506, 419), (506, 419), (506, 419), (506, 419), (506, 419), (506, 419), (506, 419), (504, 421), (499, 422), (495, 425), (490, 425), (476, 429), (469, 432), (460, 437), (453, 440), (427, 452), (411, 462), (384, 477), (357, 494), (306, 528)]",145.0453303694967,"[3, 6, 5, 7, 1, 2, 4, 9, 8]","(0, 0.25)",DOT002C,DOT,C,Chinese,Wed Sep 19 13:29:47 2018,Mouse
2,3,3,0,88,4,8,0,-802,712,90,146,0,500,200,8000,"[(512, 384), (512, 384), (512, 384), (512, 384), (512, 384), (512, 384), (512, 384), (512, 384), (512, 384), (512, 384), (512, 384), (512, 384), (512, 384), (512, 384), (512, 384), (512, 384), (512, 384), (512, 384), (512, 384), (512, 384), (512, 384), (512, 384), (512, 384), (512, 384), (512, 384), (512, 384), (512, 384), (512, 384), (512, 384), (512, 384), (512, 384), (512, 384), (512, 384), (512, 384), (512, 384), (512, 384), (512, 384), (512, 384), (512, 384), (512, 384), (512, 384), (512, 384), (512, 384), (512, 384), (512, 384), (512, 384), (512, 384), (512, 384), (512, 384), (512, 384), (512, 384), (512, 384), (512, 384), (512, 384), (512, 384), (512, 384), (512, 384), (512, 384), (512, 384), (512, 384), (512, 384), (512, 384), (512, 384), (512, 384), (512, 384), (512, 384), (512, 384), (512, 384), (512, 384), (512, 384), (512, 384), (513, 384), (518, 381), (522, 378), (531, 375), (541, 370), (584, 352), (618, 340), (663, 322), (715, 308), (833, 281)]",342.2100045674017,"[3, 6, 5, 7, 1, 2, 4, 9, 8]","(0, 0.25)",DOT002C,DOT,C,Chinese,Wed Sep 19 13:29:47 2018,Mouse
2,3,3,0,89,3,3,1,762,502,260,147,0,500,200,8000,"[(512, 384), (512, 384), (512, 384), (512, 384), (512, 384), (512, 384), (512, 384), (512, 384), (512, 384), (512, 384), (512, 384), (512, 384), (512, 384), (512, 384), (512, 384), (512, 384), (512, 384), (512, 384), (512, 384), (512, 384), (512, 384), (512, 384), (512, 384), (512, 384), (512, 384), (512, 384), (512, 384), (512, 384), (512, 384), (512, 384), (512, 384), (512, 384), (512, 384), (512, 384), (512, 384), (512, 384), (512, 384), (512, 384), (512, 384), (512, 384), (512, 384), (512, 384), (512, 384), (512, 384), (512, 384), (512, 384), (512, 384), (512, 384), (512, 384), (512, 384), (514, 384), (517, 385), (526, 393), (531, 397), (533, 399), (540, 405), (553, 416), (562, 424), (571, 431), (580, 437), (597, 448), (604, 453), (610, 457), (618, 462), (630, 468), (634, 471), (639, 474), (645, 478), (655, 486), (659, 489), (665, 493), (672, 495), (687, 501), (694, 504), (701, 507), (710, 510), (729, 519)]",31.886561770143313,"[3, 6, 5, 7, 1, 2, 4, 9, 8]","(0, 0.25)",DOT002C,DOT,C,Chinese,Wed Sep 19 13:29:47 2018,Mouse
2,3,3,0,90,4,4,1,1332,1302,30,147,0,500,200,8000,"[(512, 384), (512, 384), (512, 384), (512, 384), (512, 384), (512, 384), (512, 384), (512, 384), (512, 384), (512, 384), (512, 384), (512, 384), (512, 384), (512, 384), (512, 384), (512, 384), (512, 384), (512, 384), (512, 384), (512, 384), (512, 384), (512, 384), (512, 384), (512, 384), (512, 384), (512, 384), (512, 384), (512, 384), (512, 384), (512, 384), (512, 384), (512, 384), (512, 384), (512, 384), (512, 384), (512, 384), (512, 384), (512, 384), (512, 384), (512, 384), (512, 384), (512, 384), (512, 384), (512, 384), (512, 384), (512, 384), (512, 384), (512, 384), (512, 384), (512, 384), (512, 384), (512, 384), (512, 384), (512, 384), (512, 384), (512, 384), (512, 384), (512, 384), (512, 384), (512, 384), (512, 384), (512, 384), (512, 384), (512, 384), (512, 384), (512, 384), (512, 384), (512, 384), (512, 384), (512, 384), (512, 384), (512, 384), (512, 384), (512, 384), (512, 384), (512, 384), (512, 384), (512, 384), (512, 384), (512, 384), (512, 384), (512, 384), (512, 384), (512, 384), (512, 384), (512, 384), (512, 384), (512, 384), (512, 384), (512, 384), (512, 384), (512, 384), (512, 384), (512, 384), (512, 384), (512, 384), (512, 384), (512, 384), (512, 384), (512, 384), (512, 384), (512, 384), (512, 384), (512, 384), (512, 384), (512, 384), (512, 384), (512, 384), (512, 384), (512, 384), (512, 384), (512, 384), (512, 384), (512, 384), (512, 384), (512, 384), (512, 384), (512, 384), (512, 384), (512, 384), (512, 384), (512, 384), (512, 384), (512, 384), (512, 384), (512, 384), (512, 384), (512, 384), (512, 384), (512, 384), (502, 357), (464, 261), (439, 207), (409, 150)]",246.24230046930975,"[3, 6, 5, 7, 1, 2, 4, 9, 8]","(0, 0.25)",DOT002C,DOT,C,Chinese,Wed Sep 19 13:29:47 2018,Mouse
