NativeLangNumber,LanuageNumber,SessionNumber,Block,TrialNum,ConditionNumber,Response,Accuracy,RT,MovementOnsetTime,TimeInMotion,SignalContrast,SignalContrastNumber,StimDisplayTime,MaskTime,MaxResponseTime,MousePositionXY,MouseAngle,WheelOrder,NoiseMuSigma,ParticipantID,LanuageTested,SessionTested,NativeLanuage,Date,ResponseDevice
1,3,3,0,1,8,8,1,606,476,130,153,0,500,200,8000,"[(960, 540), (960, 540), (960, 540), (960, 540), (960, 540), (960, 540), (960, 540), (960, 540), (960, 540), (960, 540), (960, 540), (960, 540), (960, 540), (960, 540), (960, 540), (960, 540), (960, 540), (960, 540), (960, 540), (960, 540), (960, 540), (960, 540), (960, 540), (960, 540), (960, 540), (960, 540), (960, 540), (960, 540), (960, 540), (960, 540), (960, 540), (960, 540), (960, 540), (960, 540), (960, 540), (960, 540), (960, 540), (960, 540), (960, 540), (960, 540), (960, 540), (960, 540), (960, 540), (960, 540), (960, 540), (960, 540), (960, 540), (960, 536), (960, 528), (965, 521), (968, 510), (974, 490), (979, 478), (985, 463), (989, 447), (1003, 399), (1012, 366), (1021, 322), (1033, 275), (1060, 186), (1072, 137)]",285.5314434486611,"[6, 9, 1, 3, 5, 2, 7, 8, 4]","(0, 0.25)",DOT004C,DOT,C,English,Tue Aug 14 11:58:18 2018,Mouse
1,3,3,0,2,6,6,1,788,698,90,153,0,500,200,8000,"[(960, 540), (960, 540), (960, 540), (960, 540), (960, 540), (960, 540), (960, 540), (960, 540), (960, 540), (960, 540), (960, 540), (960, 540), (960, 540), (960, 540), (960, 540), (960, 540), (960, 540), (960, 540), (960, 540), (960, 540), (960, 540), (960, 540), (960, 540), (960, 540), (960, 540), (960, 540), (960, 540), (960, 540), (960, 540), (960, 540), (960, 540), (960, 540), (960, 540), (960, 540), (960, 540), (960, 540), (960, 540), (960, 540), (960, 540), (960, 540), (960, 540), (960, 540), (960, 540), (960, 540), (960, 540), (960, 540), (960, 540), (960, 540), (960, 540), (960, 540), (960, 540), (960, 540), (960, 540), (960, 540), (960, 540), (960, 540), (960, 540), (960, 540), (960, 540), (960, 540), (960, 540), (960, 540), (960, 540), (960, 540), (960, 540), (960, 540), (960, 540), (960, 540), (960, 540), (968, 541), (980, 544), (992, 547), (1014, 551), (1078, 559), (1126, 565), (1178, 573), (1226, 581), (1338, 599), (1398, 609)]",8.95247333415416,"[6, 9, 1, 3, 5, 2, 7, 8, 4]","(0, 0.25)",DOT004C,DOT,C,English,Tue Aug 14 11:58:18 2018,Mouse
1,3,3,0,3,2,2,1,1100,940,160,152,0,500,200,8000,"[(960, 540), (960, 540), (960, 540), (960, 540), (960, 540), (960, 540), (960, 540), (960, 540), (960, 540), (960, 540), (960, 540), (960, 540), (960, 540), (960, 540), (960, 540), (960, 540), (960, 540), (960, 540), (960, 540), (960, 540), (960, 540), (960, 540), (960, 540), (960, 540), (960, 540), (960, 540), (960, 540), (960, 540), (960, 540), (960, 540), (960, 540), (960, 540), (960, 540), (960, 540), (960, 540), (960, 540), (960, 540), (960, 540), (960, 540), (960, 540), (960, 540), (960, 540), (960, 540), (960, 540), (960, 540), (960, 540), (960, 540), (960, 540), (960, 540), (960, 540), (960, 540), (960, 540), (960, 540), (960, 540), (960, 540), (960, 540), (960, 540), (960, 540), (960, 540), (960, 540), (960, 540), (960, 540), (960, 540), (960, 540), (960, 540), (960, 540), (960, 540), (960, 540), (960, 540), (960, 540), (960, 540), (960, 540), (960, 540), (960, 540), (960, 540), (960, 540), (960, 540), (960, 540), (960, 540), (960, 540), (960, 540), (960, 540), (960, 540), (960, 540), (960, 540), (960, 540), (960, 540), (960, 540), (960, 540), (960, 540), (960, 540), (960, 540), (960, 540), (960, 539), (960, 539), (960, 537), (960, 534), (955, 527), (950, 522), (944, 516), (935, 510), (914, 493), (899, 482), (876, 466), (856, 449), (791, 403), (752, 375), (703, 344), (653, 316), (558, 261)]",214.76180233348703,"[6, 9, 1, 3, 5, 2, 7, 8, 4]","(0, 0.25)",DOT004C,DOT,C,English,Tue Aug 14 11:58:18 2018,Mouse
1,3,3,0,4,1,1,1,590,390,200,151,0,500,200,8000,"[(960, 540), (960, 540), (960, 540), (960, 540), (960, 540), (960, 540), (960, 540), (960, 540), (960, 540), (960, 540), (960, 540), (960, 540), (960, 540), (960, 540), (960, 540), (960, 540), (960, 540), (960, 540), (960, 540), (960, 540), (960, 540), (960, 540), (960, 540), (960, 540), (960, 540), (960, 540), (960, 540), (960, 540), (960, 540), (960, 540), (960, 540), (960, 540), (960, 540), (960, 540), (960, 540), (960, 540), (960, 540), (960, 540), (959, 543), (959, 549), (959, 555), (959, 563), (957, 581), (953, 591), (953, 602), (951, 614), (946, 647), (944, 663), (941, 684), (938, 713), (930, 763), (925, 790), (925, 813), (925, 835), (924, 878), (923, 895), (923, 909), (923, 920), (923, 940)]",95.28482109250902,"[6, 9, 1, 3, 5, 2, 7, 8, 4]","(0, 0.25)",DOT004C,DOT,C,English,Tue Aug 14 11:58:18 2018,Mouse
1,3,3,0,5,8,8,1,310,70,240,150,0,500,200,8000,"[(960, 540), (960, 540), (960, 540), (960, 540), (960, 540), (960, 540), (961, 540), (963, 537), (963, 533), (964, 528), (968, 518), (969, 514), (970, 508), (972, 504), (975, 495), (976, 491), (978, 487), (979, 485), (982, 476), (985, 471), (986, 468), (988, 462), (998, 446), (1003, 435), (1011, 422), (1021, 407), (1052, 360), (1069, 335), (1083, 303), (1108, 265), (1155, 183)]",298.64418289898276,"[6, 9, 1, 3, 5, 2, 7, 8, 4]","(0, 0.25)",DOT004C,DOT,C,English,Tue Aug 14 11:58:18 2018,Mouse
1,3,3,0,6,4,5,0,-681,591,90,149,0,500,200,8000,"[(960, 540), (960, 540), (960, 540), (960, 540), (960, 540), (960, 540), (960, 540), (960, 540), (960, 540), (960, 540), (960, 540), (960, 540), (960, 540), (960, 540), (960, 540), (960, 540), (960, 540), (960, 540), (960, 540), (960, 540), (960, 540), (960, 540), (960, 540), (960, 540), (960, 540), (960, 540), (960, 540), (960, 540), (960, 540), (960, 540), (960, 540), (960, 540), (960, 540), (960, 540), (960, 540), (960, 540), (960, 540), (960, 540), (960, 540), (960, 540), (960, 540), (960, 540), (960, 540), (960, 540), (960, 540), (960, 540), (960, 540), (960, 540), (960, 540), (960, 540), (960, 540), (960, 540), (960, 540), (960, 540), (960, 540), (960, 540), (960, 540), (960, 540), (960, 540), (957, 542), (942, 542), (920, 545), (883, 550), (780, 550), (728, 550), (678, 550), (625, 550), (561, 550), (541, 550)]",178.63281850545687,"[6, 9, 1, 3, 5, 2, 7, 8, 4]","(0, 0.25)",DOT004C,DOT,C,English,Tue Aug 14 11:58:18 2018,Mouse
1,3,3,0,7,3,3,1,788,618,170,150,0,500,200,8000,"[(960, 540), (960, 540), (960, 540), (960, 540), (960, 540), (960, 540), (960, 540), (960, 540), (960, 540), (960, 540), (960, 540), (960, 540), (960, 540), (960, 540), (960, 540), (960, 540), (960, 540), (960, 540), (960, 540), (960, 540), (960, 540), (960, 540), (960, 540), (960, 540), (960, 540), (960, 540), (960, 540), (960, 540), (960, 540), (960, 540), (960, 540), (960, 540), (960, 540), (960, 540), (960, 540), (960, 540), (960, 540), (960, 540), (960, 540), (960, 540), (960, 540), (960, 540), (960, 540), (960, 540), (960, 540), (960, 540), (960, 540), (960, 540), (960, 540), (960, 540), (960, 540), (960, 540), (960, 540), (960, 540), (960, 540), (960, 540), (960, 540), (960, 540), (960, 540), (960, 540), (960, 540), (958, 543), (953, 550), (949, 556), (942, 564), (932, 579), (925, 585), (917, 596), (911, 603), (899, 618), (893, 628), (889, 638), (880, 654), (855, 686), (836, 704), (807, 732), (768, 759), (686, 808), (648, 829)]",137.19161424353246,"[6, 9, 1, 3, 5, 2, 7, 8, 4]","(0, 0.25)",DOT004C,DOT,C,English,Tue Aug 14 11:58:18 2018,Mouse
1,3,3,0,8,8,8,1,1130,690,440,150,0,500,200,8000,"[(960, 540), (960, 540), (960, 540), (960, 540), (960, 540), (960, 540), (960, 540), (960, 540), (960, 540), (960, 540), (960, 540), (960, 540), (960, 540), (960, 540), (960, 540), (960, 540), (960, 540), (960, 540), (960, 540), (960, 540), (960, 540), (960, 540), (960, 540), (960, 540), (960, 540), (960, 540), (960, 540), (960, 540), (960, 540), (960, 540), (960, 540), (960, 540), (960, 540), (960, 540), (960, 540), (960, 540), (960, 540), (960, 540), (960, 540), (960, 540), (960, 540), (960, 540), (960, 540), (960, 540), (960, 540), (960, 540), (960, 540), (960, 540), (960, 540), (960, 540), (960, 540), (960, 540), (960, 540), (960, 540), (960, 540), (960, 540), (960, 540), (960, 540), (960, 540), (960, 540), (960, 540), (960, 540), (960, 540), (960, 540), (960, 540), (960, 540), (960, 540), (960, 540), (962, 540), (964, 531), (967, 526), (968, 521), (970, 516), (973, 503), (976, 495), (978, 487), (980, 481), (986, 464), (988, 455), (991, 449), (994, 441), (999, 430), (1002, 424), (1004, 419), (1007, 413), (1013, 402), (1016, 396), (1019, 390), (1022, 384), (1027, 371), (1029, 364), (1032, 358), (1036, 350), (1041, 337), (1044, 330), (1048, 323), (1052, 313), (1060, 297), (1063, 289), (1065, 285), (1069, 277), (1075, 265), (1078, 259), (1080, 253), (1085, 246), (1090, 234), (1094, 226), (1099, 220), (1104, 211), (1115, 194), (1122, 186), (1127, 180), (1134, 170)]",295.1862067545043,"[6, 9, 1, 3, 5, 2, 7, 8, 4]","(0, 0.25)",DOT004C,DOT,C,English,Tue Aug 14 11:58:18 2018,Mouse
1,3,3,0,9,9,9,1,689,349,340,149,0,500,200,8000,"[(960, 540), (960, 540), (960, 540), (960, 540), (960, 540), (960, 540), (960, 540), (960, 540), (960, 540), (960, 540), (960, 540), (960, 540), (960, 540), (960, 540), (960, 540), (960, 540), (960, 540), (960, 540), (960, 540), (960, 540), (960, 540), (960, 540), (960, 540), (960, 540), (960, 540), (960, 540), (960, 540), (960, 540), (960, 540), (960, 540), (960, 540), (960, 540), (960, 540), (960, 540), (962, 540), (972, 554), (975, 559), (980, 564), (984, 568), (989, 574), (991, 579), (992, 580), (993, 582), (997, 587), (1000, 592), (1005, 598), (1011, 608), (1028, 629), (1042, 645), (1057, 663), (1071, 680), (1097, 711), (1108, 725), (1116, 734), (1124, 743), (1137, 761), (1144, 770), (1149, 780), (1156, 789), (1170, 810), (1174, 818), (1178, 825), (1180, 831), (1185, 842), (1188, 846), (1188, 849), (1189, 854), (1194, 863), (1196, 869)]",54.3471714998432,"[6, 9, 1, 3, 5, 2, 7, 8, 4]","(0, 0.25)",DOT004C,DOT,C,English,Tue Aug 14 11:58:18 2018,Mouse
1,3,3,0,10,9,9,1,350,30,320,148,0,500,200,8000,"[(960, 540), (960, 540), (959, 540), (959, 542), (962, 546), (967, 552), (972, 559), (979, 569), (987, 579), (1005, 600), (1014, 610), (1023, 620), (1031, 632), (1049, 654), (1055, 665), (1062, 676), (1068, 685), (1080, 706), (1086, 713), (1091, 722), (1095, 728), (1100, 737), (1103, 742), (1104, 746), (1105, 751), (1110, 762), (1115, 772), (1120, 785), (1126, 799), (1138, 823), (1144, 836), (1151, 849), (1156, 859), (1167, 877), (1173, 885)]",58.309178695400476,"[6, 9, 1, 3, 5, 2, 7, 8, 4]","(0, 0.25)",DOT004C,DOT,C,English,Tue Aug 14 11:58:18 2018,Mouse
1,3,3,0,11,6,6,1,1000,920,80,147,0,500,200,8000,"[(960, 540), (960, 540), (960, 540), (960, 540), (960, 540), (960, 540), (960, 540), (960, 540), (960, 540), (960, 540), (960, 540), (960, 540), (960, 540), (960, 540), (960, 540), (960, 540), (960, 540), (960, 540), (960, 540), (960, 540), (960, 540), (960, 540), (960, 540), (960, 540), (960, 540), (960, 540), (960, 540), (960, 540), (960, 540), (960, 540), (960, 540), (960, 540), (960, 540), (960, 540), (960, 540), (960, 540), (960, 540), (960, 540), (960, 540), (960, 540), (960, 540), (960, 540), (960, 540), (960, 540), (960, 540), (960, 540), (960, 540), (960, 540), (960, 540), (960, 540), (960, 540), (960, 540), (960, 540), (960, 540), (960, 540), (960, 540), (960, 540), (960, 540), (960, 540), (960, 540), (960, 540), (960, 540), (960, 540), (960, 540), (960, 540), (960, 540), (960, 540), (960, 540), (960, 540), (960, 540), (960, 540), (960, 540), (960, 540), (960, 540), (960, 540), (960, 540), (960, 540), (960, 540), (960, 540), (960, 540), (960, 540), (960, 540), (960, 540), (960, 540), (960, 540), (960, 540), (960, 540), (960, 540), (960, 540), (960, 540), (960, 540), (963, 544), (978, 550), (1032, 570), (1064, 584), (1107, 601), (1155, 621), (1261, 663), (1314, 677), (1367, 695)]",20.848603765611482,"[6, 9, 1, 3, 5, 2, 7, 8, 4]","(0, 0.25)",DOT004C,DOT,C,English,Tue Aug 14 11:58:18 2018,Mouse
1,3,3,0,12,7,7,1,851,511,340,146,0,500,200,8000,"[(960, 540), (960, 540), (960, 540), (960, 540), (960, 540), (960, 540), (960, 540), (960, 540), (960, 540), (960, 540), (960, 540), (960, 540), (960, 540), (960, 540), (960, 540), (960, 540), (960, 540), (960, 540), (960, 540), (960, 540), (960, 540), (960, 540), (960, 540), (960, 540), (960, 540), (960, 540), (960, 540), (960, 540), (960, 540), (960, 540), (960, 540), (960, 540), (960, 540), (960, 540), (960, 540), (960, 540), (960, 540), (960, 540), (960, 540), (960, 540), (960, 540), (960, 540), (960, 540), (960, 540), (960, 540), (960, 540), (960, 540), (960, 540), (960, 540), (960, 540), (960, 540), (958, 535), (956, 527), (954, 509), (953, 499), (951, 489), (950, 479), (945, 456), (943, 443), (943, 427), (943, 415), (942, 386), (938, 370), (937, 357), (933, 341), (926, 317), (924, 306), (922, 295), (921, 285), (919, 269), (917, 262), (916, 252), (916, 246), (914, 232), (912, 228), (911, 222), (910, 216), (906, 204), (905, 199), (902, 193), (901, 184), (896, 168), (894, 160), (892, 153), (890, 147), (887, 134)]",259.8069621524521,"[6, 9, 1, 3, 5, 2, 7, 8, 4]","(0, 0.25)",DOT004C,DOT,C,English,Tue Aug 14 11:58:18 2018,Mouse
1,3,3,0,13,7,7,1,190,20,170,145,0,500,200,8000,"[(967, 518), (976, 485), (983, 421), (986, 398), (990, 371), (990, 340), (992, 297), (992, 278), (992, 258), (992, 238), (992, 211), (992, 199), (991, 189), (990, 181), (985, 165), (984, 158), (982, 151), (979, 144), (975, 128)]",272.08509043528295,"[6, 9, 1, 3, 5, 2, 7, 8, 4]","(0, 0.25)",DOT004C,DOT,C,English,Tue Aug 14 11:58:18 2018,Mouse
1,3,3,0,14,7,7,1,549,319,230,144,0,500,200,8000,"[(960, 540), (960, 540), (960, 540), (960, 540), (960, 540), (960, 540), (960, 540), (960, 540), (960, 540), (960, 540), (960, 540), (960, 540), (960, 540), (960, 540), (960, 540), (960, 540), (960, 540), (960, 540), (960, 540), (960, 540), (960, 540), (960, 540), (960, 540), (960, 540), (960, 540), (960, 540), (960, 540), (960, 540), (960, 540), (960, 540), (960, 540), (961, 540), (961, 539), (961, 536), (961, 529), (961, 525), (961, 521), (961, 517), (961, 503), (961, 496), (961, 488), (961, 481), (961, 456), (960, 441), (958, 423), (952, 396), (940, 339), (932, 306), (925, 278), (917, 250), (903, 203), (898, 183), (894, 171), (891, 158), (883, 140)]",259.1038478588589,"[6, 9, 1, 3, 5, 2, 7, 8, 4]","(0, 0.25)",DOT004C,DOT,C,English,Tue Aug 14 11:58:18 2018,Mouse
1,3,3,0,15,2,2,1,1290,750,540,143,0,500,200,8000,"[(960, 540), (960, 540), (960, 540), (960, 540), (960, 540), (960, 540), (960, 540), (960, 540), (960, 540), (960, 540), (960, 540), (960, 540), (960, 540), (960, 540), (960, 540), (960, 540), (960, 540), (960, 540), (960, 540), (960, 540), (960, 540), (960, 540), (960, 540), (960, 540), (960, 540), (960, 540), (960, 540), (960, 540), (960, 540), (960, 540), (960, 540), (960, 540), (960, 540), (960, 540), (960, 540), (960, 540), (960, 540), (960, 540), (960, 540), (960, 540), (960, 540), (960, 540), (960, 540), (960, 540), (960, 540), (960, 540), (960, 540), (960, 540), (960, 540), (960, 540), (960, 540), (960, 540), (960, 540), (960, 540), (960, 540), (960, 540), (960, 540), (960, 540), (960, 540), (960, 540), (960, 540), (960, 540), (960, 540), (960, 540), (960, 540), (960, 540), (960, 540), (960, 540), (960, 540), (960, 540), (960, 540), (960, 540), (960, 540), (960, 540), (959, 536), (959, 536), (959, 536), (959, 534), (959, 534), (959, 534), (959, 534), (959, 534), (959, 534), (959, 534), (959, 534), (959, 534), (959, 534), (959, 534), (959, 534), (959, 534), (959, 534), (959, 534), (959, 534), (958, 533), (958, 533), (958, 533), (958, 533), (958, 533), (958, 533), (958, 533), (958, 533), (958, 533), (958, 533), (958, 532), (958, 531), (958, 528), (954, 519), (952, 514), (949, 507), (944, 497), (934, 477), (927, 465), (920, 455), (910, 442), (887, 413), (868, 395), (851, 382), (832, 370), (792, 341), (777, 329), (763, 320), (749, 309), (726, 295), (716, 289), (710, 283), (703, 280), (685, 272), (675, 267), (668, 264)]",223.3864610671188,"[6, 9, 1, 3, 5, 2, 7, 8, 4]","(0, 0.25)",DOT004C,DOT,C,English,Tue Aug 14 11:58:18 2018,Mouse
1,3,3,0,16,5,5,1,451,131,320,142,0,500,200,8000,"[(960, 540), (960, 540), (960, 540), (960, 540), (960, 540), (960, 540), (960, 540), (960, 540), (960, 540), (960, 540), (960, 540), (960, 540), (960, 540), (960, 539), (960, 538), (960, 538), (959, 537), (959, 537), (958, 537), (958, 537), (958, 537), (956, 537), (956, 537), (955, 537), (953, 537), (949, 537), (948, 537), (946, 537), (942, 537), (932, 537), (926, 537), (917, 537), (907, 539), (886, 545), (873, 547), (862, 549), (850, 550), (820, 551), (804, 551), (784, 551), (762, 551), (700, 551), (667, 551), (628, 551), (590, 545), (523, 535)]",180.65552951359032,"[6, 9, 1, 3, 5, 2, 7, 8, 4]","(0, 0.25)",DOT004C,DOT,C,English,Tue Aug 14 11:58:18 2018,Mouse
1,3,3,0,17,2,2,1,821,581,240,141,0,500,200,8000,"[(960, 540), (960, 540), (960, 540), (960, 540), (960, 540), (960, 540), (960, 540), (960, 540), (960, 540), (960, 540), (960, 540), (960, 540), (960, 540), (960, 540), (960, 540), (960, 540), (960, 540), (960, 540), (960, 540), (960, 540), (960, 540), (960, 540), (960, 540), (960, 540), (960, 540), (960, 540), (960, 540), (960, 540), (960, 540), (960, 540), (960, 540), (960, 540), (960, 540), (960, 540), (960, 540), (960, 540), (960, 540), (960, 540), (960, 540), (960, 540), (960, 540), (960, 540), (960, 540), (960, 540), (960, 540), (960, 540), (960, 540), (960, 540), (960, 540), (960, 540), (960, 540), (960, 540), (960, 540), (960, 540), (960, 540), (960, 540), (960, 540), (960, 540), (959, 538), (952, 530), (949, 525), (946, 521), (940, 513), (930, 502), (918, 491), (908, 484), (890, 472), (849, 446), (824, 431), (797, 416), (780, 405), (747, 378), (735, 366), (724, 356), (717, 348), (704, 332), (699, 327), (692, 320), (686, 316), (670, 305), (661, 301), (651, 297), (643, 295)]",217.69938417612082,"[6, 9, 1, 3, 5, 2, 7, 8, 4]","(0, 0.25)",DOT004C,DOT,C,English,Tue Aug 14 11:58:18 2018,Mouse
1,3,3,0,18,5,5,1,1101,701,400,140,0,500,200,8000,"[(960, 540), (960, 540), (960, 540), (960, 540), (960, 540), (960, 540), (960, 540), (960, 540), (960, 540), (960, 540), (960, 540), (960, 540), (960, 540), (960, 540), (960, 540), (960, 540), (960, 540), (960, 540), (960, 540), (960, 540), (960, 540), (960, 540), (960, 540), (960, 540), (960, 540), (960, 540), (960, 540), (960, 540), (960, 540), (960, 540), (960, 540), (960, 540), (960, 540), (960, 540), (960, 540), (960, 540), (960, 540), (960, 540), (960, 540), (960, 540), (960, 540), (960, 540), (960, 540), (960, 540), (960, 540), (960, 540), (960, 540), (960, 540), (960, 540), (960, 540), (960, 540), (960, 540), (960, 540), (960, 540), (960, 540), (960, 540), (960, 540), (960, 540), (960, 540), (960, 540), (960, 540), (960, 540), (960, 540), (960, 540), (960, 540), (960, 540), (960, 540), (960, 540), (960, 540), (960, 540), (960, 539), (960, 538), (960, 538), (960, 538), (960, 538), (960, 538), (960, 538), (960, 538), (960, 538), (960, 538), (960, 538), (960, 538), (960, 538), (960, 538), (960, 538), (960, 538), (960, 538), (960, 538), (960, 538), (960, 538), (960, 538), (960, 538), (960, 538), (960, 538), (960, 538), (960, 538), (960, 538), (960, 538), (960, 538), (960, 538), (950, 538), (934, 538), (914, 538), (888, 535), (789, 525), (740, 519), (686, 511), (643, 505), (579, 495), (564, 494), (553, 493)]",186.58728791539875,"[6, 9, 1, 3, 5, 2, 7, 8, 4]","(0, 0.25)",DOT004C,DOT,C,English,Tue Aug 14 11:58:18 2018,Mouse
1,3,3,0,19,6,6,1,971,711,260,139,0,500,200,8000,"[(960, 540), (960, 540), (960, 540), (960, 540), (960, 540), (960, 540), (960, 540), (960, 540), (960, 540), (960, 540), (960, 540), (960, 540), (960, 540), (960, 540), (960, 540), (960, 540), (960, 540), (960, 540), (960, 540), (960, 540), (960, 540), (960, 540), (960, 540), (960, 540), (960, 540), (960, 540), (960, 540), (960, 540), (960, 540), (960, 540), (960, 540), (960, 540), (960, 540), (960, 540), (960, 540), (960, 540), (960, 540), (960, 540), (960, 540), (960, 540), (960, 540), (960, 540), (960, 540), (960, 540), (960, 540), (960, 540), (960, 540), (960, 540), (960, 540), (960, 540), (960, 540), (960, 540), (960, 540), (960, 540), (960, 540), (960, 540), (960, 540), (960, 540), (960, 540), (960, 540), (960, 540), (960, 540), (960, 540), (960, 540), (960, 540), (960, 540), (960, 540), (960, 540), (960, 540), (960, 540), (960, 540), (960, 541), (960, 541), (960, 541), (960, 541), (960, 541), (960, 541), (960, 541), (960, 541), (960, 541), (960, 541), (960, 541), (960, 541), (961, 542), (963, 543), (970, 546), (975, 550), (975, 553), (981, 557), (1027, 576), (1059, 590), (1087, 602), (1122, 618), (1192, 653), (1230, 674), (1275, 692), (1315, 709), (1383, 732)]",24.41333170502512,"[6, 9, 1, 3, 5, 2, 7, 8, 4]","(0, 0.25)",DOT004C,DOT,C,English,Tue Aug 14 11:58:18 2018,Mouse
1,3,3,0,20,5,5,1,500,290,210,138,0,500,200,8000,"[(960, 540), (960, 540), (960, 540), (960, 540), (960, 540), (960, 540), (960, 540), (960, 540), (960, 540), (960, 540), (960, 540), (960, 540), (960, 540), (960, 540), (960, 540), (960, 540), (960, 540), (960, 540), (960, 540), (960, 540), (960, 540), (960, 540), (960, 540), (960, 540), (960, 540), (960, 540), (960, 540), (960, 540), (958, 540), (957, 541), (956, 541), (956, 541), (956, 541), (956, 541), (954, 541), (953, 541), (950, 541), (945, 541), (933, 541), (923, 541), (911, 541), (899, 541), (871, 542), (852, 542), (830, 542), (796, 542), (702, 542), (641, 542), (580, 542), (522, 542)]",179.7383772543052,"[6, 9, 1, 3, 5, 2, 7, 8, 4]","(0, 0.25)",DOT004C,DOT,C,English,Tue Aug 14 11:58:18 2018,Mouse
1,3,3,0,21,6,6,1,1901,501,1400,137,0,500,200,8000,"[(960, 540), (960, 540), (960, 540), (960, 540), (960, 540), (960, 540), (960, 540), (960, 540), (960, 540), (960, 540), (960, 540), (960, 540), (960, 540), (960, 540), (960, 540), (960, 540), (960, 540), (960, 540), (960, 540), (960, 540), (960, 540), (960, 540), (960, 540), (960, 540), (960, 540), (960, 540), (960, 540), (960, 540), (960, 540), (960, 540), (960, 540), (960, 540), (960, 540), (960, 540), (960, 540), (960, 540), (960, 540), (960, 540), (960, 540), (960, 540), (960, 540), (960, 540), (960, 540), (960, 540), (960, 540), (960, 540), (960, 540), (960, 540), (960, 540), (960, 540), (960, 541), (956, 542), (952, 546), (949, 548), (947, 549), (944, 552), (941, 554), (940, 555), (940, 555), (940, 555), (940, 556), (940, 556), (940, 556), (940, 556), (940, 556), (940, 556), (940, 556), (940, 556), (940, 556), (940, 556), (940, 556), (940, 556), (940, 556), (940, 556), (940, 556), (940, 556), (940, 556), (940, 556), (940, 556), (940, 556), (940, 556), (940, 556), (940, 556), (940, 556), (940, 556), (940, 556), (940, 556), (940, 556), (940, 556), (940, 556), (940, 556), (940, 556), (940, 556), (940, 556), (938, 556), (937, 552), (935, 545), (933, 541), (933, 537), (932, 532), (929, 524), (928, 520), (927, 517), (927, 514), (924, 509), (924, 508), (924, 506), (923, 506), (923, 506), (923, 506), (923, 506), (923, 506), (923, 506), (923, 506), (923, 506), (923, 506), (923, 506), (923, 506), (923, 506), (923, 506), (922, 505), (922, 505), (922, 505), (922, 505), (921, 505), (921, 505), (921, 505), (921, 505), (921, 506), (921, 507), (921, 507), (921, 508), (921, 508), (921, 508), (921, 508), (921, 508), (921, 508), (921, 508), (921, 508), (921, 508), (921, 508), (921, 508), (921, 508), (921, 508), (921, 508), (921, 508), (921, 508), (921, 508), (921, 508), (921, 508), (921, 508), (921, 508), (921, 509), (921, 509), (921, 509), (921, 509), (921, 509), (921, 509), (921, 509), (921, 509), (921, 509), (921, 509), (921, 509), (921, 509), (921, 509), (921, 509), (921, 509), (921, 509), (921, 509), (921, 509), (921, 509), (921, 509), (921, 509), (921, 509), (921, 509), (921, 509), (921, 509), (921, 509), (921, 509), (921, 509), (921, 512), (926, 516), (935, 518), (953, 523), (1022, 542), (1069, 552), (1121, 562), (1170, 574), (1274, 598), (1324, 608), (1368, 619)]",10.958429034146862,"[6, 9, 1, 3, 5, 2, 7, 8, 4]","(0, 0.25)",DOT004C,DOT,C,English,Tue Aug 14 11:58:18 2018,Mouse
1,3,3,0,22,7,7,1,1091,451,640,136,0,500,200,8000,"[(960, 540), (960, 540), (960, 540), (960, 540), (960, 540), (960, 540), (960, 540), (960, 540), (960, 540), (960, 540), (960, 540), (960, 540), (960, 540), (960, 540), (960, 540), (960, 540), (960, 540), (960, 540), (960, 540), (960, 540), (960, 540), (960, 540), (960, 540), (960, 540), (960, 540), (960, 540), (960, 540), (960, 540), (960, 540), (960, 540), (960, 540), (960, 540), (960, 540), (960, 540), (960, 540), (960, 540), (960, 540), (960, 540), (960, 540), (960, 540), (960, 540), (960, 540), (960, 540), (960, 540), (960, 540), (949, 540), (939, 540), (924, 540), (907, 540), (883, 540), (874, 540), (870, 540), (869, 540), (868, 540), (868, 540), (868, 540), (867, 540), (867, 540), (867, 540), (867, 540), (866, 540), (866, 540), (866, 540), (866, 540), (866, 539), (866, 539), (866, 539), (866, 539), (866, 539), (866, 539), (866, 539), (866, 538), (866, 538), (866, 536), (866, 535), (866, 535), (867, 535), (867, 533), (867, 533), (870, 530), (870, 528), (873, 523), (874, 520), (875, 512), (875, 507), (876, 490), (876, 479), (876, 470), (876, 458), (876, 436), (873, 425), (872, 414), (871, 403), (868, 381), (865, 368), (862, 354), (859, 342), (849, 314), (845, 301), (842, 289), (841, 278), (838, 254), (837, 243), (836, 232), (833, 221), (833, 203), (833, 195), (833, 179), (831, 163), (826, 131)]",251.85973664372182,"[6, 9, 1, 3, 5, 2, 7, 8, 4]","(0, 0.25)",DOT004C,DOT,C,English,Tue Aug 14 11:58:18 2018,Mouse
1,3,3,0,23,4,6,0,-1110,680,430,135,0,500,200,8000,"[(960, 540), (960, 540), (960, 540), (960, 540), (960, 540), (960, 540), (960, 540), (960, 540), (960, 540), (960, 540), (960, 540), (960, 540), (960, 540), (960, 540), (960, 540), (960, 540), (960, 540), (960, 540), (960, 540), (960, 540), (960, 540), (960, 540), (960, 540), (960, 540), (960, 540), (960, 540), (960, 540), (960, 540), (960, 540), (960, 540), (960, 540), (960, 540), (960, 540), (960, 540), (960, 540), (960, 540), (960, 540), (960, 540), (960, 540), (960, 540), (960, 540), (960, 540), (960, 540), (960, 540), (960, 540), (960, 540), (960, 540), (960, 540), (960, 540), (960, 540), (960, 540), (960, 540), (960, 540), (960, 540), (960, 540), (960, 540), (960, 540), (960, 540), (960, 540), (960, 540), (960, 540), (960, 540), (960, 540), (960, 540), (960, 540), (960, 540), (960, 540), (960, 541), (961, 541), (962, 541), (965, 540), (966, 539), (967, 538), (969, 537), (970, 536), (970, 536), (970, 536), (970, 536), (970, 536), (970, 536), (970, 536), (970, 536), (970, 536), (970, 536), (970, 536), (972, 536), (973, 536), (973, 536), (974, 537), (975, 538), (976, 538), (976, 539), (976, 539), (977, 540), (978, 541), (980, 542), (980, 542), (982, 544), (993, 549), (1003, 554), (1017, 557), (1037, 562), (1085, 580), (1115, 585), (1148, 595), (1175, 607), (1230, 632), (1259, 642), (1285, 656), (1306, 664), (1358, 686)]",20.144762867063545,"[6, 9, 1, 3, 5, 2, 7, 8, 4]","(0, 0.25)",DOT004C,DOT,C,English,Tue Aug 14 11:58:18 2018,Mouse
1,3,3,0,24,1,1,1,871,271,600,136,0,500,200,8000,"[(960, 540), (960, 540), (960, 540), (960, 540), (960, 540), (960, 540), (960, 540), (960, 540), (960, 540), (960, 540), (960, 540), (960, 540), (960, 540), (960, 540), (960, 540), (960, 540), (960, 540), (960, 540), (960, 540), (960, 540), (960, 540), (960, 540), (960, 540), (960, 540), (960, 540), (960, 540), (960, 540), (959, 538), (957, 536), (956, 535), (955, 534), (950, 531), (948, 530), (946, 527), (942, 526), (939, 524), (938, 523), (937, 522), (937, 522), (937, 522), (937, 522), (937, 522), (935, 521), (935, 521), (935, 521), (935, 520), (935, 520), (935, 520), (933, 520), (933, 520), (933, 520), (932, 521), (931, 521), (931, 523), (931, 524), (931, 528), (931, 531), (931, 533), (931, 534), (931, 541), (931, 543), (931, 546), (931, 551), (933, 564), (933, 572), (933, 582), (933, 593), (933, 612), (933, 623), (933, 632), (931, 643), (926, 667), (922, 679), (919, 695), (913, 722), (911, 760), (911, 775), (911, 792), (911, 806), (911, 828), (911, 835), (909, 842), (908, 848), (908, 863), (908, 875), (908, 888), (908, 902), (911, 947)]",96.86497677502001,"[6, 9, 1, 3, 5, 2, 7, 8, 4]","(0, 0.25)",DOT004C,DOT,C,English,Tue Aug 14 11:58:18 2018,Mouse
1,3,3,0,25,9,9,1,800,470,330,136,0,500,200,8000,"[(960, 540), (960, 540), (960, 540), (960, 540), (960, 540), (960, 540), (960, 540), (960, 540), (960, 540), (960, 540), (960, 540), (960, 540), (960, 540), (960, 540), (960, 540), (960, 540), (960, 540), (960, 540), (960, 540), (960, 540), (960, 540), (960, 540), (960, 540), (960, 540), (960, 540), (960, 540), (960, 540), (960, 540), (960, 540), (960, 540), (960, 540), (960, 540), (960, 540), (960, 540), (960, 540), (960, 540), (960, 540), (960, 540), (960, 540), (960, 540), (960, 540), (960, 540), (960, 540), (960, 540), (960, 540), (960, 540), (960, 543), (960, 546), (961, 551), (961, 552), (964, 559), (965, 562), (968, 568), (970, 573), (979, 586), (982, 594), (990, 604), (996, 614), (1018, 640), (1027, 650), (1038, 663), (1050, 674), (1076, 698), (1085, 707), (1094, 716), (1101, 725), (1112, 737), (1117, 743), (1121, 748), (1127, 754), (1137, 770), (1143, 778), (1150, 788), (1155, 796), (1166, 816), (1172, 825), (1176, 835), (1181, 845), (1188, 863), (1193, 873)]",55.01952904125933,"[6, 9, 1, 3, 5, 2, 7, 8, 4]","(0, 0.25)",DOT004C,DOT,C,English,Tue Aug 14 11:58:18 2018,Mouse
1,3,3,0,26,5,5,1,540,180,360,135,0,500,200,8000,"[(960, 540), (960, 540), (960, 540), (960, 540), (960, 540), (960, 540), (960, 540), (960, 540), (960, 540), (960, 540), (960, 540), (960, 540), (960, 540), (960, 540), (960, 540), (960, 540), (960, 540), (959, 542), (959, 542), (959, 542), (959, 542), (959, 542), (959, 542), (959, 542), (959, 542), (959, 542), (959, 542), (959, 542), (959, 542), (959, 542), (959, 542), (959, 542), (959, 542), (959, 542), (959, 542), (959, 542), (959, 542), (957, 542), (953, 542), (946, 542), (939, 542), (924, 542), (909, 542), (887, 542), (862, 542), (781, 542), (737, 542), (700, 542), (659, 542), (609, 542), (592, 542), (579, 542), (569, 542), (553, 542)]",179.7184505241398,"[6, 9, 1, 3, 5, 2, 7, 8, 4]","(0, 0.25)",DOT004C,DOT,C,English,Tue Aug 14 11:58:18 2018,Mouse
1,3,3,0,27,3,3,1,949,629,320,134,0,500,200,8000,"[(960, 540), (960, 540), (960, 540), (960, 540), (960, 540), (960, 540), (960, 540), (960, 540), (960, 540), (960, 540), (960, 540), (960, 540), (960, 540), (960, 540), (960, 540), (960, 540), (960, 540), (960, 540), (960, 540), (960, 540), (960, 540), (960, 540), (960, 540), (960, 540), (960, 540), (960, 540), (960, 540), (960, 540), (960, 540), (960, 540), (960, 540), (960, 540), (960, 540), (960, 540), (960, 540), (960, 540), (960, 540), (960, 540), (960, 540), (960, 540), (960, 540), (960, 540), (960, 540), (960, 540), (960, 540), (960, 540), (960, 540), (960, 540), (960, 540), (960, 540), (960, 540), (960, 540), (960, 540), (960, 540), (960, 540), (960, 540), (960, 540), (960, 540), (960, 540), (960, 540), (960, 540), (960, 540), (961, 540), (961, 542), (960, 543), (955, 546), (943, 552), (933, 558), (927, 562), (918, 565), (899, 576), (889, 581), (879, 587), (869, 593), (857, 600), (849, 606), (845, 610), (840, 613), (834, 620), (832, 622), (830, 626), (828, 630), (822, 637), (815, 643), (811, 647), (802, 656), (784, 674), (774, 686), (761, 703), (746, 717), (714, 741), (698, 752), (678, 766), (658, 779), (617, 803)]",142.520313750381,"[6, 9, 1, 3, 5, 2, 7, 8, 4]","(0, 0.25)",DOT004C,DOT,C,English,Tue Aug 14 11:58:18 2018,Mouse
1,3,3,0,28,8,6,0,-1329,519,810,133,0,500,200,8000,"[(960, 540), (960, 540), (960, 540), (960, 540), (960, 540), (960, 540), (960, 540), (960, 540), (960, 540), (960, 540), (960, 540), (960, 540), (960, 540), (960, 540), (960, 540), (960, 540), (960, 540), (960, 540), (960, 540), (960, 540), (960, 540), (960, 540), (960, 540), (960, 540), (960, 540), (960, 540), (960, 540), (960, 540), (960, 540), (960, 540), (960, 540), (960, 540), (960, 540), (960, 540), (960, 540), (960, 540), (960, 540), (960, 540), (960, 540), (960, 540), (960, 540), (960, 540), (960, 540), (960, 540), (960, 540), (960, 540), (960, 540), (960, 540), (960, 540), (960, 540), (960, 540), (960, 541), (960, 542), (960, 545), (960, 548), (961, 550), (961, 550), (962, 552), (963, 553), (963, 553), (963, 553), (964, 554), (964, 554), (965, 555), (965, 555), (966, 555), (970, 556), (970, 556), (972, 556), (973, 556), (977, 556), (979, 556), (980, 556), (983, 557), (989, 558), (995, 558), (1001, 558), (1007, 558), (1019, 558), (1024, 558), (1027, 558), (1028, 558), (1035, 557), (1038, 554), (1041, 552), (1050, 548), (1062, 542), (1067, 539), (1073, 536), (1080, 533), (1098, 524), (1104, 521), (1113, 515), (1119, 511), (1130, 505), (1134, 503), (1139, 499), (1141, 497), (1146, 493), (1146, 492), (1147, 492), (1147, 491), (1147, 491), (1147, 491), (1147, 491), (1147, 491), (1147, 491), (1147, 491), (1147, 491), (1147, 491), (1147, 491), (1147, 491), (1147, 491), (1147, 491), (1147, 491), (1147, 493), (1147, 495), (1148, 499), (1150, 508), (1151, 513), (1154, 518), (1156, 526), (1162, 538), (1166, 546), (1171, 553), (1178, 562), (1198, 583), (1212, 596), (1235, 614), (1259, 636), (1305, 674), (1326, 691), (1340, 703)]",23.21678542555263,"[6, 9, 1, 3, 5, 2, 7, 8, 4]","(0, 0.25)",DOT004C,DOT,C,English,Tue Aug 14 11:58:18 2018,Mouse
1,3,3,0,29,8,6,0,-371,251,120,134,0,500,200,8000,"[(960, 540), (960, 540), (960, 540), (960, 540), (960, 540), (960, 540), (960, 540), (960, 540), (960, 540), (960, 540), (960, 540), (960, 540), (960, 540), (960, 540), (960, 540), (960, 540), (960, 540), (960, 540), (960, 540), (960, 540), (960, 540), (960, 540), (960, 540), (960, 540), (960, 540), (963, 544), (973, 552), (985, 559), (1001, 567), (1051, 586), (1082, 598), (1110, 608), (1147, 621), (1210, 645), (1247, 662), (1281, 673), (1314, 683), (1367, 698)]",21.216530309791235,"[6, 9, 1, 3, 5, 2, 7, 8, 4]","(0, 0.25)",DOT004C,DOT,C,English,Tue Aug 14 11:58:18 2018,Mouse
1,3,3,0,30,6,7,0,-700,520,180,135,0,500,200,8000,"[(960, 540), (960, 540), (960, 540), (960, 540), (960, 540), (960, 540), (960, 540), (960, 540), (960, 540), (960, 540), (960, 540), (960, 540), (960, 540), (960, 540), (960, 540), (960, 540), (960, 540), (960, 540), (960, 540), (960, 540), (960, 540), (960, 540), (960, 540), (960, 540), (960, 540), (960, 540), (960, 540), (960, 540), (960, 540), (960, 540), (960, 540), (960, 540), (960, 540), (960, 540), (960, 540), (960, 540), (960, 540), (960, 540), (960, 540), (960, 540), (960, 540), (960, 540), (960, 540), (960, 540), (960, 540), (960, 540), (960, 540), (960, 540), (960, 540), (960, 540), (960, 540), (960, 537), (959, 534), (959, 532), (956, 521), (955, 515), (952, 508), (951, 502), (945, 483), (939, 471), (936, 457), (931, 441), (916, 386), (905, 344), (892, 305), (881, 263), (862, 202), (853, 179), (847, 159), (844, 148)]",253.51554681046434,"[6, 9, 1, 3, 5, 2, 7, 8, 4]","(0, 0.25)",DOT004C,DOT,C,English,Tue Aug 14 11:58:18 2018,Mouse
1,3,3,0,31,6,6,1,280,110,170,136,0,500,200,8000,"[(960, 540), (960, 540), (960, 540), (960, 540), (960, 540), (960, 540), (960, 540), (960, 540), (960, 540), (960, 540), (960, 542), (968, 549), (976, 554), (985, 558), (995, 562), (1023, 569), (1035, 572), (1051, 575), (1064, 576), (1093, 581), (1113, 584), (1134, 586), (1157, 589), (1221, 605), (1254, 613), (1284, 622), (1317, 631), (1382, 650)]",14.609819429727136,"[6, 9, 1, 3, 5, 2, 7, 8, 4]","(0, 0.25)",DOT004C,DOT,C,English,Tue Aug 14 11:58:18 2018,Mouse
1,3,3,0,32,3,3,1,1731,1561,170,136,0,500,200,8000,"[(960, 540), (960, 540), (960, 540), (960, 540), (960, 540), (960, 540), (960, 540), (960, 540), (960, 540), (960, 540), (960, 540), (960, 540), (960, 540), (960, 540), (960, 540), (960, 540), (960, 540), (960, 540), (960, 540), (960, 540), (960, 540), (960, 540), (960, 540), (960, 540), (960, 540), (960, 540), (960, 540), (960, 540), (960, 540), (960, 540), (960, 540), (960, 540), (960, 540), (960, 540), (960, 540), (960, 540), (960, 540), (960, 540), (960, 540), (960, 540), (960, 540), (960, 540), (960, 540), (960, 540), (960, 540), (960, 540), (960, 540), (960, 540), (960, 540), (960, 540), (960, 540), (960, 540), (960, 540), (960, 540), (960, 540), (960, 540), (960, 540), (960, 540), (960, 540), (960, 540), (960, 540), (960, 540), (960, 540), (960, 540), (960, 540), (960, 540), (960, 540), (960, 540), (960, 540), (960, 540), (960, 540), (960, 540), (960, 540), (960, 540), (960, 540), (960, 540), (960, 540), (960, 540), (960, 540), (960, 540), (960, 540), (960, 540), (960, 540), (960, 540), (960, 540), (960, 540), (960, 540), (960, 540), (960, 540), (960, 540), (960, 540), (960, 540), (960, 540), (960, 540), (960, 540), (960, 540), (960, 540), (960, 540), (960, 540), (960, 540), (960, 540), (960, 540), (960, 540), (960, 540), (960, 540), (960, 540), (960, 540), (960, 540), (960, 540), (960, 540), (960, 540), (960, 540), (960, 540), (960, 540), (960, 540), (960, 540), (960, 540), (960, 540), (960, 540), (960, 540), (960, 540), (960, 540), (960, 540), (960, 540), (960, 540), (960, 540), (960, 540), (960, 540), (960, 540), (960, 540), (960, 540), (960, 540), (960, 540), (960, 540), (960, 540), (960, 540), (960, 540), (960, 540), (960, 540), (960, 540), (960, 540), (960, 540), (960, 540), (960, 540), (960, 540), (960, 540), (960, 540), (960, 540), (960, 540), (960, 540), (960, 540), (960, 540), (960, 540), (960, 540), (960, 540), (960, 540), (957, 544), (948, 549), (937, 556), (908, 572), (898, 578), (888, 584), (878, 589), (863, 598), (857, 602), (851, 606), (842, 613), (818, 631), (793, 646), (763, 663), (736, 679), (675, 720), (652, 736), (619, 760)]",147.1714582085875,"[6, 9, 1, 3, 5, 2, 7, 8, 4]","(0, 0.25)",DOT004C,DOT,C,English,Tue Aug 14 11:58:18 2018,Mouse
1,3,3,0,33,1,1,1,1110,660,450,135,0,500,200,8000,"[(960, 540), (960, 540), (960, 540), (960, 540), (960, 540), (960, 540), (960, 540), (960, 540), (960, 540), (960, 540), (960, 540), (960, 540), (960, 540), (960, 540), (960, 540), (960, 540), (960, 540), (960, 540), (960, 540), (960, 540), (960, 540), (960, 540), (960, 540), (960, 540), (960, 540), (960, 540), (960, 540), (960, 540), (960, 540), (960, 540), (960, 540), (960, 540), (960, 540), (960, 540), (960, 540), (960, 540), (960, 540), (960, 540), (960, 540), (960, 540), (960, 540), (960, 540), (960, 540), (960, 540), (960, 540), (960, 540), (960, 540), (960, 540), (960, 540), (960, 540), (960, 540), (960, 540), (960, 540), (960, 540), (960, 540), (960, 540), (960, 540), (960, 540), (960, 540), (960, 540), (960, 540), (960, 540), (960, 540), (960, 540), (960, 540), (960, 539), (960, 535), (955, 528), (942, 518), (928, 511), (917, 504), (904, 497), (887, 487), (880, 483), (877, 481), (875, 479), (874, 478), (874, 478), (874, 478), (874, 478), (874, 478), (874, 478), (874, 478), (874, 478), (873, 478), (873, 478), (873, 478), (873, 479), (873, 481), (873, 482), (873, 482), (873, 484), (874, 489), (878, 492), (880, 497), (882, 502), (891, 515), (897, 526), (900, 534), (905, 545), (915, 574), (920, 591), (921, 606), (922, 623), (922, 671), (922, 710), (922, 748), (922, 793), (916, 878), (909, 916), (905, 948)]",97.67741410003615,"[6, 9, 1, 3, 5, 2, 7, 8, 4]","(0, 0.25)",DOT004C,DOT,C,English,Tue Aug 14 11:58:18 2018,Mouse
1,3,3,0,34,6,6,1,520,230,290,134,0,500,200,8000,"[(960, 540), (960, 540), (960, 540), (960, 540), (960, 540), (960, 540), (960, 540), (960, 540), (960, 540), (960, 540), (960, 540), (960, 540), (960, 540), (960, 540), (960, 540), (960, 540), (960, 540), (960, 540), (960, 540), (960, 540), (960, 540), (960, 540), (960, 542), (967, 554), (1000, 583), (1022, 597), (1050, 614), (1079, 628), (1127, 651), (1147, 658), (1159, 663), (1168, 665), (1176, 667), (1176, 667), (1177, 667), (1177, 667), (1179, 667), (1179, 667), (1180, 667), (1183, 667), (1188, 667), (1198, 666), (1206, 666), (1214, 666), (1235, 665), (1246, 663), (1258, 663), (1268, 663), (1295, 663), (1309, 663), (1324, 663), (1344, 665)]",18.031148135334007,"[6, 9, 1, 3, 5, 2, 7, 8, 4]","(0, 0.25)",DOT004C,DOT,C,English,Tue Aug 14 11:58:18 2018,Mouse
1,3,3,0,35,2,2,1,680,220,460,133,0,500,200,8000,"[(960, 540), (960, 540), (960, 540), (960, 540), (960, 540), (960, 540), (960, 540), (960, 540), (960, 540), (960, 540), (960, 540), (960, 540), (960, 540), (960, 540), (960, 540), (960, 540), (960, 540), (960, 540), (960, 540), (960, 540), (960, 540), (959, 540), (959, 540), (958, 540), (958, 540), (958, 540), (958, 540), (958, 540), (958, 540), (958, 540), (958, 540), (958, 540), (958, 540), (956, 540), (954, 540), (951, 540), (948, 540), (943, 538), (939, 536), (920, 532), (909, 531), (896, 529), (882, 526), (855, 524), (844, 520), (834, 519), (824, 516), (814, 510), (811, 509), (807, 506), (802, 501), (794, 490), (788, 480), (782, 472), (776, 463), (758, 441), (747, 429), (740, 420), (729, 410), (712, 388), (703, 378), (696, 370), (687, 361), (670, 342), (663, 335), (652, 326), (641, 314), (620, 291)]",216.21729240529586,"[6, 9, 1, 3, 5, 2, 7, 8, 4]","(0, 0.25)",DOT004C,DOT,C,English,Tue Aug 14 11:58:18 2018,Mouse
1,3,3,0,36,5,7,0,-561,211,350,132,0,500,200,8000,"[(960, 540), (960, 540), (960, 540), (960, 540), (960, 540), (960, 540), (960, 540), (960, 540), (960, 540), (960, 540), (960, 540), (960, 540), (960, 540), (960, 540), (960, 540), (960, 540), (960, 540), (960, 540), (960, 540), (960, 540), (960, 540), (960, 539), (960, 537), (959, 536), (958, 534), (957, 534), (957, 533), (954, 529), (953, 527), (952, 526), (950, 524), (949, 521), (947, 517), (945, 513), (943, 507), (936, 488), (930, 476), (922, 457), (913, 434), (894, 390), (890, 368), (882, 343), (877, 323), (870, 298), (866, 288), (863, 277), (861, 269), (857, 254), (854, 244), (853, 233), (851, 223), (849, 204), (849, 194), (849, 186), (849, 176), (849, 161), (850, 154)]",254.09382091671273,"[6, 9, 1, 3, 5, 2, 7, 8, 4]","(0, 0.25)",DOT004C,DOT,C,English,Tue Aug 14 11:58:18 2018,Mouse
1,3,3,0,37,2,6,0,-441,290,151,133,0,500,200,8000,"[(960, 540), (960, 540), (960, 540), (960, 540), (960, 540), (960, 540), (960, 540), (960, 540), (960, 540), (960, 540), (960, 540), (960, 540), (960, 540), (960, 540), (960, 540), (960, 540), (960, 540), (960, 540), (960, 540), (960, 540), (960, 540), (960, 540), (960, 540), (960, 540), (960, 540), (960, 540), (960, 540), (960, 540), (961, 540), (970, 549), (979, 554), (991, 562), (1002, 568), (1029, 580), (1044, 586), (1065, 593), (1081, 597), (1137, 614), (1170, 622), (1215, 636), (1249, 641), (1306, 652), (1330, 655), (1345, 657)]",16.90382243927713,"[6, 9, 1, 3, 5, 2, 7, 8, 4]","(0, 0.25)",DOT004C,DOT,C,English,Tue Aug 14 11:58:18 2018,Mouse
1,3,3,0,38,8,9,0,-930,80,850,134,0,500,200,8000,"[(960, 540), (960, 540), (960, 540), (960, 540), (960, 540), (960, 540), (960, 540), (960, 539), (960, 539), (961, 539), (961, 539), (961, 539), (961, 539), (961, 537), (961, 537), (961, 537), (961, 537), (961, 537), (961, 537), (961, 537), (961, 537), (961, 537), (961, 537), (961, 537), (961, 537), (961, 537), (961, 537), (961, 537), (961, 537), (961, 537), (961, 537), (961, 537), (961, 537), (961, 537), (961, 537), (961, 537), (961, 537), (961, 537), (961, 537), (961, 537), (961, 537), (961, 537), (961, 537), (961, 537), (961, 537), (961, 537), (961, 537), (961, 537), (961, 537), (961, 537), (961, 537), (961, 537), (961, 537), (961, 537), (961, 537), (961, 537), (961, 537), (961, 537), (961, 537), (961, 537), (961, 537), (961, 537), (961, 537), (961, 537), (961, 537), (961, 537), (961, 537), (961, 537), (961, 537), (961, 537), (961, 537), (961, 537), (961, 537), (961, 537), (961, 537), (961, 537), (962, 544), (966, 550), (973, 559), (978, 567), (990, 587), (996, 594), (1004, 603), (1009, 612), (1021, 628), (1033, 644), (1049, 667), (1068, 692), (1116, 750), (1142, 779), (1166, 803), (1190, 827), (1217, 853)]",50.611052272544065,"[6, 9, 1, 3, 5, 2, 7, 8, 4]","(0, 0.25)",DOT004C,DOT,C,English,Tue Aug 14 11:58:18 2018,Mouse
1,3,3,0,39,8,8,1,1100,430,670,135,0,500,200,8000,"[(960, 540), (960, 540), (960, 540), (960, 540), (960, 540), (960, 540), (960, 540), (960, 540), (960, 540), (960, 540), (960, 540), (960, 540), (960, 540), (960, 540), (960, 540), (960, 540), (960, 540), (960, 540), (960, 540), (960, 540), (960, 540), (960, 540), (960, 540), (960, 540), (960, 540), (960, 540), (960, 540), (960, 540), (960, 540), (960, 540), (960, 540), (960, 540), (960, 540), (960, 540), (960, 540), (960, 540), (960, 540), (960, 540), (960, 540), (960, 540), (960, 540), (960, 540), (960, 538), (960, 536), (960, 535), (960, 535), (960, 533), (960, 532), (960, 532), (959, 532), (959, 532), (959, 532), (959, 532), (959, 532), (959, 532), (959, 532), (959, 532), (959, 532), (959, 532), (959, 532), (959, 532), (959, 532), (959, 532), (959, 532), (959, 532), (959, 532), (959, 532), (959, 532), (959, 532), (959, 532), (959, 532), (959, 532), (959, 532), (959, 532), (959, 532), (959, 532), (959, 532), (959, 532), (959, 532), (959, 532), (959, 532), (959, 532), (959, 532), (959, 532), (959, 532), (959, 532), (959, 532), (959, 532), (959, 532), (959, 532), (959, 532), (959, 532), (959, 530), (959, 524), (969, 502), (975, 493), (980, 482), (987, 472), (1001, 447), (1008, 434), (1013, 423), (1019, 404), (1031, 365), (1042, 339), (1048, 319), (1054, 297), (1079, 239), (1091, 213), (1102, 189), (1111, 166)]",291.9860637533888,"[6, 9, 1, 3, 5, 2, 7, 8, 4]","(0, 0.25)",DOT004C,DOT,C,English,Tue Aug 14 11:58:18 2018,Mouse
1,3,3,0,40,9,9,1,900,520,380,135,0,500,200,8000,"[(960, 540), (960, 540), (960, 540), (960, 540), (960, 540), (960, 540), (960, 540), (960, 540), (960, 540), (960, 540), (960, 540), (960, 540), (960, 540), (960, 540), (960, 540), (960, 540), (960, 540), (960, 540), (960, 540), (960, 540), (960, 540), (960, 540), (960, 540), (960, 540), (960, 540), (960, 540), (960, 540), (960, 540), (960, 540), (960, 540), (960, 540), (960, 540), (960, 540), (960, 540), (960, 540), (960, 540), (960, 540), (960, 540), (960, 540), (960, 540), (960, 540), (960, 540), (960, 540), (960, 540), (960, 540), (960, 540), (960, 540), (960, 540), (960, 540), (960, 540), (960, 540), (959, 541), (959, 541), (959, 541), (959, 542), (959, 548), (960, 551), (960, 554), (962, 557), (967, 564), (967, 567), (969, 568), (971, 571), (974, 576), (975, 577), (976, 579), (976, 579), (977, 579), (978, 580), (978, 580), (978, 580), (979, 582), (979, 582), (981, 584), (983, 586), (993, 596), (1002, 604), (1016, 615), (1031, 628), (1063, 651), (1078, 663), (1095, 676), (1113, 691), (1142, 726), (1158, 749), (1172, 769), (1188, 791), (1211, 827), (1219, 841), (1227, 859)]",50.0709848215496,"[6, 9, 1, 3, 5, 2, 7, 8, 4]","(0, 0.25)",DOT004C,DOT,C,English,Tue Aug 14 11:58:18 2018,Mouse
1,3,3,0,41,2,6,0,-378,228,150,134,0,500,200,8000,"[(960, 540), (960, 540), (960, 540), (960, 540), (960, 540), (960, 540), (960, 540), (960, 540), (960, 540), (960, 540), (960, 540), (960, 540), (960, 540), (960, 540), (960, 540), (960, 540), (960, 540), (960, 540), (960, 540), (960, 540), (960, 540), (960, 540), (963, 543), (971, 548), (987, 555), (995, 561), (1011, 571), (1032, 582), (1070, 604), (1091, 613), (1117, 624), (1140, 633), (1196, 650), (1216, 657), (1240, 666), (1269, 680), (1313, 698), (1336, 708)]",24.075498255078834,"[6, 9, 1, 3, 5, 2, 7, 8, 4]","(0, 0.25)",DOT004C,DOT,C,English,Tue Aug 14 11:58:18 2018,Mouse
1,3,3,0,42,1,5,0,-620,340,280,135,0,500,200,8000,"[(960, 540), (960, 540), (960, 540), (960, 540), (960, 540), (960, 540), (960, 540), (960, 540), (960, 540), (960, 540), (960, 540), (960, 540), (960, 540), (960, 540), (960, 540), (960, 540), (960, 540), (960, 540), (960, 540), (960, 540), (960, 540), (960, 540), (960, 540), (960, 540), (960, 540), (960, 540), (960, 540), (960, 540), (960, 540), (960, 540), (960, 540), (960, 540), (960, 540), (960, 539), (959, 539), (957, 539), (957, 539), (957, 539), (956, 539), (956, 539), (956, 539), (956, 539), (954, 539), (954, 539), (954, 539), (950, 539), (949, 539), (946, 539), (942, 539), (932, 539), (925, 539), (918, 538), (910, 537), (884, 537), (869, 536), (837, 530), (797, 524), (709, 515), (666, 509), (625, 504), (586, 504), (538, 501)]",185.28010935157766,"[6, 9, 1, 3, 5, 2, 7, 8, 4]","(0, 0.25)",DOT004C,DOT,C,English,Tue Aug 14 11:58:18 2018,Mouse
1,3,3,0,43,4,6,0,-1150,630,520,136,0,500,200,8000,"[(960, 540), (960, 540), (960, 540), (960, 540), (960, 540), (960, 540), (960, 540), (960, 540), (960, 540), (960, 540), (960, 540), (960, 540), (960, 540), (960, 540), (960, 540), (960, 540), (960, 540), (960, 540), (960, 540), (960, 540), (960, 540), (960, 540), (960, 540), (960, 540), (960, 540), (960, 540), (960, 540), (960, 540), (960, 540), (960, 540), (960, 540), (960, 540), (960, 540), (960, 540), (960, 540), (960, 540), (960, 540), (960, 540), (960, 540), (960, 540), (960, 540), (960, 540), (960, 540), (960, 540), (960, 540), (960, 540), (960, 540), (960, 540), (960, 540), (960, 540), (960, 540), (960, 540), (960, 540), (960, 540), (960, 540), (960, 540), (960, 540), (960, 540), (960, 540), (960, 540), (960, 540), (960, 540), (964, 543), (968, 546), (976, 549), (981, 552), (992, 554), (997, 556), (1004, 557), (1009, 557), (1015, 557), (1018, 557), (1019, 557), (1021, 556), (1025, 554), (1026, 553), (1026, 551), (1027, 551), (1028, 549), (1029, 548), (1030, 547), (1032, 545), (1036, 540), (1040, 536), (1044, 534), (1051, 532), (1064, 524), (1072, 522), (1081, 519), (1087, 518), (1100, 514), (1107, 512), (1111, 512), (1115, 512), (1123, 511), (1127, 511), (1132, 511), (1136, 511), (1146, 518), (1149, 521), (1156, 526), (1159, 529), (1171, 542), (1177, 550), (1184, 559), (1193, 568), (1211, 586), (1223, 595), (1234, 603), (1248, 613), (1283, 633), (1304, 642), (1317, 647), (1333, 654), (1355, 660)]",16.89864869403823,"[6, 9, 1, 3, 5, 2, 7, 8, 4]","(0, 0.25)",DOT004C,DOT,C,English,Tue Aug 14 11:58:18 2018,Mouse
1,3,3,0,44,9,9,1,469,199,270,137,0,500,200,8000,"[(960, 540), (960, 540), (960, 540), (960, 540), (960, 540), (960, 540), (960, 540), (960, 540), (960, 540), (960, 540), (960, 540), (960, 540), (960, 540), (960, 540), (960, 540), (960, 540), (960, 540), (960, 540), (960, 540), (960, 541), (960, 542), (960, 542), (960, 542), (960, 542), (960, 542), (960, 542), (961, 542), (961, 543), (963, 546), (964, 547), (971, 556), (977, 565), (981, 574), (987, 583), (997, 610), (1005, 625), (1017, 646), (1026, 665), (1055, 714), (1069, 741), (1091, 774), (1104, 801), (1124, 845), (1131, 860), (1136, 871), (1137, 881), (1143, 897)]",62.86009407067906,"[6, 9, 1, 3, 5, 2, 7, 8, 4]","(0, 0.25)",DOT004C,DOT,C,English,Tue Aug 14 11:58:18 2018,Mouse
1,3,3,0,45,1,1,1,800,150,650,137,0,500,200,8000,"[(961, 539), (961, 539), (961, 539), (961, 539), (961, 539), (961, 539), (961, 539), (961, 539), (961, 539), (961, 539), (961, 539), (961, 539), (961, 539), (961, 539), (961, 540), (961, 541), (961, 541), (961, 541), (960, 541), (960, 541), (960, 541), (960, 541), (958, 541), (956, 541), (955, 541), (953, 541), (951, 541), (950, 541), (949, 541), (948, 541), (942, 543), (940, 544), (937, 544), (934, 545), (927, 550), (925, 552), (923, 554), (921, 557), (919, 563), (917, 565), (915, 568), (914, 571), (912, 573), (912, 573), (912, 573), (912, 575), (912, 575), (912, 575), (912, 575), (912, 575), (912, 575), (912, 576), (912, 577), (912, 578), (912, 581), (912, 584), (910, 587), (909, 592), (908, 604), (905, 614), (903, 620), (900, 631), (894, 648), (892, 657), (888, 667), (883, 677), (875, 697), (872, 709), (869, 723), (866, 735), (865, 777), (865, 790), (865, 807), (865, 824), (865, 854), (865, 869), (865, 884), (865, 898), (867, 928), (869, 945)]",102.66355060567356,"[6, 9, 1, 3, 5, 2, 7, 8, 4]","(0, 0.25)",DOT004C,DOT,C,English,Tue Aug 14 11:58:18 2018,Mouse
1,3,3,0,46,7,7,1,1830,540,1290,136,0,500,200,8000,"[(960, 540), (960, 540), (960, 540), (960, 540), (960, 540), (960, 540), (960, 540), (960, 540), (960, 540), (960, 540), (960, 540), (960, 540), (960, 540), (960, 540), (960, 540), (960, 540), (960, 540), (960, 540), (960, 540), (960, 540), (960, 540), (960, 540), (960, 540), (960, 540), (960, 540), (960, 540), (960, 540), (960, 540), (960, 540), (960, 540), (960, 540), (960, 540), (960, 540), (960, 540), (960, 540), (960, 540), (960, 540), (960, 540), (960, 540), (960, 540), (960, 540), (960, 540), (960, 540), (960, 540), (960, 540), (960, 540), (960, 540), (960, 540), (960, 540), (960, 540), (960, 540), (960, 540), (960, 540), (960, 539), (959, 539), (953, 539), (942, 539), (912, 539), (898, 539), (882, 539), (868, 539), (849, 539), (843, 539), (839, 539), (838, 539), (837, 539), (837, 539), (837, 539), (837, 539), (837, 539), (837, 539), (837, 539), (837, 539), (837, 539), (837, 539), (837, 539), (837, 539), (837, 539), (837, 539), (837, 539), (837, 539), (839, 539), (839, 539), (840, 538), (840, 538), (842, 538), (842, 538), (843, 537), (843, 537), (843, 537), (843, 537), (845, 537), (845, 537), (848, 537), (851, 537), (854, 537), (857, 539), (862, 540), (865, 542), (868, 543), (869, 543), (873, 545), (874, 545), (874, 545), (874, 545), (874, 545), (874, 545), (874, 545), (874, 545), (875, 545), (876, 545), (877, 545), (878, 545), (879, 544), (880, 544), (880, 543), (881, 543), (884, 538), (886, 534), (889, 528), (892, 519), (896, 500), (897, 489), (898, 478), (900, 468), (901, 450), (902, 444), (902, 440), (902, 435), (902, 427), (902, 420), (902, 420), (902, 420), (902, 414), (902, 412), (900, 407), (899, 399), (894, 387), (892, 382), (891, 379), (891, 377), (891, 375), (891, 374), (891, 374), (891, 374), (891, 374), (891, 374), (891, 374), (891, 374), (891, 374), (891, 373), (891, 373), (891, 373), (891, 372), (891, 371), (891, 369), (891, 366), (891, 359), (891, 354), (891, 348), (891, 343), (889, 329), (887, 323), (884, 314), (881, 307), (879, 294), (877, 288), (877, 279), (877, 272), (878, 258), (879, 248), (881, 241), (883, 231), (884, 216), (885, 207), (887, 202), (888, 196), (891, 184), (892, 177), (895, 170), (897, 163), (900, 150), (902, 141)]",261.72922081292313,"[6, 9, 1, 3, 5, 2, 7, 8, 4]","(0, 0.25)",DOT004C,DOT,C,English,Tue Aug 14 11:58:18 2018,Mouse
1,3,3,0,47,3,2,0,-1179,749,430,135,0,500,200,8000,"[(960, 540), (960, 540), (960, 540), (960, 540), (960, 540), (960, 540), (960, 540), (960, 540), (960, 540), (960, 540), (960, 540), (960, 540), (960, 540), (960, 540), (960, 540), (960, 540), (960, 540), (960, 540), (960, 540), (960, 540), (960, 540), (960, 540), (960, 540), (960, 540), (960, 540), (960, 540), (960, 540), (960, 540), (960, 540), (960, 540), (960, 540), (960, 540), (960, 540), (960, 540), (960, 540), (960, 540), (960, 540), (960, 540), (960, 540), (960, 540), (960, 540), (960, 540), (960, 540), (960, 540), (960, 540), (960, 540), (960, 540), (960, 540), (960, 540), (960, 540), (960, 540), (960, 540), (960, 540), (960, 540), (960, 540), (960, 540), (960, 540), (960, 540), (960, 540), (960, 540), (960, 540), (960, 540), (960, 540), (960, 540), (960, 540), (960, 540), (960, 540), (960, 540), (960, 540), (960, 540), (960, 540), (960, 540), (960, 540), (960, 540), (961, 540), (962, 540), (962, 540), (965, 539), (966, 539), (966, 539), (967, 539), (968, 539), (968, 538), (968, 538), (969, 538), (969, 538), (969, 538), (969, 538), (969, 538), (969, 538), (969, 538), (969, 538), (969, 538), (969, 538), (969, 538), (969, 538), (969, 538), (969, 538), (969, 538), (969, 538), (969, 538), (969, 534), (966, 531), (961, 524), (954, 519), (934, 504), (921, 497), (906, 491), (889, 484), (841, 462), (811, 444), (774, 427), (744, 410), (688, 371), (665, 355), (645, 340), (630, 326), (617, 310)]",213.84398462923681,"[6, 9, 1, 3, 5, 2, 7, 8, 4]","(0, 0.25)",DOT004C,DOT,C,English,Tue Aug 14 11:58:18 2018,Mouse
1,3,3,0,48,9,9,1,461,291,170,136,0,500,200,8000,"[(960, 540), (960, 540), (960, 540), (960, 540), (960, 540), (960, 540), (960, 540), (960, 540), (960, 540), (960, 540), (960, 540), (960, 540), (960, 540), (960, 540), (960, 540), (960, 540), (960, 540), (960, 540), (960, 540), (960, 540), (960, 540), (960, 540), (960, 540), (960, 540), (960, 540), (960, 540), (960, 540), (960, 540), (960, 540), (962, 541), (964, 544), (970, 552), (976, 558), (988, 571), (1014, 594), (1072, 642), (1096, 664), (1118, 680), (1139, 698), (1173, 732), (1185, 745), (1196, 762), (1205, 776), (1218, 803), (1226, 817), (1230, 829), (1232, 842)]",47.991830745969004,"[6, 9, 1, 3, 5, 2, 7, 8, 4]","(0, 0.25)",DOT004C,DOT,C,English,Tue Aug 14 11:58:18 2018,Mouse
1,3,3,0,49,1,1,1,1490,1190,300,136,0,500,200,8000,"[(960, 540), (960, 540), (960, 540), (960, 540), (960, 540), (960, 540), (960, 540), (960, 540), (960, 540), (960, 540), (960, 540), (960, 540), (960, 540), (960, 540), (960, 540), (960, 540), (960, 540), (960, 540), (960, 540), (960, 540), (960, 540), (960, 540), (960, 540), (960, 540), (960, 540), (960, 540), (960, 540), (960, 540), (960, 540), (960, 540), (960, 540), (960, 540), (960, 540), (960, 540), (960, 540), (960, 540), (960, 540), (960, 540), (960, 540), (960, 540), (960, 540), (960, 540), (960, 540), (960, 540), (960, 540), (960, 540), (960, 540), (960, 540), (960, 540), (960, 540), (960, 540), (960, 540), (960, 540), (960, 540), (960, 540), (960, 540), (960, 540), (960, 540), (960, 540), (960, 540), (960, 540), (960, 540), (960, 540), (960, 540), (960, 540), (960, 540), (960, 540), (960, 540), (960, 540), (960, 540), (960, 540), (960, 540), (960, 540), (960, 540), (960, 540), (960, 540), (960, 540), (960, 540), (960, 540), (960, 540), (960, 540), (960, 540), (960, 540), (960, 540), (960, 540), (960, 540), (960, 540), (960, 540), (960, 540), (960, 540), (960, 540), (960, 540), (960, 540), (960, 540), (960, 540), (960, 540), (960, 540), (960, 540), (960, 540), (960, 540), (960, 540), (960, 540), (960, 540), (960, 540), (960, 540), (960, 540), (960, 540), (960, 540), (960, 540), (960, 540), (960, 540), (960, 540), (960, 540), (960, 540), (960, 540), (960, 540), (960, 540), (960, 540), (960, 542), (960, 549), (960, 553), (960, 559), (960, 564), (960, 574), (960, 577), (959, 583), (958, 587), (953, 599), (950, 606), (946, 613), (943, 617), (930, 634), (921, 643), (917, 648), (913, 654), (908, 662), (908, 665), (907, 668), (905, 674), (904, 689), (902, 698), (897, 709), (892, 725), (880, 769), (874, 792), (871, 826), (871, 868), (871, 929), (871, 960)]",101.96426423070609,"[6, 9, 1, 3, 5, 2, 7, 8, 4]","(0, 0.25)",DOT004C,DOT,C,English,Tue Aug 14 11:58:18 2018,Mouse
1,3,3,0,50,4,6,0,-630,370,260,135,0,500,200,8000,"[(960, 540), (960, 540), (960, 540), (960, 540), (960, 540), (960, 540), (960, 540), (960, 540), (960, 540), (960, 540), (960, 540), (960, 540), (960, 540), (960, 540), (960, 540), (960, 540), (960, 540), (960, 540), (960, 540), (960, 540), (960, 540), (960, 540), (960, 540), (960, 540), (960, 540), (960, 540), (960, 540), (960, 540), (960, 540), (960, 540), (960, 540), (960, 540), (960, 540), (960, 540), (960, 540), (960, 540), (962, 541), (965, 543), (968, 544), (971, 544), (975, 547), (988, 552), (995, 554), (1004, 559), (1013, 562), (1036, 569), (1054, 574), (1068, 577), (1084, 582), (1129, 596), (1149, 601), (1168, 605), (1191, 613), (1230, 624), (1244, 626), (1258, 631), (1277, 637), (1301, 645), (1311, 647), (1321, 649), (1328, 652), (1341, 658), (1346, 660)]",17.269467762121934,"[6, 9, 1, 3, 5, 2, 7, 8, 4]","(0, 0.25)",DOT004C,DOT,C,English,Tue Aug 14 11:58:18 2018,Mouse
1,3,3,0,51,5,5,1,520,60,460,136,0,500,200,8000,"[(960, 540), (960, 540), (960, 540), (960, 540), (960, 540), (958, 538), (954, 533), (951, 528), (945, 521), (939, 514), (935, 511), (932, 507), (931, 506), (929, 504), (929, 503), (929, 503), (928, 502), (928, 502), (928, 502), (928, 502), (928, 502), (928, 502), (928, 502), (928, 501), (927, 501), (925, 498), (924, 497), (924, 497), (923, 496), (922, 495), (921, 494), (921, 493), (919, 493), (917, 492), (915, 492), (915, 492), (913, 491), (908, 490), (904, 490), (901, 490), (897, 490), (885, 490), (874, 490), (859, 490), (840, 490), (786, 495), (758, 495), (720, 503), (685, 506), (611, 515), (577, 524), (552, 524)]",182.24574256589509,"[6, 9, 1, 3, 5, 2, 7, 8, 4]","(0, 0.25)",DOT004C,DOT,C,English,Tue Aug 14 11:58:18 2018,Mouse
1,3,3,0,52,7,7,1,970,810,160,136,0,500,200,8000,"[(960, 540), (960, 540), (960, 540), (960, 540), (960, 540), (960, 540), (960, 540), (960, 540), (960, 540), (960, 540), (960, 540), (960, 540), (960, 540), (960, 540), (960, 540), (960, 540), (960, 540), (960, 540), (960, 540), (960, 540), (960, 540), (960, 540), (960, 540), (960, 540), (960, 540), (960, 540), (960, 540), (960, 540), (960, 540), (960, 540), (960, 540), (960, 540), (960, 540), (960, 540), (960, 540), (960, 540), (960, 540), (960, 540), (960, 540), (960, 540), (960, 540), (960, 540), (960, 540), (960, 540), (960, 540), (960, 540), (960, 540), (960, 540), (960, 540), (960, 540), (960, 540), (960, 540), (960, 540), (960, 540), (960, 540), (960, 540), (960, 540), (960, 540), (960, 540), (960, 540), (960, 540), (960, 540), (960, 540), (960, 540), (960, 540), (960, 540), (960, 540), (960, 540), (960, 540), (960, 540), (960, 540), (960, 540), (960, 540), (960, 540), (960, 540), (960, 540), (960, 540), (960, 540), (960, 540), (960, 540), (960, 539), (960, 532), (957, 523), (957, 513), (946, 483), (934, 449), (925, 418), (912, 391), (900, 347), (894, 322), (886, 299), (885, 279), (879, 243), (875, 221), (875, 198), (875, 179), (875, 140)]",258.00310069207643,"[6, 9, 1, 3, 5, 2, 7, 8, 4]","(0, 0.25)",DOT004C,DOT,C,English,Tue Aug 14 11:58:18 2018,Mouse
1,3,3,0,53,9,9,1,391,101,290,135,0,500,200,8000,"[(960, 540), (960, 540), (960, 540), (960, 540), (960, 540), (960, 540), (960, 540), (960, 540), (960, 540), (960, 540), (960, 542), (960, 547), (960, 550), (960, 553), (960, 554), (960, 560), (960, 562), (960, 564), (960, 567), (960, 572), (960, 575), (960, 578), (960, 582), (960, 597), (960, 606), (962, 617), (965, 627), (974, 642), (978, 651), (983, 660), (988, 666), (1003, 686), (1013, 700), (1026, 720), (1045, 745), (1092, 807), (1117, 831), (1139, 855), (1160, 875), (1192, 902)]",57.34484044423849,"[6, 9, 1, 3, 5, 2, 7, 8, 4]","(0, 0.25)",DOT004C,DOT,C,English,Tue Aug 14 11:58:18 2018,Mouse
1,3,3,0,54,6,6,1,631,411,220,134,0,500,200,8000,"[(960, 540), (960, 540), (960, 540), (960, 540), (960, 540), (960, 540), (960, 540), (960, 540), (960, 540), (960, 540), (960, 540), (960, 540), (960, 540), (960, 540), (960, 540), (960, 540), (960, 540), (960, 540), (960, 540), (960, 540), (960, 540), (960, 540), (960, 540), (960, 540), (960, 540), (960, 540), (960, 540), (960, 540), (960, 540), (960, 540), (960, 540), (960, 540), (960, 540), (960, 540), (960, 540), (960, 540), (960, 540), (960, 540), (960, 540), (960, 540), (961, 540), (963, 541), (971, 544), (972, 545), (978, 547), (985, 551), (1000, 557), (1012, 563), (1023, 567), (1037, 571), (1074, 580), (1097, 588), (1125, 596), (1149, 607), (1193, 625), (1214, 636), (1238, 647), (1261, 656), (1294, 665), (1307, 669), (1320, 672), (1329, 675), (1345, 681)]",20.114436480407804,"[6, 9, 1, 3, 5, 2, 7, 8, 4]","(0, 0.25)",DOT004C,DOT,C,English,Tue Aug 14 11:58:18 2018,Mouse
1,3,3,0,55,5,5,1,550,340,210,133,0,500,200,8000,"[(960, 540), (960, 540), (960, 540), (960, 540), (960, 540), (960, 540), (960, 540), (960, 540), (960, 540), (960, 540), (960, 540), (960, 540), (960, 540), (960, 540), (960, 540), (960, 540), (960, 540), (960, 540), (960, 540), (960, 540), (960, 540), (960, 540), (960, 540), (960, 540), (960, 540), (960, 540), (960, 540), (960, 540), (960, 540), (960, 540), (960, 540), (960, 540), (960, 540), (958, 540), (952, 540), (946, 540), (939, 540), (927, 540), (897, 540), (879, 540), (862, 540), (842, 540), (805, 540), (788, 540), (775, 542), (758, 542), (730, 542), (717, 542), (704, 544), (685, 545), (651, 545), (634, 545), (614, 545), (595, 545), (558, 545)]",179.28740267100335,"[6, 9, 1, 3, 5, 2, 7, 8, 4]","(0, 0.25)",DOT004C,DOT,C,English,Tue Aug 14 11:58:18 2018,Mouse
1,3,3,0,56,8,8,1,911,551,360,132,0,500,200,8000,"[(960, 540), (960, 540), (960, 540), (960, 540), (960, 540), (960, 540), (960, 540), (960, 540), (960, 540), (960, 540), (960, 540), (960, 540), (960, 540), (960, 540), (960, 540), (960, 540), (960, 540), (960, 540), (960, 540), (960, 540), (960, 540), (960, 540), (960, 540), (960, 540), (960, 540), (960, 540), (960, 540), (960, 540), (960, 540), (960, 540), (960, 540), (960, 540), (960, 540), (960, 540), (960, 540), (960, 540), (960, 540), (960, 540), (960, 540), (960, 540), (960, 540), (960, 540), (960, 540), (960, 540), (960, 540), (960, 540), (960, 540), (960, 540), (960, 540), (960, 540), (960, 540), (960, 540), (960, 540), (960, 540), (960, 540), (961, 540), (961, 542), (961, 542), (961, 544), (961, 545), (961, 546), (961, 547), (961, 547), (961, 548), (961, 548), (961, 548), (961, 548), (963, 548), (966, 548), (969, 543), (972, 540), (978, 529), (982, 523), (984, 520), (986, 515), (991, 507), (993, 503), (995, 500), (997, 496), (1007, 479), (1013, 467), (1021, 452), (1031, 433), (1058, 383), (1079, 344), (1094, 317), (1107, 293), (1125, 263), (1133, 247), (1141, 236), (1150, 221), (1168, 193)]",300.9394683692583,"[6, 9, 1, 3, 5, 2, 7, 8, 4]","(0, 0.25)",DOT004C,DOT,C,English,Tue Aug 14 11:58:18 2018,Mouse
1,3,3,0,57,4,6,0,-860,620,240,131,0,500,200,8000,"[(960, 540), (960, 540), (960, 540), (960, 540), (960, 540), (960, 540), (960, 540), (960, 540), (960, 540), (960, 540), (960, 540), (960, 540), (960, 540), (960, 540), (960, 540), (960, 540), (960, 540), (960, 540), (960, 540), (960, 540), (960, 540), (960, 540), (960, 540), (960, 540), (960, 540), (960, 540), (960, 540), (960, 540), (960, 540), (960, 540), (960, 540), (960, 540), (960, 540), (960, 540), (960, 540), (960, 540), (960, 540), (960, 540), (960, 540), (960, 540), (960, 540), (960, 540), (960, 540), (960, 540), (960, 540), (960, 540), (960, 540), (960, 540), (960, 540), (960, 540), (960, 540), (960, 540), (960, 540), (960, 540), (960, 540), (960, 540), (960, 540), (960, 540), (960, 540), (960, 540), (960, 540), (959, 540), (959, 542), (961, 545), (962, 546), (964, 547), (968, 552), (972, 555), (974, 557), (979, 559), (985, 563), (989, 566), (996, 568), (1001, 571), (1016, 577), (1026, 582), (1037, 586), (1051, 590), (1097, 604), (1125, 611), (1153, 619), (1186, 628), (1263, 648), (1304, 655), (1341, 661), (1382, 666)]",16.624478143964964,"[6, 9, 1, 3, 5, 2, 7, 8, 4]","(0, 0.25)",DOT004C,DOT,C,English,Tue Aug 14 11:58:18 2018,Mouse
1,3,3,0,58,3,9,0,-881,731,150,132,0,500,200,8000,"[(960, 540), (960, 540), (960, 540), (960, 540), (960, 540), (960, 540), (960, 540), (960, 540), (960, 540), (960, 540), (960, 540), (960, 540), (960, 540), (960, 540), (960, 540), (960, 540), (960, 540), (960, 540), (960, 540), (960, 540), (960, 540), (960, 540), (960, 540), (960, 540), (960, 540), (960, 540), (960, 540), (960, 540), (960, 540), (960, 540), (960, 540), (960, 540), (960, 540), (960, 540), (960, 540), (960, 540), (960, 540), (960, 540), (960, 540), (960, 540), (960, 540), (960, 540), (960, 540), (960, 540), (960, 540), (960, 540), (960, 540), (960, 540), (960, 540), (960, 540), (960, 540), (960, 540), (960, 540), (960, 540), (960, 540), (960, 540), (960, 540), (960, 540), (960, 540), (960, 540), (960, 540), (960, 540), (960, 540), (960, 540), (960, 540), (960, 540), (960, 540), (960, 540), (960, 540), (960, 540), (960, 540), (960, 540), (960, 540), (960, 542), (965, 549), (970, 558), (980, 576), (985, 584), (992, 596), (1000, 607), (1018, 642), (1029, 658), (1043, 688), (1057, 722), (1083, 793), (1090, 839), (1096, 876), (1104, 902), (1112, 927)]",68.5568444035783,"[6, 9, 1, 3, 5, 2, 7, 8, 4]","(0, 0.25)",DOT004C,DOT,C,English,Tue Aug 14 11:58:18 2018,Mouse
1,3,3,0,59,4,8,0,-820,600,220,133,0,500,200,8000,"[(960, 540), (960, 540), (960, 540), (960, 540), (960, 540), (960, 540), (960, 540), (960, 540), (960, 540), (960, 540), (960, 540), (960, 540), (960, 540), (960, 540), (960, 540), (960, 540), (960, 540), (960, 540), (960, 540), (960, 540), (960, 540), (960, 540), (960, 540), (960, 540), (960, 540), (960, 540), (960, 540), (960, 540), (960, 540), (960, 540), (960, 540), (960, 540), (960, 540), (960, 540), (960, 540), (960, 540), (960, 540), (960, 540), (960, 540), (960, 540), (960, 540), (960, 540), (960, 540), (960, 540), (960, 540), (960, 540), (960, 540), (960, 540), (960, 540), (960, 540), (960, 540), (960, 540), (960, 540), (960, 540), (960, 540), (960, 540), (960, 540), (960, 540), (960, 540), (960, 539), (960, 538), (960, 537), (960, 534), (961, 532), (961, 530), (962, 527), (964, 519), (966, 515), (968, 509), (971, 504), (977, 492), (981, 485), (987, 474), (994, 464), (1011, 424), (1022, 398), (1034, 369), (1049, 337), (1088, 264), (1111, 223), (1132, 187), (1164, 145)]",297.3143496381798,"[6, 9, 1, 3, 5, 2, 7, 8, 4]","(0, 0.25)",DOT004C,DOT,C,English,Tue Aug 14 11:58:18 2018,Mouse
1,3,3,0,60,5,5,1,720,510,210,134,0,500,200,8000,"[(960, 540), (960, 540), (960, 540), (960, 540), (960, 540), (960, 540), (960, 540), (960, 540), (960, 540), (960, 540), (960, 540), (960, 540), (960, 540), (960, 540), (960, 540), (960, 540), (960, 540), (960, 540), (960, 540), (960, 540), (960, 540), (960, 540), (960, 540), (960, 540), (960, 540), (960, 540), (960, 540), (960, 540), (960, 540), (960, 540), (960, 540), (960, 540), (960, 540), (960, 540), (960, 540), (960, 540), (960, 540), (960, 540), (960, 540), (960, 540), (960, 540), (960, 540), (960, 540), (960, 540), (960, 540), (960, 540), (960, 540), (960, 540), (960, 540), (960, 540), (954, 540), (940, 539), (933, 538), (925, 537), (917, 537), (898, 537), (885, 534), (858, 531), (828, 526), (751, 519), (709, 517), (668, 517), (629, 517), (584, 517), (574, 517), (566, 517), (565, 517), (562, 517), (561, 518), (561, 519), (561, 520), (558, 522)]",182.563770211465,"[6, 9, 1, 3, 5, 2, 7, 8, 4]","(0, 0.25)",DOT004C,DOT,C,English,Tue Aug 14 11:58:18 2018,Mouse
1,3,3,0,61,2,1,0,-831,461,370,134,0,500,200,8000,"[(960, 540), (960, 540), (960, 540), (960, 540), (960, 540), (960, 540), (960, 540), (960, 540), (960, 540), (960, 540), (960, 540), (960, 540), (960, 540), (960, 540), (960, 540), (960, 540), (960, 540), (960, 540), (960, 540), (960, 540), (960, 540), (960, 540), (960, 540), (960, 540), (960, 540), (960, 540), (960, 540), (960, 540), (960, 540), (960, 540), (960, 540), (960, 540), (960, 540), (960, 540), (960, 540), (960, 540), (960, 540), (960, 540), (960, 540), (960, 540), (960, 540), (960, 540), (960, 540), (960, 540), (960, 540), (960, 540), (959, 541), (958, 541), (958, 542), (956, 544), (956, 545), (952, 551), (951, 553), (948, 558), (945, 562), (939, 575), (936, 582), (934, 588), (931, 595), (926, 608), (923, 617), (919, 625), (915, 635), (910, 653), (908, 661), (904, 670), (904, 677), (903, 687), (903, 691), (902, 694), (902, 698), (902, 711), (901, 722), (898, 733), (897, 748), (891, 777), (887, 790), (884, 802), (880, 817), (872, 855), (869, 876), (868, 893), (868, 913), (869, 936)]",102.9417706719518,"[6, 9, 1, 3, 5, 2, 7, 8, 4]","(0, 0.25)",DOT004C,DOT,C,English,Tue Aug 14 11:58:18 2018,Mouse
1,3,3,0,62,4,6,0,-499,279,220,135,0,500,200,8000,"[(960, 540), (960, 540), (960, 540), (960, 540), (960, 540), (960, 540), (960, 540), (960, 540), (960, 540), (960, 540), (960, 540), (960, 540), (960, 540), (960, 540), (960, 540), (960, 540), (960, 540), (960, 540), (960, 540), (960, 540), (960, 540), (960, 540), (960, 540), (960, 540), (960, 540), (960, 540), (960, 540), (965, 540), (970, 540), (974, 542), (985, 546), (988, 548), (993, 550), (996, 551), (1004, 555), (1009, 557), (1013, 560), (1022, 562), (1038, 570), (1050, 577), (1065, 586), (1081, 596), (1119, 617), (1140, 626), (1163, 636), (1189, 647), (1241, 668), (1269, 677), (1300, 685), (1333, 694)]",22.434194943801575,"[6, 9, 1, 3, 5, 2, 7, 8, 4]","(0, 0.25)",DOT004C,DOT,C,English,Tue Aug 14 11:58:18 2018,Mouse
1,3,3,0,63,7,7,1,1080,300,780,136,0,500,200,8000,"[(960, 540), (960, 540), (960, 540), (960, 540), (960, 540), (960, 540), (960, 540), (960, 540), (960, 540), (960, 540), (960, 540), (960, 540), (960, 540), (960, 540), (960, 540), (960, 540), (960, 540), (960, 540), (960, 540), (960, 540), (960, 540), (960, 540), (960, 540), (960, 540), (960, 540), (960, 540), (960, 540), (960, 540), (960, 540), (961, 540), (961, 540), (961, 539), (961, 539), (961, 539), (961, 539), (961, 538), (961, 538), (961, 538), (961, 538), (961, 538), (961, 538), (961, 538), (961, 538), (961, 538), (961, 538), (961, 538), (961, 538), (961, 538), (961, 538), (961, 538), (961, 538), (961, 538), (961, 538), (961, 538), (961, 538), (961, 538), (961, 538), (961, 538), (961, 538), (961, 538), (961, 538), (961, 538), (961, 538), (961, 538), (961, 538), (961, 538), (961, 538), (961, 538), (961, 538), (962, 538), (963, 539), (963, 539), (964, 540), (964, 540), (964, 540), (966, 542), (967, 543), (969, 545), (972, 548), (976, 551), (978, 552), (982, 553), (984, 555), (985, 555), (986, 555), (986, 555), (986, 555), (986, 555), (986, 555), (987, 555), (988, 555), (989, 554), (990, 551), (990, 547), (992, 542), (992, 529), (992, 519), (992, 508), (989, 494), (979, 463), (973, 439), (965, 413), (956, 380), (925, 306), (905, 265), (886, 223), (869, 183), (839, 111)]",254.24882633654698,"[6, 9, 1, 3, 5, 2, 7, 8, 4]","(0, 0.25)",DOT004C,DOT,C,English,Tue Aug 14 11:58:18 2018,Mouse
1,3,3,0,64,8,8,1,381,181,200,136,0,500,200,8000,"[(960, 540), (960, 540), (960, 540), (960, 540), (960, 540), (960, 540), (960, 540), (960, 540), (960, 540), (960, 540), (960, 540), (960, 540), (960, 540), (960, 540), (960, 540), (960, 540), (960, 540), (960, 540), (960, 539), (961, 534), (964, 531), (966, 525), (969, 517), (975, 504), (977, 497), (983, 487), (986, 478), (993, 462), (997, 454), (1002, 442), (1005, 432), (1027, 386), (1041, 359), (1056, 332), (1073, 307), (1112, 248), (1126, 224), (1143, 201), (1151, 183)]",298.1474050996966,"[6, 9, 1, 3, 5, 2, 7, 8, 4]","(0, 0.25)",DOT004C,DOT,C,English,Tue Aug 14 11:58:18 2018,Mouse
1,3,3,0,65,4,5,0,-859,619,240,135,0,500,200,8000,"[(960, 540), (960, 540), (960, 540), (960, 540), (960, 540), (960, 540), (960, 540), (960, 540), (960, 540), (960, 540), (960, 540), (960, 540), (960, 540), (960, 540), (960, 540), (960, 540), (960, 540), (960, 540), (960, 540), (960, 540), (960, 540), (960, 540), (960, 540), (960, 540), (960, 540), (960, 540), (960, 540), (960, 540), (960, 540), (960, 540), (960, 540), (960, 540), (960, 540), (960, 540), (960, 540), (960, 540), (960, 540), (960, 540), (960, 540), (960, 540), (960, 540), (960, 540), (960, 540), (960, 540), (960, 540), (960, 540), (960, 540), (960, 540), (960, 540), (960, 540), (960, 540), (960, 540), (960, 540), (960, 540), (960, 540), (960, 540), (960, 540), (960, 540), (960, 540), (960, 540), (960, 540), (959, 540), (954, 540), (951, 540), (947, 540), (944, 539), (941, 538), (935, 538), (932, 538), (931, 538), (929, 538), (924, 538), (919, 538), (916, 538), (913, 538), (902, 538), (894, 538), (884, 538), (872, 538), (846, 536), (827, 535), (797, 528), (757, 522), (660, 511), (606, 501), (551, 493)]",186.55535728840277,"[6, 9, 1, 3, 5, 2, 7, 8, 4]","(0, 0.25)",DOT004C,DOT,C,English,Tue Aug 14 11:58:18 2018,Mouse
1,3,3,0,66,9,9,1,440,150,290,136,0,500,200,8000,"[(960, 540), (960, 540), (960, 540), (960, 540), (960, 540), (960, 540), (960, 540), (960, 540), (960, 540), (960, 540), (960, 540), (960, 540), (960, 540), (960, 540), (959, 541), (959, 544), (959, 550), (959, 553), (959, 557), (959, 560), (962, 570), (966, 577), (969, 584), (972, 592), (981, 612), (988, 622), (992, 629), (995, 637), (1004, 653), (1010, 663), (1015, 673), (1026, 690), (1055, 737), (1062, 757), (1073, 772), (1081, 783), (1094, 802), (1101, 811), (1106, 821), (1112, 831), (1125, 854), (1132, 867), (1138, 883), (1145, 903)]",62.99470451604085,"[6, 9, 1, 3, 5, 2, 7, 8, 4]","(0, 0.25)",DOT004C,DOT,C,English,Tue Aug 14 11:58:18 2018,Mouse
1,3,3,0,67,5,5,1,521,341,180,136,0,500,200,8000,"[(960, 540), (960, 540), (960, 540), (960, 540), (960, 540), (960, 540), (960, 540), (960, 540), (960, 540), (960, 540), (960, 540), (960, 540), (960, 540), (960, 540), (960, 540), (960, 540), (960, 540), (960, 540), (960, 540), (960, 540), (960, 540), (960, 540), (960, 540), (960, 540), (960, 540), (960, 540), (960, 540), (960, 540), (960, 540), (960, 540), (960, 540), (960, 540), (960, 540), (960, 540), (959, 540), (959, 540), (958, 541), (958, 541), (958, 541), (957, 541), (957, 541), (955, 541), (953, 541), (951, 542), (943, 542), (936, 542), (925, 542), (911, 542), (870, 542), (817, 542), (759, 542), (703, 542), (554, 542)]",179.71775706372915,"[6, 9, 1, 3, 5, 2, 7, 8, 4]","(0, 0.25)",DOT004C,DOT,C,English,Tue Aug 14 11:58:18 2018,Mouse
1,3,3,0,68,3,3,1,1850,1050,800,135,0,500,200,8000,"[(960, 540), (960, 540), (960, 540), (960, 540), (960, 540), (960, 540), (960, 540), (960, 540), (960, 540), (960, 540), (960, 540), (960, 540), (960, 540), (960, 540), (960, 540), (960, 540), (960, 540), (960, 540), (960, 540), (960, 540), (960, 540), (960, 540), (960, 540), (960, 540), (960, 540), (960, 540), (960, 540), (960, 540), (960, 540), (960, 540), (960, 540), (960, 540), (960, 540), (960, 540), (960, 540), (960, 540), (960, 540), (960, 540), (960, 540), (960, 540), (960, 540), (960, 540), (960, 540), (960, 540), (960, 540), (960, 540), (960, 540), (960, 540), (960, 540), (960, 540), (960, 540), (960, 540), (960, 540), (960, 540), (960, 540), (960, 540), (960, 540), (960, 540), (960, 540), (960, 540), (960, 540), (960, 540), (960, 540), (960, 540), (960, 540), (960, 540), (960, 540), (960, 540), (960, 540), (960, 540), (960, 540), (960, 540), (960, 540), (960, 540), (960, 540), (960, 540), (960, 540), (960, 540), (960, 540), (960, 540), (960, 540), (960, 540), (960, 540), (960, 540), (960, 540), (960, 540), (960, 540), (960, 540), (960, 540), (960, 540), (960, 540), (960, 540), (960, 540), (960, 540), (960, 540), (960, 540), (960, 540), (960, 540), (960, 540), (960, 540), (960, 540), (960, 540), (960, 540), (960, 540), (958, 541), (961, 549), (972, 568), (979, 581), (989, 596), (996, 609), (1015, 641), (1023, 655), (1028, 665), (1034, 675), (1043, 691), (1047, 698), (1050, 703), (1054, 709), (1057, 715), (1058, 716), (1058, 716), (1058, 717), (1058, 717), (1058, 717), (1058, 717), (1058, 717), (1058, 717), (1058, 717), (1058, 717), (1058, 717), (1058, 713), (1058, 713), (1058, 711), (1058, 710), (1058, 708), (1058, 706), (1058, 705), (1058, 704), (1058, 701), (1058, 700), (1058, 698), (1058, 696), (1057, 694), (1057, 694), (1057, 693), (1057, 692), (1057, 691), (1057, 690), (1057, 689), (1057, 689), (1057, 688), (1057, 688), (1057, 688), (1057, 688), (1057, 686), (1057, 686), (1057, 686), (1058, 686), (1058, 685), (1058, 685), (1058, 685), (1058, 685), (1058, 685), (1058, 685), (1058, 685), (1058, 685), (1058, 685), (1058, 685), (1052, 684), (1038, 683), (1005, 679), (968, 676), (923, 672), (880, 670), (811, 670), (786, 670), (760, 671), (747, 674), (725, 684), (719, 688), (708, 696), (698, 705), (674, 726), (649, 743), (624, 764)]",146.30993247402023,"[6, 9, 1, 3, 5, 2, 7, 8, 4]","(0, 0.25)",DOT004C,DOT,C,English,Tue Aug 14 11:58:18 2018,Mouse
1,3,3,0,69,4,5,0,-330,240,90,134,0,500,200,8000,"[(960, 540), (960, 540), (960, 540), (960, 540), (960, 540), (960, 540), (960, 540), (960, 540), (960, 540), (960, 540), (960, 540), (960, 540), (960, 540), (960, 540), (960, 540), (960, 540), (960, 540), (960, 540), (960, 540), (960, 540), (960, 540), (960, 540), (960, 540), (957, 542), (944, 546), (932, 548), (917, 552), (891, 553), (810, 555), (763, 555), (713, 555), (655, 555), (544, 555)]",177.93494106876807,"[6, 9, 1, 3, 5, 2, 7, 8, 4]","(0, 0.25)",DOT004C,DOT,C,English,Tue Aug 14 11:58:18 2018,Mouse
1,3,3,0,70,4,7,0,-880,760,120,135,0,500,200,8000,"[(960, 540), (960, 540), (960, 540), (960, 540), (960, 540), (960, 540), (960, 540), (960, 540), (960, 540), (960, 540), (960, 540), (960, 540), (960, 540), (960, 540), (960, 540), (960, 540), (960, 540), (960, 540), (960, 540), (960, 540), (960, 540), (960, 540), (960, 540), (960, 540), (960, 540), (960, 540), (960, 540), (960, 540), (960, 540), (960, 540), (960, 540), (960, 540), (960, 540), (960, 540), (960, 540), (960, 540), (960, 540), (960, 540), (960, 540), (960, 540), (960, 540), (960, 540), (960, 540), (960, 540), (960, 540), (960, 540), (960, 540), (960, 540), (960, 540), (960, 540), (960, 540), (960, 540), (960, 540), (960, 540), (960, 540), (960, 540), (960, 540), (960, 540), (960, 540), (960, 540), (960, 540), (960, 540), (960, 540), (960, 540), (960, 540), (960, 540), (960, 540), (960, 540), (960, 540), (960, 540), (960, 540), (960, 540), (960, 540), (960, 540), (960, 540), (961, 539), (961, 534), (963, 527), (965, 509), (965, 497), (965, 476), (965, 457), (973, 380), (976, 346), (982, 305), (991, 259), (1003, 176), (1008, 130)]",276.67740217804123,"[6, 9, 1, 3, 5, 2, 7, 8, 4]","(0, 0.25)",DOT004C,DOT,C,English,Tue Aug 14 11:58:18 2018,Mouse
1,3,3,0,71,1,1,1,380,180,200,136,0,500,200,8000,"[(960, 540), (960, 540), (960, 540), (960, 540), (960, 540), (960, 540), (960, 540), (960, 540), (960, 540), (960, 540), (960, 540), (960, 540), (960, 540), (960, 540), (960, 540), (960, 540), (960, 540), (960, 543), (960, 546), (960, 547), (961, 551), (964, 560), (964, 562), (965, 566), (965, 569), (965, 580), (965, 589), (965, 597), (965, 609), (965, 639), (965, 656), (965, 678), (965, 709), (943, 803), (939, 840), (930, 884), (920, 927), (902, 1004)]",97.1250163489018,"[6, 9, 1, 3, 5, 2, 7, 8, 4]","(0, 0.25)",DOT004C,DOT,C,English,Tue Aug 14 11:58:18 2018,Mouse
1,3,3,0,72,1,1,1,331,51,280,136,0,500,200,8000,"[(960, 540), (960, 540), (960, 540), (960, 540), (960, 540), (960, 543), (958, 547), (957, 556), (955, 565), (955, 572), (955, 583), (952, 603), (952, 614), (952, 624), (952, 635), (952, 656), (952, 668), (952, 680), (952, 695), (948, 726), (946, 740), (944, 754), (943, 767), (938, 793), (937, 802), (935, 813), (934, 822), (932, 842), (929, 853), (926, 865), (924, 879), (917, 909), (911, 927), (908, 938)]",97.44371640911702,"[6, 9, 1, 3, 5, 2, 7, 8, 4]","(0, 0.25)",DOT004C,DOT,C,English,Tue Aug 14 11:58:18 2018,Mouse
1,3,3,0,73,7,5,0,-651,311,340,135,0,500,200,8000,"[(960, 540), (960, 540), (960, 540), (960, 540), (960, 540), (960, 540), (960, 540), (960, 540), (960, 540), (960, 540), (960, 540), (960, 540), (960, 540), (960, 540), (960, 540), (960, 540), (960, 540), (960, 540), (960, 540), (960, 540), (960, 540), (960, 540), (960, 540), (960, 540), (960, 540), (960, 540), (960, 540), (960, 540), (960, 540), (960, 540), (960, 540), (959, 539), (958, 539), (958, 539), (958, 539), (958, 539), (957, 539), (957, 539), (957, 539), (957, 539), (956, 539), (956, 539), (956, 539), (956, 539), (956, 539), (956, 539), (956, 539), (956, 539), (956, 539), (956, 539), (956, 539), (954, 539), (952, 539), (946, 539), (942, 539), (939, 539), (934, 539), (919, 539), (907, 539), (892, 539), (867, 539), (789, 539), (737, 539), (681, 539), (626, 539), (503, 530)]",181.25353692449815,"[6, 9, 1, 3, 5, 2, 7, 8, 4]","(0, 0.25)",DOT004C,DOT,C,English,Tue Aug 14 11:58:18 2018,Mouse
1,3,3,0,74,5,5,1,191,11,180,136,0,500,200,8000,"[(960, 540), (959, 540), (955, 541), (940, 541), (928, 541), (913, 542), (893, 545), (837, 553), (804, 553), (768, 553), (740, 553), (678, 557), (652, 558), (637, 558), (622, 558), (599, 559), (588, 559), (578, 560), (567, 562), (547, 564)]",176.67420347418056,"[6, 9, 1, 3, 5, 2, 7, 8, 4]","(0, 0.25)",DOT004C,DOT,C,English,Tue Aug 14 11:58:18 2018,Mouse
1,3,3,0,75,9,9,1,471,291,180,136,0,500,200,8000,"[(960, 540), (960, 540), (960, 540), (960, 540), (960, 540), (960, 540), (960, 540), (960, 540), (960, 540), (960, 540), (960, 540), (960, 540), (960, 540), (960, 540), (960, 540), (960, 540), (960, 540), (960, 540), (960, 540), (960, 540), (960, 540), (960, 540), (960, 540), (960, 540), (960, 540), (960, 540), (960, 540), (960, 540), (960, 540), (961, 541), (961, 542), (964, 548), (966, 551), (969, 558), (973, 567), (986, 589), (992, 598), (998, 609), (1004, 621), (1017, 644), (1029, 664), (1039, 682), (1054, 707), (1089, 767), (1108, 802), (1131, 841), (1155, 887), (1194, 955)]",60.583286723204424,"[6, 9, 1, 3, 5, 2, 7, 8, 4]","(0, 0.25)",DOT004C,DOT,C,English,Tue Aug 14 11:58:18 2018,Mouse
1,3,3,0,76,1,1,1,390,130,260,135,0,500,200,8000,"[(960, 540), (960, 540), (960, 540), (960, 540), (960, 540), (960, 540), (960, 540), (960, 540), (960, 540), (960, 540), (960, 540), (960, 540), (959, 540), (956, 541), (952, 547), (950, 552), (948, 555), (948, 558), (945, 564), (944, 567), (944, 571), (944, 573), (941, 580), (940, 583), (939, 589), (939, 596), (935, 615), (934, 626), (931, 644), (929, 659), (926, 708), (926, 736), (926, 761), (926, 792), (926, 842), (926, 865), (926, 887), (926, 909), (923, 958)]",95.05845212426371,"[6, 9, 1, 3, 5, 2, 7, 8, 4]","(0, 0.25)",DOT004C,DOT,C,English,Tue Aug 14 11:58:18 2018,Mouse
1,3,3,0,77,3,1,0,-361,121,240,134,0,500,200,8000,"[(960, 540), (960, 540), (960, 540), (960, 540), (960, 540), (960, 540), (960, 540), (960, 540), (960, 540), (960, 540), (960, 540), (960, 540), (959, 542), (956, 550), (955, 557), (950, 577), (946, 588), (945, 600), (943, 613), (938, 642), (937, 660), (933, 676), (931, 695), (925, 731), (924, 749), (920, 765), (919, 780), (914, 811), (913, 825), (910, 840), (909, 853), (906, 871), (903, 879), (902, 886), (899, 895), (897, 918), (892, 935)]",99.76783413355949,"[6, 9, 1, 3, 5, 2, 7, 8, 4]","(0, 0.25)",DOT004C,DOT,C,English,Tue Aug 14 11:58:18 2018,Mouse
1,3,3,0,78,1,1,1,230,20,210,135,0,500,200,8000,"[(960, 540), (960, 545), (960, 552), (958, 563), (958, 574), (953, 603), (952, 618), (950, 631), (947, 651), (943, 692), (939, 719), (932, 747), (931, 767), (922, 813), (918, 832), (917, 845), (912, 858), (909, 880), (907, 887), (905, 898), (903, 905), (897, 926), (893, 939)]",99.53216668319737,"[6, 9, 1, 3, 5, 2, 7, 8, 4]","(0, 0.25)",DOT004C,DOT,C,English,Tue Aug 14 11:58:18 2018,Mouse
1,3,3,0,79,8,8,1,540,330,210,135,0,500,200,8000,"[(960, 540), (960, 540), (960, 540), (960, 540), (960, 540), (960, 540), (960, 540), (960, 540), (960, 540), (960, 540), (960, 540), (960, 540), (960, 540), (960, 540), (960, 540), (960, 540), (960, 540), (960, 540), (960, 540), (960, 540), (960, 540), (960, 540), (960, 540), (960, 540), (960, 540), (960, 540), (960, 540), (960, 540), (960, 540), (960, 540), (960, 540), (960, 540), (960, 538), (962, 532), (963, 529), (964, 526), (967, 522), (972, 512), (973, 506), (977, 501), (978, 497), (987, 482), (990, 472), (995, 462), (1000, 444), (1012, 397), (1016, 375), (1023, 345), (1030, 315), (1054, 252), (1062, 224), (1072, 196), (1081, 175), (1097, 134)]",288.6463714039613,"[6, 9, 1, 3, 5, 2, 7, 8, 4]","(0, 0.25)",DOT004C,DOT,C,English,Tue Aug 14 11:58:18 2018,Mouse
1,3,3,0,80,2,1,0,-990,490,500,134,0,500,200,8000,"[(960, 540), (960, 540), (960, 540), (960, 540), (960, 540), (960, 540), (960, 540), (960, 540), (960, 540), (960, 540), (960, 540), (960, 540), (960, 540), (960, 540), (960, 540), (960, 540), (960, 540), (960, 540), (960, 540), (960, 540), (960, 540), (960, 540), (960, 540), (960, 540), (960, 540), (960, 540), (960, 540), (960, 540), (960, 540), (960, 540), (960, 540), (960, 540), (960, 540), (960, 540), (960, 540), (960, 540), (960, 540), (960, 540), (960, 540), (960, 540), (960, 540), (960, 540), (960, 540), (960, 540), (960, 540), (960, 540), (960, 540), (960, 540), (960, 542), (960, 543), (960, 546), (959, 546), (959, 548), (959, 548), (959, 550), (959, 551), (959, 551), (959, 552), (959, 552), (959, 553), (959, 554), (959, 554), (959, 555), (958, 557), (958, 557), (958, 558), (958, 559), (958, 560), (958, 561), (958, 561), (958, 563), (957, 563), (957, 564), (957, 564), (956, 566), (956, 567), (955, 568), (955, 569), (953, 576), (952, 580), (951, 589), (949, 595), (946, 608), (944, 620), (942, 632), (937, 645), (935, 678), (930, 702), (924, 727), (914, 752), (898, 808), (888, 832), (884, 846), (880, 865), (876, 890), (875, 899), (873, 908), (873, 918), (873, 933)]",102.48248938495449,"[6, 9, 1, 3, 5, 2, 7, 8, 4]","(0, 0.25)",DOT004C,DOT,C,English,Tue Aug 14 11:58:18 2018,Mouse
1,3,3,0,81,1,1,1,271,91,180,135,0,500,200,8000,"[(960, 540), (960, 540), (960, 540), (960, 540), (960, 540), (960, 540), (960, 540), (960, 540), (960, 540), (960, 541), (960, 544), (955, 554), (952, 560), (949, 568), (943, 580), (925, 609), (915, 628), (905, 644), (896, 668), (873, 723), (863, 751), (849, 783), (837, 809), (813, 857), (807, 870), (803, 884), (798, 895), (793, 918)]",113.8357908971542,"[6, 9, 1, 3, 5, 2, 7, 8, 4]","(0, 0.25)",DOT004C,DOT,C,English,Tue Aug 14 11:58:18 2018,Mouse
1,3,3,0,82,5,4,0,-1251,711,540,135,0,500,200,8000,"[(960, 540), (960, 540), (960, 540), (960, 540), (960, 540), (960, 540), (960, 540), (960, 540), (960, 540), (960, 540), (960, 540), (960, 540), (960, 540), (960, 540), (960, 540), (960, 540), (960, 540), (960, 540), (960, 540), (960, 540), (960, 540), (960, 540), (960, 540), (960, 540), (960, 540), (960, 540), (960, 540), (960, 540), (960, 540), (960, 540), (960, 540), (960, 540), (960, 540), (960, 540), (960, 540), (960, 540), (960, 540), (960, 540), (960, 540), (960, 540), (960, 540), (960, 540), (960, 540), (960, 540), (960, 540), (960, 540), (960, 540), (960, 540), (960, 540), (960, 540), (960, 540), (960, 540), (960, 540), (960, 540), (960, 540), (960, 540), (960, 540), (960, 540), (960, 540), (960, 540), (960, 540), (960, 540), (960, 540), (960, 540), (960, 540), (960, 540), (960, 540), (960, 540), (960, 540), (960, 540), (960, 540), (960, 539), (960, 539), (960, 539), (960, 539), (960, 539), (960, 539), (960, 539), (960, 539), (960, 539), (960, 539), (960, 539), (960, 539), (960, 539), (960, 539), (960, 539), (960, 539), (960, 539), (960, 539), (960, 539), (960, 539), (960, 539), (960, 539), (960, 539), (960, 539), (960, 539), (960, 539), (960, 539), (960, 539), (960, 539), (960, 539), (960, 539), (960, 539), (960, 539), (960, 539), (960, 539), (960, 539), (960, 539), (960, 539), (960, 539), (960, 539), (960, 539), (960, 539), (960, 539), (960, 539), (960, 539), (960, 539), (962, 539), (980, 532), (1035, 518), (1079, 510), (1125, 500), (1177, 490), (1275, 471), (1321, 463), (1358, 452)]",347.5321776637868,"[6, 9, 1, 3, 5, 2, 7, 8, 4]","(0, 0.25)",DOT004C,DOT,C,English,Tue Aug 14 11:58:18 2018,Mouse
1,3,3,0,83,5,5,1,271,11,260,136,0,500,200,8000,"[(960, 540), (957, 540), (954, 540), (949, 540), (946, 540), (942, 540), (939, 540), (935, 540), (930, 541), (914, 543), (903, 543), (892, 543), (877, 543), (849, 543), (835, 543), (824, 543), (813, 543), (795, 543), (787, 543), (779, 543), (773, 543), (756, 543), (741, 543), (722, 543), (697, 543), (622, 543), (575, 543), (533, 543)]",179.59746016293272,"[6, 9, 1, 3, 5, 2, 7, 8, 4]","(0, 0.25)",DOT004C,DOT,C,English,Tue Aug 14 11:58:18 2018,Mouse
1,3,3,0,84,8,8,1,410,210,200,136,0,500,200,8000,"[(960, 540), (960, 540), (960, 540), (960, 540), (960, 540), (960, 540), (960, 540), (960, 540), (960, 540), (960, 540), (960, 540), (960, 540), (960, 540), (960, 540), (960, 540), (960, 540), (960, 540), (960, 540), (960, 540), (960, 540), (961, 538), (962, 534), (963, 527), (967, 517), (979, 489), (989, 466), (996, 448), (1007, 424), (1033, 380), (1046, 359), (1057, 342), (1064, 330), (1087, 296), (1094, 283), (1104, 266), (1111, 249), (1127, 225), (1137, 211), (1144, 202), (1152, 192), (1168, 174)]",299.60982962127196,"[6, 9, 1, 3, 5, 2, 7, 8, 4]","(0, 0.25)",DOT004C,DOT,C,English,Tue Aug 14 11:58:18 2018,Mouse
1,3,3,0,85,3,1,0,-680,350,330,135,0,500,200,8000,"[(960, 540), (960, 540), (960, 540), (960, 540), (960, 540), (960, 540), (960, 540), (960, 540), (960, 540), (960, 540), (960, 540), (960, 540), (960, 540), (960, 540), (960, 540), (960, 540), (960, 540), (960, 540), (960, 540), (960, 540), (960, 540), (960, 540), (960, 540), (960, 540), (960, 540), (960, 540), (960, 540), (960, 540), (960, 540), (960, 540), (960, 540), (960, 540), (960, 540), (960, 540), (955, 547), (953, 551), (949, 557), (947, 560), (944, 567), (943, 571), (941, 573), (941, 574), (941, 577), (941, 578), (941, 578), (940, 578), (940, 578), (940, 578), (940, 578), (940, 578), (940, 583), (940, 587), (940, 589), (940, 595), (940, 606), (940, 612), (940, 620), (940, 629), (940, 660), (936, 679), (928, 704), (924, 728), (897, 791), (885, 825), (877, 851), (867, 879), (854, 919), (852, 930)]",105.47863816541836,"[6, 9, 1, 3, 5, 2, 7, 8, 4]","(0, 0.25)",DOT004C,DOT,C,English,Tue Aug 14 11:58:18 2018,Mouse
1,3,3,0,86,3,2,0,-1318,818,500,136,0,500,200,8000,"[(960, 540), (960, 540), (960, 540), (960, 540), (960, 540), (960, 540), (960, 540), (960, 540), (960, 540), (960, 540), (960, 540), (960, 540), (960, 540), (960, 540), (960, 540), (960, 540), (960, 540), (960, 540), (960, 540), (960, 540), (960, 540), (960, 540), (960, 540), (960, 540), (960, 540), (960, 540), (960, 540), (960, 540), (960, 540), (960, 540), (960, 540), (960, 540), (960, 540), (960, 540), (960, 540), (960, 540), (960, 540), (960, 540), (960, 540), (960, 540), (960, 540), (960, 540), (960, 540), (960, 540), (960, 540), (960, 540), (960, 540), (960, 540), (960, 540), (960, 540), (960, 540), (960, 540), (960, 540), (960, 540), (960, 540), (960, 540), (960, 540), (960, 540), (960, 540), (960, 540), (960, 540), (960, 540), (960, 540), (960, 540), (960, 540), (960, 540), (960, 540), (960, 540), (960, 540), (960, 540), (960, 540), (960, 540), (960, 540), (960, 540), (960, 540), (960, 540), (960, 540), (960, 540), (960, 540), (960, 540), (960, 540), (958, 538), (956, 537), (955, 536), (955, 536), (954, 536), (954, 536), (954, 536), (954, 536), (954, 536), (954, 536), (954, 536), (954, 536), (954, 536), (954, 536), (954, 536), (954, 536), (954, 536), (954, 536), (954, 536), (953, 542), (953, 563), (953, 574), (953, 587), (953, 601), (953, 632), (951, 647), (950, 660), (946, 675), (942, 701), (936, 713), (933, 719), (929, 728), (924, 734), (922, 734), (920, 734), (917, 734), (907, 714), (900, 698), (896, 679), (890, 657), (872, 603), (855, 566), (845, 530), (831, 503), (803, 451), (788, 427), (772, 402), (753, 376), (707, 321), (680, 295), (654, 272)]",221.21242644944098,"[6, 9, 1, 3, 5, 2, 7, 8, 4]","(0, 0.25)",DOT004C,DOT,C,English,Tue Aug 14 11:58:18 2018,Mouse
1,3,3,0,87,6,6,1,1120,330,790,137,0,500,200,8000,"[(960, 540), (960, 540), (960, 540), (960, 540), (960, 540), (960, 540), (960, 540), (960, 540), (960, 540), (960, 540), (960, 540), (960, 540), (960, 540), (960, 540), (960, 540), (960, 540), (960, 540), (960, 540), (960, 540), (960, 540), (960, 540), (960, 540), (960, 540), (960, 540), (960, 540), (960, 540), (960, 540), (960, 540), (960, 540), (960, 540), (960, 540), (960, 540), (963, 540), (967, 539), (972, 538), (979, 537), (990, 536), (1000, 534), (1007, 533), (1017, 531), (1036, 527), (1043, 526), (1052, 522), (1058, 522), (1070, 518), (1075, 516), (1081, 514), (1089, 512), (1103, 505), (1112, 500), (1122, 494), (1135, 486), (1167, 462), (1187, 449), (1209, 434), (1226, 423), (1264, 401), (1276, 396), (1288, 387), (1298, 384), (1310, 379), (1313, 377), (1313, 377), (1313, 377), (1313, 377), (1313, 377), (1313, 377), (1313, 377), (1313, 377), (1313, 377), (1313, 377), (1313, 377), (1313, 377), (1313, 377), (1313, 377), (1313, 377), (1313, 377), (1313, 377), (1313, 377), (1313, 377), (1315, 375), (1315, 375), (1315, 375), (1313, 375), (1307, 376), (1305, 377), (1304, 378), (1298, 381), (1291, 383), (1287, 386), (1282, 390), (1276, 394), (1262, 407), (1254, 414), (1244, 425), (1238, 436), (1227, 458), (1221, 473), (1219, 484), (1218, 499), (1218, 528), (1220, 540), (1227, 557), (1234, 570), (1254, 593), (1267, 607), (1280, 618), (1294, 629), (1318, 647), (1328, 656), (1336, 664), (1343, 672)]",19.01638486125607,"[6, 9, 1, 3, 5, 2, 7, 8, 4]","(0, 0.25)",DOT004C,DOT,C,English,Tue Aug 14 11:58:18 2018,Mouse
1,3,3,0,88,9,9,1,429,109,320,137,0,500,200,8000,"[(960, 540), (960, 540), (960, 540), (960, 540), (960, 540), (960, 540), (960, 540), (960, 540), (960, 540), (960, 540), (960, 539), (963, 539), (964, 541), (964, 543), (966, 546), (968, 551), (969, 555), (971, 557), (972, 561), (975, 567), (976, 569), (976, 571), (977, 573), (979, 575), (979, 576), (980, 578), (980, 580), (983, 583), (986, 589), (987, 592), (990, 597), (998, 612), (1008, 625), (1018, 644), (1025, 657), (1044, 682), (1062, 702), (1081, 730), (1100, 758), (1134, 811), (1153, 836), (1168, 866), (1182, 885)]",57.23959983693185,"[6, 9, 1, 3, 5, 2, 7, 8, 4]","(0, 0.25)",DOT004C,DOT,C,English,Tue Aug 14 11:58:18 2018,Mouse
1,3,3,0,89,7,7,1,1030,510,520,136,0,500,200,8000,"[(960, 540), (960, 540), (960, 540), (960, 540), (960, 540), (960, 540), (960, 540), (960, 540), (960, 540), (960, 540), (960, 540), (960, 540), (960, 540), (960, 540), (960, 540), (960, 540), (960, 540), (960, 540), (960, 540), (960, 540), (960, 540), (960, 540), (960, 540), (960, 540), (960, 540), (960, 540), (960, 540), (960, 540), (960, 540), (960, 540), (960, 540), (960, 540), (960, 540), (960, 540), (960, 540), (960, 540), (960, 540), (960, 540), (960, 540), (960, 540), (960, 540), (960, 540), (960, 540), (960, 540), (960, 540), (960, 540), (960, 540), (960, 540), (960, 540), (960, 540), (959, 540), (955, 540), (953, 540), (952, 540), (952, 540), (951, 540), (951, 540), (951, 540), (951, 540), (951, 540), (951, 540), (951, 540), (951, 540), (951, 540), (951, 540), (951, 540), (951, 540), (951, 540), (950, 539), (950, 538), (950, 536), (950, 531), (950, 529), (950, 525), (950, 522), (950, 517), (950, 514), (950, 511), (950, 510), (950, 504), (950, 501), (950, 497), (950, 492), (950, 488), (950, 485), (950, 483), (950, 480), (950, 474), (950, 471), (950, 467), (949, 459), (946, 441), (945, 429), (944, 416), (942, 404), (938, 373), (931, 346), (923, 312), (912, 279), (895, 212), (882, 181), (874, 150), (866, 123)]",257.29673219714147,"[6, 9, 1, 3, 5, 2, 7, 8, 4]","(0, 0.25)",DOT004C,DOT,C,English,Tue Aug 14 11:58:18 2018,Mouse
1,3,3,0,90,4,4,1,800,630,170,135,0,500,200,8000,"[(960, 540), (960, 540), (960, 540), (960, 540), (960, 540), (960, 540), (960, 540), (960, 540), (960, 540), (960, 540), (960, 540), (960, 540), (960, 540), (960, 540), (960, 540), (960, 540), (960, 540), (960, 540), (960, 540), (960, 540), (960, 540), (960, 540), (960, 540), (960, 540), (960, 540), (960, 540), (960, 540), (960, 540), (960, 540), (960, 540), (960, 540), (960, 540), (960, 540), (960, 540), (960, 540), (960, 540), (960, 540), (960, 540), (960, 540), (960, 540), (960, 540), (960, 540), (960, 540), (960, 540), (960, 540), (960, 540), (960, 540), (960, 540), (960, 540), (960, 540), (960, 540), (960, 540), (960, 540), (960, 540), (960, 540), (960, 540), (960, 540), (960, 540), (960, 540), (960, 540), (960, 540), (960, 540), (960, 539), (964, 534), (970, 529), (979, 526), (990, 523), (1019, 513), (1038, 508), (1061, 502), (1083, 496), (1122, 485), (1145, 475), (1168, 468), (1191, 459), (1236, 437), (1263, 423), (1289, 414), (1310, 403), (1371, 377)]",338.36703625118685,"[6, 9, 1, 3, 5, 2, 7, 8, 4]","(0, 0.25)",DOT004C,DOT,C,English,Tue Aug 14 11:58:18 2018,Mouse
1,3,3,0,91,9,7,0,-630,160,470,134,0,500,200,8000,"[(960, 540), (960, 540), (960, 540), (960, 540), (960, 540), (960, 540), (960, 540), (960, 540), (960, 540), (960, 540), (960, 540), (960, 540), (960, 540), (960, 540), (960, 540), (960, 539), (960, 539), (960, 539), (960, 539), (960, 539), (960, 539), (960, 539), (960, 539), (960, 539), (960, 539), (960, 539), (960, 538), (959, 537), (958, 535), (958, 533), (958, 526), (958, 521), (958, 515), (958, 508), (958, 496), (958, 489), (958, 485), (958, 481), (958, 475), (958, 473), (958, 472), (958, 470), (958, 469), (958, 469), (958, 469), (958, 469), (958, 469), (958, 469), (958, 469), (958, 469), (958, 467), (958, 464), (958, 462), (957, 457), (953, 434), (951, 410), (946, 381), (938, 340), (924, 275), (914, 238), (903, 205), (898, 181), (891, 130)]",260.44705583588797,"[6, 9, 1, 3, 5, 2, 7, 8, 4]","(0, 0.25)",DOT004C,DOT,C,English,Tue Aug 14 11:58:18 2018,Mouse
