NativeLangNumber,LanuageNumber,SessionNumber,Block,TrialNum,ConditionNumber,Response,Accuracy,RT,MovementOnsetTime,TimeInMotion,SignalContrast,SignalContrastNumber,StimDisplayTime,MaskTime,MaxResponseTime,MousePositionXY,MouseAngle,WheelOrder,NoiseMuSigma,ParticipantID,LanuageTested,SessionTested,NativeLanuage,Date,ResponseDevice
1,3,3,0,1,5,5,1,2119,2019,100,153,0,500,200,8000,"[(960, 540), (960, 540), (960, 540), (960, 540), (960, 540), (960, 540), (960, 540), (960, 540), (960, 540), (960, 540), (960, 540), (960, 540), (960, 540), (960, 540), (960, 540), (960, 540), (960, 540), (960, 540), (960, 540), (960, 540), (960, 540), (960, 540), (960, 540), (960, 540), (960, 540), (960, 540), (960, 540), (960, 540), (960, 540), (960, 540), (960, 540), (960, 540), (960, 540), (960, 540), (960, 540), (960, 540), (960, 540), (960, 540), (960, 540), (960, 540), (960, 540), (960, 540), (960, 540), (960, 540), (960, 540), (960, 540), (960, 540), (960, 540), (960, 540), (960, 540), (960, 540), (960, 540), (960, 540), (960, 540), (960, 540), (960, 540), (960, 540), (960, 540), (960, 540), (960, 540), (960, 540), (960, 540), (960, 540), (960, 540), (960, 540), (960, 540), (960, 540), (960, 540), (960, 540), (960, 540), (960, 540), (960, 540), (960, 540), (960, 540), (960, 540), (960, 540), (960, 540), (960, 540), (960, 540), (960, 540), (960, 540), (960, 540), (960, 540), (960, 540), (960, 540), (960, 540), (960, 540), (960, 540), (960, 540), (960, 540), (960, 540), (960, 540), (960, 540), (960, 540), (960, 540), (960, 540), (960, 540), (960, 540), (960, 540), (960, 540), (960, 540), (960, 540), (960, 540), (960, 540), (960, 540), (960, 540), (960, 540), (960, 540), (960, 540), (960, 540), (960, 540), (960, 540), (960, 540), (960, 540), (960, 540), (960, 540), (960, 540), (960, 540), (960, 540), (960, 540), (960, 540), (960, 540), (960, 540), (960, 540), (960, 540), (960, 540), (960, 540), (960, 540), (960, 540), (960, 540), (960, 540), (960, 540), (960, 540), (960, 540), (960, 540), (960, 540), (960, 540), (960, 540), (960, 540), (960, 540), (960, 540), (960, 540), (960, 540), (960, 540), (960, 540), (960, 540), (960, 540), (960, 540), (960, 540), (960, 540), (960, 540), (960, 540), (960, 540), (960, 540), (960, 540), (960, 540), (960, 540), (960, 540), (960, 540), (960, 540), (960, 540), (960, 540), (960, 540), (960, 540), (960, 540), (960, 540), (960, 540), (960, 540), (960, 540), (960, 540), (960, 540), (960, 540), (960, 540), (960, 540), (960, 540), (960, 540), (960, 540), (960, 540), (960, 540), (960, 540), (960, 540), (960, 540), (960, 540), (960, 540), (960, 540), (960, 540), (960, 540), (960, 540), (960, 540), (960, 540), (960, 540), (960, 540), (960, 540), (960, 540), (960, 540), (960, 540), (960, 540), (960, 540), (960, 540), (960, 540), (960, 540), (961, 530), (961, 521), (961, 507), (962, 492), (963, 440), (963, 401), (963, 354), (963, 298), (963, 212), (963, 171), (963, 137)]",270.4265115721143,"[9, 1, 2, 7, 8, 4, 5, 3, 6]","(0, 0.25)",DOT003C,DOT,C,English,Thu Aug 09 14:58:40 2018,Mouse
1,3,3,0,2,8,8,1,780,700,80,153,0,500,200,8000,"[(960, 540), (960, 540), (960, 540), (960, 540), (960, 540), (960, 540), (960, 540), (960, 540), (960, 540), (960, 540), (960, 540), (960, 540), (960, 540), (960, 540), (960, 540), (960, 540), (960, 540), (960, 540), (960, 540), (960, 540), (960, 540), (960, 540), (960, 540), (960, 540), (960, 540), (960, 540), (960, 540), (960, 540), (960, 540), (960, 540), (960, 540), (960, 540), (960, 540), (960, 540), (960, 540), (960, 540), (960, 540), (960, 540), (960, 540), (960, 540), (960, 540), (960, 540), (960, 540), (960, 540), (960, 540), (960, 540), (960, 540), (960, 540), (960, 540), (960, 540), (960, 540), (960, 540), (960, 540), (960, 540), (960, 540), (960, 540), (960, 540), (960, 540), (960, 540), (960, 540), (960, 540), (960, 540), (960, 540), (960, 540), (960, 540), (960, 540), (960, 540), (960, 540), (960, 540), (957, 540), (954, 540), (947, 541), (908, 541), (869, 541), (819, 541), (758, 541), (613, 536), (538, 527)]",181.76447784546588,"[9, 1, 2, 7, 8, 4, 5, 3, 6]","(0, 0.25)",DOT003C,DOT,C,English,Thu Aug 09 14:58:40 2018,Mouse
1,3,3,0,3,9,9,1,418,348,70,152,0,500,200,8000,"[(960, 540), (960, 540), (960, 540), (960, 540), (960, 540), (960, 540), (960, 540), (960, 540), (960, 540), (960, 540), (960, 540), (960, 540), (960, 540), (960, 540), (960, 540), (960, 540), (960, 540), (960, 540), (960, 540), (960, 540), (960, 540), (960, 540), (960, 540), (960, 540), (960, 540), (960, 540), (960, 540), (960, 540), (960, 540), (960, 540), (960, 540), (960, 540), (960, 540), (960, 540), (961, 540), (964, 542), (977, 549), (1037, 572), (1079, 583), (1137, 602), (1200, 616), (1354, 652)]",15.868540441299874,"[9, 1, 2, 7, 8, 4, 5, 3, 6]","(0, 0.25)",DOT003C,DOT,C,English,Thu Aug 09 14:58:40 2018,Mouse
1,3,3,0,4,6,6,1,540,460,80,151,0,500,200,8000,"[(960, 540), (960, 540), (960, 540), (960, 540), (960, 540), (960, 540), (960, 540), (960, 540), (960, 540), (960, 540), (960, 540), (960, 540), (960, 540), (960, 540), (960, 540), (960, 540), (960, 540), (960, 540), (960, 540), (960, 540), (960, 540), (960, 540), (960, 540), (960, 540), (960, 540), (960, 540), (960, 540), (960, 540), (960, 540), (960, 540), (960, 540), (960, 540), (960, 540), (960, 540), (960, 540), (960, 540), (960, 540), (960, 540), (960, 540), (960, 540), (960, 540), (960, 540), (960, 540), (960, 540), (960, 540), (960, 541), (973, 537), (986, 534), (1007, 524), (1036, 512), (1162, 463), (1237, 436), (1310, 405), (1384, 372)]",338.38522105721376,"[9, 1, 2, 7, 8, 4, 5, 3, 6]","(0, 0.25)",DOT003C,DOT,C,English,Thu Aug 09 14:58:40 2018,Mouse
1,3,3,0,5,3,3,1,829,759,70,150,0,500,200,8000,"[(960, 540), (960, 540), (960, 540), (960, 540), (960, 540), (960, 540), (960, 540), (960, 540), (960, 540), (960, 540), (960, 540), (960, 540), (960, 540), (960, 540), (960, 540), (960, 540), (960, 540), (960, 540), (960, 540), (960, 540), (960, 540), (960, 540), (960, 540), (960, 540), (960, 540), (960, 540), (960, 540), (960, 540), (960, 540), (960, 540), (960, 540), (960, 540), (960, 540), (960, 540), (960, 540), (960, 540), (960, 540), (960, 540), (960, 540), (960, 540), (960, 540), (960, 540), (960, 540), (960, 540), (960, 540), (960, 540), (960, 540), (960, 540), (960, 540), (960, 540), (960, 540), (960, 540), (960, 540), (960, 540), (960, 540), (960, 540), (960, 540), (960, 540), (960, 540), (960, 540), (960, 540), (960, 540), (960, 540), (960, 540), (960, 540), (960, 540), (960, 540), (960, 540), (960, 540), (960, 540), (960, 540), (960, 540), (960, 540), (960, 540), (960, 540), (965, 538), (973, 524), (983, 501), (997, 464), (1040, 362), (1070, 305), (1105, 240), (1146, 174)]",296.9395280638008,"[9, 1, 2, 7, 8, 4, 5, 3, 6]","(0, 0.25)",DOT003C,DOT,C,English,Thu Aug 09 14:58:40 2018,Mouse
1,3,3,0,6,5,5,1,2259,1559,700,149,0,500,200,8000,"[(960, 540), (960, 540), (960, 540), (960, 540), (960, 540), (960, 540), (960, 540), (960, 540), (960, 540), (960, 540), (960, 540), (960, 540), (960, 540), (960, 540), (960, 540), (960, 540), (960, 540), (960, 540), (960, 540), (960, 540), (960, 540), (960, 540), (960, 540), (960, 540), (960, 540), (960, 540), (960, 540), (960, 540), (960, 540), (960, 540), (960, 540), (960, 540), (960, 540), (960, 540), (960, 540), (960, 540), (960, 540), (960, 540), (960, 540), (960, 540), (960, 540), (960, 540), (960, 540), (960, 540), (960, 540), (960, 540), (960, 540), (960, 540), (960, 540), (960, 540), (960, 540), (960, 540), (960, 540), (960, 540), (960, 540), (960, 540), (960, 540), (960, 540), (960, 540), (960, 540), (960, 540), (960, 540), (960, 540), (960, 540), (960, 540), (960, 540), (960, 540), (960, 540), (960, 540), (960, 540), (960, 540), (960, 540), (960, 540), (960, 540), (960, 540), (960, 540), (960, 540), (960, 540), (960, 540), (960, 540), (960, 540), (960, 540), (960, 540), (960, 540), (960, 540), (960, 540), (960, 540), (960, 540), (960, 540), (960, 540), (960, 540), (960, 540), (960, 540), (960, 540), (960, 540), (960, 540), (960, 540), (960, 540), (960, 540), (960, 540), (960, 540), (960, 540), (960, 540), (960, 540), (960, 540), (960, 540), (960, 540), (960, 540), (960, 540), (960, 540), (960, 540), (960, 540), (960, 540), (960, 540), (960, 540), (960, 540), (960, 540), (960, 540), (960, 540), (960, 540), (960, 540), (960, 540), (960, 540), (960, 540), (960, 540), (960, 540), (960, 540), (960, 540), (960, 540), (960, 540), (960, 540), (960, 540), (960, 540), (960, 540), (960, 540), (960, 540), (960, 540), (960, 540), (960, 540), (960, 540), (960, 540), (960, 540), (960, 540), (960, 540), (960, 540), (960, 540), (960, 540), (960, 540), (960, 540), (960, 540), (960, 540), (960, 540), (960, 540), (960, 540), (960, 540), (959, 540), (958, 542), (954, 548), (948, 555), (936, 566), (927, 573), (918, 580), (909, 584), (898, 591), (895, 593), (894, 593), (893, 594), (892, 594), (892, 594), (892, 594), (892, 594), (892, 594), (892, 594), (892, 594), (892, 594), (892, 594), (892, 594), (892, 594), (892, 594), (892, 594), (892, 594), (892, 594), (892, 594), (892, 594), (892, 594), (892, 594), (892, 594), (892, 594), (892, 594), (892, 594), (892, 594), (892, 594), (892, 594), (892, 594), (892, 594), (892, 594), (892, 594), (893, 594), (893, 594), (893, 594), (893, 594), (893, 594), (893, 594), (893, 594), (893, 594), (893, 594), (893, 594), (893, 594), (893, 594), (894, 594), (894, 594), (894, 594), (894, 594), (894, 594), (894, 594), (894, 592), (895, 590), (896, 588), (896, 582), (896, 547), (896, 511), (889, 451), (885, 387), (869, 238), (869, 166), (869, 102)]",258.2630573470693,"[9, 1, 2, 7, 8, 4, 5, 3, 6]","(0, 0.25)",DOT003C,DOT,C,English,Thu Aug 09 14:58:40 2018,Mouse
1,3,3,0,7,5,5,1,130,50,80,148,0,500,200,8000,"[(960, 540), (960, 540), (960, 540), (960, 540), (960, 528), (960, 517), (953, 497), (944, 461), (931, 359), (922, 296), (912, 223), (901, 152), (882, 25)]",261.38764751784623,"[9, 1, 2, 7, 8, 4, 5, 3, 6]","(0, 0.25)",DOT003C,DOT,C,English,Thu Aug 09 14:58:40 2018,Mouse
1,3,3,0,8,1,1,1,1189,1069,120,147,0,500,200,8000,"[(960, 540), (960, 540), (960, 540), (960, 540), (960, 540), (960, 540), (960, 540), (960, 540), (960, 540), (960, 540), (960, 540), (960, 540), (960, 540), (960, 540), (960, 540), (960, 540), (960, 540), (960, 540), (960, 540), (960, 540), (960, 540), (960, 540), (960, 540), (960, 540), (960, 540), (960, 540), (960, 540), (960, 540), (960, 540), (960, 540), (960, 540), (960, 540), (960, 540), (960, 540), (960, 540), (960, 540), (960, 540), (960, 540), (960, 540), (960, 540), (960, 540), (960, 540), (960, 540), (960, 540), (960, 540), (960, 540), (960, 540), (960, 540), (960, 540), (960, 540), (960, 540), (960, 540), (960, 540), (960, 540), (960, 540), (960, 540), (960, 540), (960, 540), (960, 540), (960, 540), (960, 540), (960, 540), (960, 540), (960, 540), (960, 540), (960, 540), (960, 540), (960, 540), (960, 540), (960, 540), (960, 540), (960, 540), (960, 540), (960, 540), (960, 540), (960, 540), (960, 540), (960, 540), (960, 540), (960, 540), (960, 540), (960, 540), (960, 540), (960, 540), (960, 540), (960, 540), (960, 540), (960, 540), (960, 540), (960, 540), (960, 540), (960, 540), (960, 540), (960, 540), (960, 540), (960, 540), (960, 540), (960, 540), (960, 540), (960, 540), (960, 540), (960, 540), (960, 540), (960, 540), (960, 540), (960, 540), (964, 549), (968, 558), (973, 568), (979, 581), (993, 616), (1001, 639), (1011, 664), (1026, 704), (1055, 773), (1065, 801), (1079, 833), (1093, 862), (1122, 912)]",66.46765143909899,"[9, 1, 2, 7, 8, 4, 5, 3, 6]","(0, 0.25)",DOT003C,DOT,C,English,Thu Aug 09 14:58:40 2018,Mouse
1,3,3,0,9,4,4,1,1191,1110,81,146,0,500,200,8000,"[(960, 540), (960, 540), (960, 540), (960, 540), (960, 540), (960, 540), (960, 540), (960, 540), (960, 540), (960, 540), (960, 540), (960, 540), (960, 540), (960, 540), (960, 540), (960, 540), (960, 540), (960, 540), (960, 540), (960, 540), (960, 540), (960, 540), (960, 540), (960, 540), (960, 540), (960, 540), (960, 540), (960, 540), (960, 540), (960, 540), (960, 540), (960, 540), (960, 540), (960, 540), (960, 540), (960, 540), (960, 540), (960, 540), (960, 540), (960, 540), (960, 540), (960, 540), (960, 540), (960, 540), (960, 540), (960, 540), (960, 540), (960, 540), (960, 540), (960, 540), (960, 540), (960, 540), (960, 540), (960, 540), (960, 540), (960, 540), (960, 540), (960, 540), (960, 540), (960, 540), (960, 540), (960, 540), (960, 540), (960, 540), (960, 540), (960, 540), (960, 540), (960, 540), (960, 540), (960, 540), (960, 540), (960, 540), (960, 540), (960, 540), (960, 540), (960, 540), (960, 540), (960, 540), (960, 540), (960, 540), (960, 540), (960, 540), (960, 540), (960, 540), (960, 540), (960, 540), (960, 540), (960, 540), (960, 540), (960, 540), (960, 540), (960, 540), (960, 540), (960, 540), (960, 540), (960, 540), (960, 540), (960, 540), (960, 540), (960, 540), (960, 540), (960, 540), (960, 540), (960, 540), (960, 540), (960, 540), (960, 540), (960, 540), (960, 540), (960, 540), (961, 534), (955, 521), (943, 508), (919, 482), (857, 424), (817, 390), (775, 356), (736, 329), (636, 262)]",220.63040835160095,"[9, 1, 2, 7, 8, 4, 5, 3, 6]","(0, 0.25)",DOT003C,DOT,C,English,Thu Aug 09 14:58:40 2018,Mouse
1,3,3,0,10,7,7,1,760,630,130,145,0,500,200,8000,"[(960, 540), (960, 540), (960, 540), (960, 540), (960, 540), (960, 540), (960, 540), (960, 540), (960, 540), (960, 540), (960, 540), (960, 540), (960, 540), (960, 540), (960, 540), (960, 540), (960, 540), (960, 540), (960, 540), (960, 540), (960, 540), (960, 540), (960, 540), (960, 540), (960, 540), (960, 540), (960, 540), (960, 540), (960, 540), (960, 540), (960, 540), (960, 540), (960, 540), (960, 540), (960, 540), (960, 540), (960, 540), (960, 540), (960, 540), (960, 540), (960, 540), (960, 540), (960, 540), (960, 540), (960, 540), (960, 540), (960, 540), (960, 540), (960, 540), (960, 540), (960, 540), (960, 540), (960, 540), (960, 540), (960, 540), (960, 540), (960, 540), (960, 540), (960, 540), (960, 540), (960, 540), (960, 540), (960, 543), (960, 546), (958, 551), (952, 559), (941, 580), (932, 590), (922, 604), (904, 620), (857, 662), (828, 686), (797, 709), (760, 736), (686, 784), (650, 805)]",139.47489650624613,"[9, 1, 2, 7, 8, 4, 5, 3, 6]","(0, 0.25)",DOT003C,DOT,C,English,Thu Aug 09 14:58:40 2018,Mouse
1,3,3,0,11,8,8,1,468,398,70,144,0,500,200,8000,"[(960, 540), (960, 540), (960, 540), (960, 540), (960, 540), (960, 540), (960, 540), (960, 540), (960, 540), (960, 540), (960, 540), (960, 540), (960, 540), (960, 540), (960, 540), (960, 540), (960, 540), (960, 540), (960, 540), (960, 540), (960, 540), (960, 540), (960, 540), (960, 540), (960, 540), (960, 540), (960, 540), (960, 540), (960, 540), (960, 540), (960, 540), (960, 540), (960, 540), (960, 540), (960, 540), (960, 540), (960, 540), (960, 540), (960, 540), (958, 540), (947, 541), (893, 541), (834, 541), (779, 541), (710, 541), (572, 541), (500, 541)]",179.87544415379276,"[9, 1, 2, 7, 8, 4, 5, 3, 6]","(0, 0.25)",DOT003C,DOT,C,English,Thu Aug 09 14:58:40 2018,Mouse
1,3,3,0,12,2,2,1,610,510,100,143,0,500,200,8000,"[(960, 540), (960, 540), (960, 540), (960, 540), (960, 540), (960, 540), (960, 540), (960, 540), (960, 540), (960, 540), (960, 540), (960, 540), (960, 540), (960, 540), (960, 540), (960, 540), (960, 540), (960, 540), (960, 540), (960, 540), (960, 540), (960, 540), (960, 540), (960, 540), (960, 540), (960, 540), (960, 540), (960, 540), (960, 540), (960, 540), (960, 540), (960, 540), (960, 540), (960, 540), (960, 540), (960, 540), (960, 540), (960, 540), (960, 540), (960, 540), (960, 540), (960, 540), (960, 540), (960, 540), (960, 540), (960, 540), (960, 540), (960, 540), (960, 540), (960, 540), (960, 541), (960, 546), (960, 553), (958, 574), (955, 589), (954, 615), (948, 658), (948, 769), (948, 830), (948, 896), (948, 968)]",91.60600298928226,"[9, 1, 2, 7, 8, 4, 5, 3, 6]","(0, 0.25)",DOT003C,DOT,C,English,Thu Aug 09 14:58:40 2018,Mouse
1,3,3,0,13,4,4,1,1140,1060,80,142,0,500,200,8000,"[(960, 540), (960, 540), (960, 540), (960, 540), (960, 540), (960, 540), (960, 540), (960, 540), (960, 540), (960, 540), (960, 540), (960, 540), (960, 540), (960, 540), (960, 540), (960, 540), (960, 540), (960, 540), (960, 540), (960, 540), (960, 540), (960, 540), (960, 540), (960, 540), (960, 540), (960, 540), (960, 540), (960, 540), (960, 540), (960, 540), (960, 540), (960, 540), (960, 540), (960, 540), (960, 540), (960, 540), (960, 540), (960, 540), (960, 540), (960, 540), (960, 540), (960, 540), (960, 540), (960, 540), (960, 540), (960, 540), (960, 540), (960, 540), (960, 540), (960, 540), (960, 540), (960, 540), (960, 540), (960, 540), (960, 540), (960, 540), (960, 540), (960, 540), (960, 540), (960, 540), (960, 540), (960, 540), (960, 540), (960, 540), (960, 540), (960, 540), (960, 540), (960, 540), (960, 540), (960, 540), (960, 540), (960, 540), (960, 540), (960, 540), (960, 540), (960, 540), (960, 540), (960, 540), (960, 540), (960, 540), (960, 540), (960, 540), (960, 540), (960, 540), (960, 540), (960, 540), (960, 540), (960, 540), (960, 540), (960, 540), (960, 540), (960, 540), (960, 540), (960, 540), (960, 540), (960, 540), (960, 540), (960, 540), (960, 540), (960, 540), (960, 540), (960, 540), (960, 540), (960, 540), (960, 540), (960, 534), (953, 526), (931, 503), (902, 478), (861, 450), (811, 415), (708, 341), (644, 297), (575, 248)]",217.1781914973782,"[9, 1, 2, 7, 8, 4, 5, 3, 6]","(0, 0.25)",DOT003C,DOT,C,English,Thu Aug 09 14:58:40 2018,Mouse
1,3,3,0,14,5,5,1,1249,1169,80,141,0,500,200,8000,"[(960, 540), (960, 540), (960, 540), (960, 540), (960, 540), (960, 540), (960, 540), (960, 540), (960, 540), (960, 540), (960, 540), (960, 540), (960, 540), (960, 540), (960, 540), (960, 540), (960, 540), (960, 540), (960, 540), (960, 540), (960, 540), (960, 540), (960, 540), (960, 540), (960, 540), (960, 540), (960, 540), (960, 540), (960, 540), (960, 540), (960, 540), (960, 540), (960, 540), (960, 540), (960, 540), (960, 540), (960, 540), (960, 540), (960, 540), (960, 540), (960, 540), (960, 540), (960, 540), (960, 540), (960, 540), (960, 540), (960, 540), (960, 540), (960, 540), (960, 540), (960, 540), (960, 540), (960, 540), (960, 540), (960, 540), (960, 540), (960, 540), (960, 540), (960, 540), (960, 540), (960, 540), (960, 540), (960, 540), (960, 540), (960, 540), (960, 540), (960, 540), (960, 540), (960, 540), (960, 540), (960, 540), (960, 540), (960, 540), (960, 540), (960, 540), (960, 540), (960, 540), (960, 540), (960, 540), (960, 540), (960, 540), (960, 540), (960, 540), (960, 540), (960, 540), (960, 540), (960, 540), (960, 540), (960, 540), (960, 540), (960, 540), (960, 540), (960, 540), (960, 540), (960, 540), (960, 540), (960, 540), (960, 540), (960, 540), (960, 540), (960, 540), (960, 540), (960, 540), (960, 540), (960, 540), (960, 540), (960, 540), (960, 540), (960, 540), (960, 540), (960, 540), (960, 540), (960, 540), (960, 540), (960, 540), (960, 540), (960, 534), (957, 527), (951, 511), (941, 487), (902, 394), (881, 343), (858, 289), (838, 233), (793, 136)]",247.54144598809245,"[9, 1, 2, 7, 8, 4, 5, 3, 6]","(0, 0.25)",DOT003C,DOT,C,English,Thu Aug 09 14:58:40 2018,Mouse
1,3,3,0,15,9,9,1,431,11,420,140,0,500,200,8000,"[(960, 540), (960, 542), (960, 542), (960, 543), (960, 544), (960, 545), (960, 545), (963, 545), (965, 541), (966, 541), (966, 540), (968, 537), (968, 537), (968, 537), (968, 537), (968, 537), (968, 537), (968, 537), (968, 537), (968, 537), (968, 537), (968, 537), (968, 537), (968, 537), (968, 537), (968, 537), (968, 537), (968, 537), (968, 537), (968, 537), (968, 537), (968, 537), (968, 537), (968, 537), (968, 537), (968, 544), (969, 547), (976, 548), (992, 553), (1059, 572), (1109, 588), (1169, 603), (1230, 620), (1372, 663)]",16.622662707515396,"[9, 1, 2, 7, 8, 4, 5, 3, 6]","(0, 0.25)",DOT003C,DOT,C,English,Thu Aug 09 14:58:40 2018,Mouse
1,3,3,0,16,5,5,1,1110,1030,80,139,0,500,200,8000,"[(960, 540), (960, 540), (960, 540), (960, 540), (960, 540), (960, 540), (960, 540), (960, 540), (960, 540), (960, 540), (960, 540), (960, 540), (960, 540), (960, 540), (960, 540), (960, 540), (960, 540), (960, 540), (960, 540), (960, 540), (960, 540), (960, 540), (960, 540), (960, 540), (960, 540), (960, 540), (960, 540), (960, 540), (960, 540), (960, 540), (960, 540), (960, 540), (960, 540), (960, 540), (960, 540), (960, 540), (960, 540), (960, 540), (960, 540), (960, 540), (960, 540), (960, 540), (960, 540), (960, 540), (960, 540), (960, 540), (960, 540), (960, 540), (960, 540), (960, 540), (960, 540), (960, 540), (960, 540), (960, 540), (960, 540), (960, 540), (960, 540), (960, 540), (960, 540), (960, 540), (960, 540), (960, 540), (960, 540), (960, 540), (960, 540), (960, 540), (960, 540), (960, 540), (960, 540), (960, 540), (960, 540), (960, 540), (960, 540), (960, 540), (960, 540), (960, 540), (960, 540), (960, 540), (960, 540), (960, 540), (960, 540), (960, 540), (960, 540), (960, 540), (960, 540), (960, 540), (960, 540), (960, 540), (960, 540), (960, 540), (960, 540), (960, 540), (960, 540), (960, 540), (960, 540), (960, 540), (960, 540), (960, 540), (960, 540), (960, 540), (960, 540), (960, 540), (960, 531), (960, 507), (960, 470), (959, 423), (928, 299), (919, 245), (912, 196), (908, 151), (908, 100)]",263.259943902053,"[9, 1, 2, 7, 8, 4, 5, 3, 6]","(0, 0.25)",DOT003C,DOT,C,English,Thu Aug 09 14:58:40 2018,Mouse
1,3,3,0,17,3,3,1,949,869,80,138,0,500,200,8000,"[(960, 540), (960, 540), (960, 540), (960, 540), (960, 540), (960, 540), (960, 540), (960, 540), (960, 540), (960, 540), (960, 540), (960, 540), (960, 540), (960, 540), (960, 540), (960, 540), (960, 540), (960, 540), (960, 540), (960, 540), (960, 540), (960, 540), (960, 540), (960, 540), (960, 540), (960, 540), (960, 540), (960, 540), (960, 540), (960, 540), (960, 540), (960, 540), (960, 540), (960, 540), (960, 540), (960, 540), (960, 540), (960, 540), (960, 540), (960, 540), (960, 540), (960, 540), (960, 540), (960, 540), (960, 540), (960, 540), (960, 540), (960, 540), (960, 540), (960, 540), (960, 540), (960, 540), (960, 540), (960, 540), (960, 540), (960, 540), (960, 540), (960, 540), (960, 540), (960, 540), (960, 540), (960, 540), (960, 540), (960, 540), (960, 540), (960, 540), (960, 540), (960, 540), (960, 540), (960, 540), (960, 540), (960, 540), (960, 540), (960, 540), (960, 540), (960, 540), (960, 540), (960, 540), (960, 540), (960, 540), (960, 540), (960, 540), (960, 540), (960, 540), (960, 540), (960, 540), (962, 535), (966, 523), (972, 511), (980, 494), (1008, 430), (1026, 382), (1049, 331), (1076, 275), (1145, 154)]",295.60721724721196,"[9, 1, 2, 7, 8, 4, 5, 3, 6]","(0, 0.25)",DOT003C,DOT,C,English,Thu Aug 09 14:58:40 2018,Mouse
1,3,3,0,18,5,5,1,899,489,410,137,0,500,200,8000,"[(960, 540), (960, 540), (960, 540), (960, 540), (960, 540), (960, 540), (960, 540), (960, 540), (960, 540), (960, 540), (960, 540), (960, 540), (960, 540), (960, 540), (960, 540), (960, 540), (960, 540), (960, 540), (960, 540), (960, 540), (960, 540), (960, 540), (960, 540), (960, 540), (960, 540), (960, 540), (960, 540), (960, 540), (960, 540), (960, 540), (960, 540), (960, 540), (960, 540), (960, 540), (960, 540), (960, 540), (960, 540), (960, 540), (960, 540), (960, 540), (960, 540), (960, 540), (960, 540), (960, 540), (960, 540), (960, 540), (960, 540), (960, 540), (956, 538), (948, 519), (927, 467), (916, 428), (906, 387), (899, 341), (890, 272), (890, 255), (890, 240), (890, 229), (894, 207), (894, 200), (895, 194), (896, 191), (897, 186), (897, 184), (897, 182), (898, 180), (898, 178), (898, 177), (898, 177), (898, 177), (898, 177), (898, 177), (898, 177), (898, 177), (898, 177), (898, 177), (898, 177), (898, 177), (898, 177), (898, 177), (898, 177), (898, 177), (898, 177), (898, 177), (898, 176), (895, 171), (888, 162), (883, 156), (881, 152), (880, 147)]",258.49394581929016,"[9, 1, 2, 7, 8, 4, 5, 3, 6]","(0, 0.25)",DOT003C,DOT,C,English,Thu Aug 09 14:58:40 2018,Mouse
1,3,3,0,19,8,8,1,420,120,300,136,0,500,200,8000,"[(960, 540), (960, 540), (960, 540), (960, 540), (960, 540), (960, 540), (960, 540), (960, 540), (960, 540), (960, 540), (960, 540), (960, 541), (960, 541), (960, 541), (960, 541), (960, 541), (960, 541), (960, 541), (960, 541), (960, 541), (960, 541), (960, 541), (960, 541), (960, 541), (960, 541), (960, 541), (960, 541), (960, 541), (960, 541), (960, 541), (960, 541), (955, 541), (951, 541), (945, 540), (935, 540), (907, 534), (876, 532), (834, 530), (785, 525), (667, 510), (596, 502), (520, 493)]",186.09711153433125,"[9, 1, 2, 7, 8, 4, 5, 3, 6]","(0, 0.25)",DOT003C,DOT,C,English,Thu Aug 09 14:58:40 2018,Mouse
1,3,3,0,20,9,9,1,559,479,80,135,0,500,200,8000,"[(960, 540), (960, 540), (960, 540), (960, 540), (960, 540), (960, 540), (960, 540), (960, 540), (960, 540), (960, 540), (960, 540), (960, 540), (960, 540), (960, 540), (960, 540), (960, 540), (960, 540), (960, 540), (960, 540), (960, 540), (960, 540), (960, 540), (960, 540), (960, 540), (960, 540), (960, 540), (960, 540), (960, 540), (960, 540), (960, 540), (960, 540), (960, 540), (960, 540), (960, 540), (960, 540), (960, 540), (960, 540), (960, 540), (960, 540), (960, 540), (960, 540), (960, 540), (960, 540), (960, 540), (960, 540), (960, 540), (960, 540), (960, 539), (961, 539), (973, 544), (1002, 547), (1036, 547), (1145, 555), (1213, 566), (1292, 577), (1382, 588)]",6.4891663959275565,"[9, 1, 2, 7, 8, 4, 5, 3, 6]","(0, 0.25)",DOT003C,DOT,C,English,Thu Aug 09 14:58:40 2018,Mouse
1,3,3,0,21,6,4,0,-810,350,460,134,0,500,200,8000,"[(960, 540), (960, 540), (960, 540), (960, 540), (960, 540), (960, 540), (960, 540), (960, 540), (960, 540), (960, 540), (960, 540), (960, 540), (960, 540), (960, 540), (960, 540), (960, 540), (960, 540), (960, 540), (960, 540), (960, 540), (960, 540), (960, 540), (960, 540), (960, 540), (960, 540), (960, 540), (960, 540), (960, 540), (960, 540), (960, 540), (960, 540), (960, 540), (960, 540), (960, 540), (960, 543), (960, 543), (960, 543), (960, 543), (960, 544), (960, 544), (960, 544), (960, 544), (960, 544), (960, 544), (960, 545), (960, 545), (960, 545), (960, 545), (960, 545), (960, 545), (960, 545), (960, 545), (960, 545), (960, 545), (960, 545), (960, 545), (960, 545), (960, 545), (960, 545), (960, 545), (960, 545), (960, 545), (960, 545), (960, 545), (960, 545), (960, 545), (960, 545), (960, 545), (960, 545), (960, 545), (960, 545), (959, 541), (954, 531), (949, 522), (940, 507), (903, 449), (874, 412), (840, 372), (804, 334), (711, 253), (664, 223)]",226.9620571081854,"[9, 1, 2, 7, 8, 4, 5, 3, 6]","(0, 0.25)",DOT003C,DOT,C,English,Thu Aug 09 14:58:40 2018,Mouse
1,3,3,0,22,8,8,1,608,468,140,135,0,500,200,8000,"[(960, 540), (960, 540), (960, 540), (960, 540), (960, 540), (960, 540), (960, 540), (960, 540), (960, 540), (960, 540), (960, 540), (960, 540), (960, 540), (960, 540), (960, 540), (960, 540), (960, 540), (960, 540), (960, 540), (960, 540), (960, 540), (960, 540), (960, 540), (960, 540), (960, 540), (960, 540), (960, 540), (960, 540), (960, 540), (960, 540), (960, 540), (960, 540), (960, 540), (960, 540), (960, 540), (960, 540), (960, 540), (960, 540), (960, 540), (960, 540), (960, 540), (960, 540), (960, 540), (960, 540), (960, 540), (960, 540), (959, 541), (958, 541), (958, 541), (955, 543), (952, 543), (945, 543), (934, 543), (899, 543), (868, 543), (835, 543), (793, 543), (701, 543), (654, 545), (604, 545), (546, 545)]",179.30805562782538,"[9, 1, 2, 7, 8, 4, 5, 3, 6]","(0, 0.25)",DOT003C,DOT,C,English,Thu Aug 09 14:58:40 2018,Mouse
1,3,3,0,23,5,5,1,1009,509,500,135,0,500,200,8000,"[(960, 540), (960, 540), (960, 540), (960, 540), (960, 540), (960, 540), (960, 540), (960, 540), (960, 540), (960, 540), (960, 540), (960, 540), (960, 540), (960, 540), (960, 540), (960, 540), (960, 540), (960, 540), (960, 540), (960, 540), (960, 540), (960, 540), (960, 540), (960, 540), (960, 540), (960, 540), (960, 540), (960, 540), (960, 540), (960, 540), (960, 540), (960, 540), (960, 540), (960, 540), (960, 540), (960, 540), (960, 540), (960, 540), (960, 540), (960, 540), (960, 540), (960, 540), (960, 540), (960, 540), (960, 540), (960, 540), (960, 540), (960, 540), (960, 540), (960, 540), (960, 538), (958, 530), (954, 525), (948, 519), (943, 512), (932, 500), (928, 497), (926, 495), (924, 494), (922, 492), (922, 492), (922, 492), (922, 492), (922, 492), (922, 492), (922, 492), (922, 492), (922, 492), (922, 492), (922, 492), (922, 492), (922, 492), (922, 492), (922, 492), (922, 492), (922, 492), (922, 492), (922, 492), (922, 492), (922, 492), (922, 492), (922, 492), (922, 492), (922, 492), (922, 492), (922, 492), (922, 492), (922, 492), (922, 492), (922, 492), (922, 492), (922, 492), (922, 491), (920, 481), (919, 468), (907, 405), (899, 356), (895, 306), (895, 256), (895, 150), (895, 100)]",261.5966289094392,"[9, 1, 2, 7, 8, 4, 5, 3, 6]","(0, 0.25)",DOT003C,DOT,C,English,Thu Aug 09 14:58:40 2018,Mouse
1,3,3,0,24,2,2,1,489,329,160,134,0,500,200,8000,"[(960, 540), (960, 540), (960, 540), (960, 540), (960, 540), (960, 540), (960, 540), (960, 540), (960, 540), (960, 540), (960, 540), (960, 540), (960, 540), (960, 540), (960, 540), (960, 540), (960, 540), (960, 540), (960, 540), (960, 540), (960, 540), (960, 540), (960, 540), (960, 540), (960, 540), (960, 540), (960, 540), (960, 540), (960, 540), (960, 540), (960, 540), (960, 540), (958, 540), (956, 543), (955, 545), (955, 546), (954, 549), (950, 560), (949, 569), (947, 583), (944, 598), (937, 644), (932, 679), (928, 716), (921, 754), (910, 832), (902, 880), (899, 920), (891, 961)]",99.30776749365103,"[9, 1, 2, 7, 8, 4, 5, 3, 6]","(0, 0.25)",DOT003C,DOT,C,English,Thu Aug 09 14:58:40 2018,Mouse
1,3,3,0,25,9,9,1,439,329,110,133,0,500,200,8000,"[(960, 540), (960, 540), (960, 540), (960, 540), (960, 540), (960, 540), (960, 540), (960, 540), (960, 540), (960, 540), (960, 540), (960, 540), (960, 540), (960, 540), (960, 540), (960, 540), (960, 540), (960, 540), (960, 540), (960, 540), (960, 540), (960, 540), (960, 540), (960, 540), (960, 540), (960, 540), (960, 540), (960, 540), (960, 540), (960, 540), (960, 540), (960, 540), (961, 539), (963, 539), (966, 539), (982, 539), (994, 539), (1011, 539), (1038, 544), (1119, 567), (1171, 581), (1232, 598), (1295, 615), (1435, 645)]",12.46493284206499,"[9, 1, 2, 7, 8, 4, 5, 3, 6]","(0, 0.25)",DOT003C,DOT,C,English,Thu Aug 09 14:58:40 2018,Mouse
1,3,3,0,26,5,4,0,-550,460,90,132,0,500,200,8000,"[(960, 540), (960, 540), (960, 540), (960, 540), (960, 540), (960, 540), (960, 540), (960, 540), (960, 540), (960, 540), (960, 540), (960, 540), (960, 540), (960, 540), (960, 540), (960, 540), (960, 540), (960, 540), (960, 540), (960, 540), (960, 540), (960, 540), (960, 540), (960, 540), (960, 540), (960, 540), (960, 540), (960, 540), (960, 540), (960, 540), (960, 540), (960, 540), (960, 540), (960, 540), (960, 540), (960, 540), (960, 540), (960, 540), (960, 540), (960, 540), (960, 540), (960, 540), (960, 540), (960, 540), (960, 540), (959, 539), (954, 530), (947, 520), (939, 510), (925, 492), (881, 438), (849, 390), (804, 339), (754, 280), (645, 156)]",230.63754288445986,"[9, 1, 2, 7, 8, 4, 5, 3, 6]","(0, 0.25)",DOT003C,DOT,C,English,Thu Aug 09 14:58:40 2018,Mouse
1,3,3,0,27,5,5,1,520,270,250,133,0,500,200,8000,"[(960, 540), (960, 540), (960, 540), (960, 540), (960, 540), (960, 540), (960, 540), (960, 540), (960, 540), (960, 540), (960, 540), (960, 540), (960, 540), (960, 540), (960, 540), (960, 540), (960, 540), (960, 540), (960, 540), (960, 540), (960, 540), (960, 540), (960, 540), (960, 540), (960, 540), (960, 540), (960, 542), (960, 542), (960, 542), (960, 542), (960, 542), (960, 542), (960, 542), (960, 542), (960, 542), (960, 542), (960, 542), (960, 542), (958, 542), (957, 541), (956, 540), (955, 538), (952, 531), (949, 522), (946, 510), (943, 494), (924, 430), (912, 386), (896, 338), (884, 283), (859, 166), (845, 113)]",254.92669989968488,"[9, 1, 2, 7, 8, 4, 5, 3, 6]","(0, 0.25)",DOT003C,DOT,C,English,Thu Aug 09 14:58:40 2018,Mouse
1,3,3,0,28,6,7,0,-1768,1658,110,133,0,500,200,8000,"[(960, 540), (960, 540), (960, 540), (960, 540), (960, 540), (960, 540), (960, 540), (960, 540), (960, 540), (960, 540), (960, 540), (960, 540), (960, 540), (960, 540), (960, 540), (960, 540), (960, 540), (960, 540), (960, 540), (960, 540), (960, 540), (960, 540), (960, 540), (960, 540), (960, 540), (960, 540), (960, 540), (960, 540), (960, 540), (960, 540), (960, 540), (960, 540), (960, 540), (960, 540), (960, 540), (960, 540), (960, 540), (960, 540), (960, 540), (960, 540), (960, 540), (960, 540), (960, 540), (960, 540), (960, 540), (960, 540), (960, 540), (960, 540), (960, 540), (960, 540), (960, 540), (960, 540), (960, 540), (960, 540), (960, 540), (960, 540), (960, 540), (960, 540), (960, 540), (960, 540), (960, 540), (960, 540), (960, 540), (960, 540), (960, 540), (960, 540), (960, 540), (960, 540), (960, 540), (960, 540), (960, 540), (960, 540), (960, 540), (960, 540), (960, 540), (960, 540), (960, 540), (960, 540), (960, 540), (960, 540), (960, 540), (960, 540), (960, 540), (960, 540), (960, 540), (960, 540), (960, 540), (960, 540), (960, 540), (960, 540), (960, 540), (960, 540), (960, 540), (960, 540), (960, 540), (960, 540), (960, 540), (960, 540), (960, 540), (960, 540), (960, 540), (960, 540), (960, 540), (960, 540), (960, 540), (960, 540), (960, 540), (960, 540), (960, 540), (960, 540), (960, 540), (960, 540), (960, 540), (960, 540), (960, 540), (960, 540), (960, 540), (960, 540), (960, 540), (960, 540), (960, 540), (960, 540), (960, 540), (960, 540), (960, 540), (960, 540), (960, 540), (960, 540), (960, 540), (960, 540), (960, 540), (960, 540), (960, 540), (960, 540), (960, 540), (960, 540), (960, 540), (960, 540), (960, 540), (960, 540), (960, 540), (960, 540), (960, 540), (960, 540), (960, 540), (960, 540), (960, 540), (960, 540), (960, 540), (960, 540), (960, 540), (960, 540), (960, 540), (960, 540), (960, 540), (960, 540), (960, 540), (960, 540), (960, 540), (960, 540), (960, 540), (960, 540), (960, 540), (960, 540), (960, 540), (960, 542), (959, 545), (957, 546), (953, 552), (937, 568), (923, 580), (892, 600), (854, 623), (759, 691), (706, 726), (654, 760), (601, 800)]",144.08666682823602,"[9, 1, 2, 7, 8, 4, 5, 3, 6]","(0, 0.25)",DOT003C,DOT,C,English,Thu Aug 09 14:58:40 2018,Mouse
1,3,3,0,29,1,8,0,-1959,1829,130,134,0,500,200,8000,"[(960, 540), (960, 540), (960, 540), (960, 540), (960, 540), (960, 540), (960, 540), (960, 540), (960, 540), (960, 540), (960, 540), (960, 540), (960, 540), (960, 540), (960, 540), (960, 540), (960, 540), (960, 540), (960, 540), (960, 540), (960, 540), (960, 540), (960, 540), (960, 540), (960, 540), (960, 540), (960, 540), (960, 540), (960, 540), (960, 540), (960, 540), (960, 540), (960, 540), (960, 540), (960, 540), (960, 540), (960, 540), (960, 540), (960, 540), (960, 540), (960, 540), (960, 540), (960, 540), (960, 540), (960, 540), (960, 540), (960, 540), (960, 540), (960, 540), (960, 540), (960, 540), (960, 540), (960, 540), (960, 540), (960, 540), (960, 540), (960, 540), (960, 540), (960, 540), (960, 540), (960, 540), (960, 540), (960, 540), (960, 540), (960, 540), (960, 540), (960, 540), (960, 540), (960, 540), (960, 540), (960, 540), (960, 540), (960, 540), (960, 540), (960, 540), (960, 540), (960, 540), (960, 540), (960, 540), (960, 540), (960, 540), (960, 540), (960, 540), (960, 540), (960, 540), (960, 540), (960, 540), (960, 540), (960, 540), (960, 540), (960, 540), (960, 540), (960, 540), (960, 540), (960, 540), (960, 540), (960, 540), (960, 540), (960, 540), (960, 540), (960, 540), (960, 540), (960, 540), (960, 540), (960, 540), (960, 540), (960, 540), (960, 540), (960, 540), (960, 540), (960, 540), (960, 540), (960, 540), (960, 540), (960, 540), (960, 540), (960, 540), (960, 540), (960, 540), (960, 540), (960, 540), (960, 540), (960, 540), (960, 540), (960, 540), (960, 540), (960, 540), (960, 540), (960, 540), (960, 540), (960, 540), (960, 540), (960, 540), (960, 540), (960, 540), (960, 540), (960, 540), (960, 540), (960, 540), (960, 540), (960, 540), (960, 540), (960, 540), (960, 540), (960, 540), (960, 540), (960, 540), (960, 540), (960, 540), (960, 540), (960, 540), (960, 540), (960, 540), (960, 540), (960, 540), (960, 540), (960, 540), (960, 540), (960, 540), (960, 540), (960, 540), (960, 540), (960, 540), (960, 540), (960, 540), (960, 540), (960, 540), (960, 540), (960, 540), (960, 540), (960, 540), (960, 540), (960, 540), (960, 540), (960, 540), (960, 540), (960, 540), (960, 540), (960, 540), (960, 540), (960, 540), (960, 540), (960, 541), (960, 541), (960, 541), (960, 541), (960, 541), (951, 541), (938, 538), (917, 535), (888, 532), (793, 519), (745, 511), (688, 503), (625, 492), (504, 478)]",187.74273666763798,"[9, 1, 2, 7, 8, 4, 5, 3, 6]","(0, 0.25)",DOT003C,DOT,C,English,Thu Aug 09 14:58:40 2018,Mouse
1,3,3,0,30,6,6,1,659,559,100,135,0,500,200,8000,"[(960, 540), (960, 540), (960, 540), (960, 540), (960, 540), (960, 540), (960, 540), (960, 540), (960, 540), (960, 540), (960, 540), (960, 540), (960, 540), (960, 540), (960, 540), (960, 540), (960, 540), (960, 540), (960, 540), (960, 540), (960, 540), (960, 540), (960, 540), (960, 540), (960, 540), (960, 540), (960, 540), (960, 540), (960, 540), (960, 540), (960, 540), (960, 540), (960, 540), (960, 540), (960, 540), (960, 540), (960, 540), (960, 540), (960, 540), (960, 540), (960, 540), (960, 540), (960, 540), (960, 540), (960, 540), (960, 540), (960, 540), (960, 540), (960, 540), (960, 540), (960, 540), (960, 540), (960, 540), (960, 540), (960, 540), (962, 541), (966, 541), (971, 541), (994, 533), (1015, 530), (1047, 525), (1091, 513), (1196, 485), (1251, 473), (1314, 458), (1377, 441)]",346.64465903709254,"[9, 1, 2, 7, 8, 4, 5, 3, 6]","(0, 0.25)",DOT003C,DOT,C,English,Thu Aug 09 14:58:40 2018,Mouse
1,3,3,0,31,5,5,1,789,659,130,135,0,500,200,8000,"[(960, 540), (960, 540), (960, 540), (960, 540), (960, 540), (960, 540), (960, 540), (960, 540), (960, 540), (960, 540), (960, 540), (960, 540), (960, 540), (960, 540), (960, 540), (960, 540), (960, 540), (960, 540), (960, 540), (960, 540), (960, 540), (960, 540), (960, 540), (960, 540), (960, 540), (960, 540), (960, 540), (960, 540), (960, 540), (960, 540), (960, 540), (960, 540), (960, 540), (960, 540), (960, 540), (960, 540), (960, 540), (960, 540), (960, 540), (960, 540), (960, 540), (960, 540), (960, 540), (960, 540), (960, 540), (960, 540), (960, 540), (960, 540), (960, 540), (960, 540), (960, 540), (960, 540), (960, 540), (960, 540), (960, 540), (960, 540), (960, 540), (960, 540), (960, 540), (960, 540), (960, 540), (960, 540), (960, 540), (960, 540), (960, 540), (960, 539), (960, 539), (960, 536), (960, 531), (960, 525), (960, 515), (960, 475), (960, 439), (960, 398), (960, 353), (960, 269), (960, 217), (960, 170), (960, 122)]",270.0,"[9, 1, 2, 7, 8, 4, 5, 3, 6]","(0, 0.25)",DOT003C,DOT,C,English,Thu Aug 09 14:58:40 2018,Mouse
1,3,3,0,32,2,2,1,570,470,100,134,0,500,200,8000,"[(960, 540), (960, 540), (960, 540), (960, 540), (960, 540), (960, 540), (960, 540), (960, 540), (960, 540), (960, 540), (960, 540), (960, 540), (960, 540), (960, 540), (960, 540), (960, 540), (960, 540), (960, 540), (960, 540), (960, 540), (960, 540), (960, 540), (960, 540), (960, 540), (960, 540), (960, 540), (960, 540), (960, 540), (960, 540), (960, 540), (960, 540), (960, 540), (960, 540), (960, 540), (960, 540), (960, 540), (960, 540), (960, 540), (960, 540), (960, 540), (960, 540), (960, 540), (960, 540), (960, 540), (960, 540), (960, 540), (960, 546), (960, 569), (956, 589), (952, 613), (943, 641), (920, 709), (909, 745), (898, 787), (891, 827), (881, 918), (875, 964)]",101.33591695274356,"[9, 1, 2, 7, 8, 4, 5, 3, 6]","(0, 0.25)",DOT003C,DOT,C,English,Thu Aug 09 14:58:40 2018,Mouse
1,3,3,0,33,7,5,0,-618,538,80,133,0,500,200,8000,"[(960, 540), (960, 540), (960, 540), (960, 540), (960, 540), (960, 540), (960, 540), (960, 540), (960, 540), (960, 540), (960, 540), (960, 540), (960, 540), (960, 540), (960, 540), (960, 540), (960, 540), (960, 540), (960, 540), (960, 540), (960, 540), (960, 540), (960, 540), (960, 540), (960, 540), (960, 540), (960, 540), (960, 540), (960, 540), (960, 540), (960, 540), (960, 540), (960, 540), (960, 540), (960, 540), (960, 540), (960, 540), (960, 540), (960, 540), (960, 540), (960, 540), (960, 540), (960, 540), (960, 540), (960, 540), (960, 540), (960, 540), (960, 540), (960, 540), (960, 540), (960, 540), (960, 540), (960, 540), (960, 538), (960, 532), (960, 519), (960, 499), (951, 408), (941, 345), (932, 272), (921, 193), (902, 55)]",263.1805194470961,"[9, 1, 2, 7, 8, 4, 5, 3, 6]","(0, 0.25)",DOT003C,DOT,C,English,Thu Aug 09 14:58:40 2018,Mouse
1,3,3,0,34,5,5,1,199,149,50,134,0,500,200,8000,"[(960, 540), (960, 540), (960, 540), (960, 540), (960, 540), (960, 540), (960, 540), (960, 540), (960, 540), (960, 540), (960, 540), (960, 540), (960, 540), (960, 540), (955, 493), (948, 453), (940, 390), (929, 320), (912, 182), (908, 112)]",263.07278187399083,"[9, 1, 2, 7, 8, 4, 5, 3, 6]","(0, 0.25)",DOT003C,DOT,C,English,Thu Aug 09 14:58:40 2018,Mouse
1,3,3,0,35,1,5,0,-180,120,60,134,0,500,200,8000,"[(960, 540), (960, 540), (960, 540), (960, 540), (960, 540), (960, 540), (960, 540), (960, 540), (960, 540), (960, 540), (960, 540), (960, 532), (960, 512), (948, 409), (935, 338), (924, 265), (913, 197), (894, 50)]",262.328778516738,"[9, 1, 2, 7, 8, 4, 5, 3, 6]","(0, 0.25)",DOT003C,DOT,C,English,Thu Aug 09 14:58:40 2018,Mouse
1,3,3,0,36,6,6,1,539,459,80,135,0,500,200,8000,"[(960, 540), (960, 540), (960, 540), (960, 540), (960, 540), (960, 540), (960, 540), (960, 540), (960, 540), (960, 540), (960, 540), (960, 540), (960, 540), (960, 540), (960, 540), (960, 540), (960, 540), (960, 540), (960, 540), (960, 540), (960, 540), (960, 540), (960, 540), (960, 540), (960, 540), (960, 540), (960, 540), (960, 540), (960, 540), (960, 540), (960, 540), (960, 540), (960, 540), (960, 540), (960, 540), (960, 540), (960, 540), (960, 540), (960, 540), (960, 540), (960, 540), (960, 540), (960, 540), (960, 540), (960, 540), (966, 540), (994, 530), (1018, 524), (1055, 511), (1105, 497), (1208, 467), (1259, 442), (1320, 421), (1381, 404)]",342.09744838665716,"[9, 1, 2, 7, 8, 4, 5, 3, 6]","(0, 0.25)",DOT003C,DOT,C,English,Thu Aug 09 14:58:40 2018,Mouse
1,3,3,0,37,7,5,0,-360,270,90,135,0,500,200,8000,"[(960, 540), (960, 540), (960, 540), (960, 540), (960, 540), (960, 540), (960, 540), (960, 540), (960, 540), (960, 540), (960, 540), (960, 540), (960, 540), (960, 540), (960, 540), (960, 540), (960, 540), (960, 540), (960, 540), (960, 540), (960, 540), (960, 540), (960, 540), (960, 540), (960, 540), (960, 540), (960, 541), (954, 526), (948, 511), (939, 490), (928, 454), (905, 366), (888, 305), (869, 241), (850, 183), (825, 60)]",254.29136217098426,"[9, 1, 2, 7, 8, 4, 5, 3, 6]","(0, 0.25)",DOT003C,DOT,C,English,Thu Aug 09 14:58:40 2018,Mouse
1,3,3,0,38,7,7,1,590,330,260,136,0,500,200,8000,"[(960, 540), (960, 540), (960, 540), (960, 540), (960, 540), (960, 540), (960, 540), (960, 540), (960, 540), (960, 540), (960, 540), (960, 540), (960, 540), (960, 540), (960, 540), (960, 540), (960, 540), (960, 540), (960, 540), (960, 540), (960, 540), (960, 540), (960, 540), (960, 540), (960, 540), (960, 540), (960, 540), (960, 540), (960, 540), (960, 540), (960, 540), (960, 540), (960, 542), (960, 542), (960, 543), (960, 543), (959, 544), (959, 544), (959, 544), (959, 544), (959, 544), (959, 545), (959, 545), (959, 545), (958, 546), (958, 546), (955, 551), (954, 553), (951, 557), (947, 564), (936, 576), (926, 587), (916, 597), (901, 611), (846, 657), (812, 684), (773, 711), (726, 744), (627, 808)]",141.17272191369324,"[9, 1, 2, 7, 8, 4, 5, 3, 6]","(0, 0.25)",DOT003C,DOT,C,English,Thu Aug 09 14:58:40 2018,Mouse
1,3,3,0,39,6,6,1,1381,1271,110,136,0,500,200,8000,"[(960, 540), (960, 540), (960, 540), (960, 540), (960, 540), (960, 540), (960, 540), (960, 540), (960, 540), (960, 540), (960, 540), (960, 540), (960, 540), (960, 540), (960, 540), (960, 540), (960, 540), (960, 540), (960, 540), (960, 540), (960, 540), (960, 540), (960, 540), (960, 540), (960, 540), (960, 540), (960, 540), (960, 540), (960, 540), (960, 540), (960, 540), (960, 540), (960, 540), (960, 540), (960, 540), (960, 540), (960, 540), (960, 540), (960, 540), (960, 540), (960, 540), (960, 540), (960, 540), (960, 540), (960, 540), (960, 540), (960, 540), (960, 540), (960, 540), (960, 540), (960, 540), (960, 540), (960, 540), (960, 540), (960, 540), (960, 540), (960, 540), (960, 540), (960, 540), (960, 540), (960, 540), (960, 540), (960, 540), (960, 540), (960, 540), (960, 540), (960, 540), (960, 540), (960, 540), (960, 540), (960, 540), (960, 540), (960, 540), (960, 540), (960, 540), (960, 540), (960, 540), (960, 540), (960, 540), (960, 540), (960, 540), (960, 540), (960, 540), (960, 540), (960, 540), (960, 540), (960, 540), (960, 540), (960, 540), (960, 540), (960, 540), (960, 540), (960, 540), (960, 540), (960, 540), (960, 540), (960, 540), (960, 540), (960, 540), (960, 540), (960, 540), (960, 540), (960, 540), (960, 540), (960, 540), (960, 540), (960, 540), (960, 540), (960, 540), (960, 540), (960, 540), (960, 540), (960, 540), (960, 540), (960, 540), (960, 540), (960, 540), (960, 540), (960, 540), (960, 540), (960, 540), (960, 540), (960, 540), (960, 540), (960, 540), (960, 540), (960, 540), (962, 540), (963, 539), (966, 539), (973, 536), (994, 531), (1014, 522), (1054, 507), (1096, 492), (1203, 447), (1254, 431), (1306, 414), (1357, 396)]",340.06325865471865,"[9, 1, 2, 7, 8, 4, 5, 3, 6]","(0, 0.25)",DOT003C,DOT,C,English,Thu Aug 09 14:58:40 2018,Mouse
1,3,3,0,40,4,7,0,-718,378,340,135,0,500,200,8000,"[(960, 540), (960, 540), (960, 540), (960, 540), (960, 540), (960, 540), (960, 540), (960, 540), (960, 540), (960, 540), (960, 540), (960, 540), (960, 540), (960, 540), (960, 540), (960, 540), (960, 540), (960, 540), (960, 540), (960, 540), (960, 540), (960, 540), (960, 540), (960, 540), (960, 540), (960, 540), (960, 540), (960, 540), (960, 540), (960, 540), (960, 540), (960, 540), (960, 540), (960, 540), (960, 540), (960, 540), (960, 540), (959, 540), (956, 543), (946, 549), (940, 553), (931, 558), (926, 560), (917, 566), (912, 568), (908, 571), (905, 573), (901, 575), (900, 576), (900, 576), (899, 576), (899, 576), (899, 576), (899, 576), (899, 576), (899, 576), (899, 576), (898, 577), (898, 577), (897, 579), (896, 579), (895, 581), (892, 584), (886, 595), (875, 604), (866, 616), (850, 630), (798, 673), (769, 698), (733, 723), (694, 753), (603, 811)]",142.79773431363193,"[9, 1, 2, 7, 8, 4, 5, 3, 6]","(0, 0.25)",DOT003C,DOT,C,English,Thu Aug 09 14:58:40 2018,Mouse
1,3,3,0,41,4,5,0,-69,19,50,136,0,500,200,8000,"[(960, 521), (960, 482), (960, 374), (960, 308), (965, 238), (975, 170), (1007, 49)]",275.46786483980077,"[9, 1, 2, 7, 8, 4, 5, 3, 6]","(0, 0.25)",DOT003C,DOT,C,English,Thu Aug 09 14:58:40 2018,Mouse
1,3,3,0,42,2,3,0,-799,749,50,137,0,500,200,8000,"[(960, 540), (960, 540), (960, 540), (960, 540), (960, 540), (960, 540), (960, 540), (960, 540), (960, 540), (960, 540), (960, 540), (960, 540), (960, 540), (960, 540), (960, 540), (960, 540), (960, 540), (960, 540), (960, 540), (960, 540), (960, 540), (960, 540), (960, 540), (960, 540), (960, 540), (960, 540), (960, 540), (960, 540), (960, 540), (960, 540), (960, 540), (960, 540), (960, 540), (960, 540), (960, 540), (960, 540), (960, 540), (960, 540), (960, 540), (960, 540), (960, 540), (960, 540), (960, 540), (960, 540), (960, 540), (960, 540), (960, 540), (960, 540), (960, 540), (960, 540), (960, 540), (960, 540), (960, 540), (960, 540), (960, 540), (960, 540), (960, 540), (960, 540), (960, 540), (960, 540), (960, 540), (960, 540), (960, 540), (960, 540), (960, 540), (960, 540), (960, 540), (960, 540), (960, 540), (960, 540), (960, 540), (960, 540), (960, 540), (960, 540), (974, 511), (997, 472), (1031, 420), (1070, 359), (1159, 224), (1198, 158)]",301.9244189009101,"[9, 1, 2, 7, 8, 4, 5, 3, 6]","(0, 0.25)",DOT003C,DOT,C,English,Thu Aug 09 14:58:40 2018,Mouse
1,3,3,0,43,6,6,1,390,310,80,138,0,500,200,8000,"[(960, 540), (960, 540), (960, 540), (960, 540), (960, 540), (960, 540), (960, 540), (960, 540), (960, 540), (960, 540), (960, 540), (960, 540), (960, 540), (960, 540), (960, 540), (960, 540), (960, 540), (960, 540), (960, 540), (960, 540), (960, 540), (960, 540), (960, 540), (960, 540), (960, 540), (960, 540), (960, 540), (960, 540), (960, 540), (960, 540), (961, 540), (967, 540), (980, 535), (1035, 511), (1078, 491), (1132, 469), (1189, 439), (1314, 379), (1375, 353)]",335.74355801034284,"[9, 1, 2, 7, 8, 4, 5, 3, 6]","(0, 0.25)",DOT003C,DOT,C,English,Thu Aug 09 14:58:40 2018,Mouse
1,3,3,0,44,4,5,0,-779,699,80,138,0,500,200,8000,"[(960, 540), (960, 540), (960, 540), (960, 540), (960, 540), (960, 540), (960, 540), (960, 540), (960, 540), (960, 540), (960, 540), (960, 540), (960, 540), (960, 540), (960, 540), (960, 540), (960, 540), (960, 540), (960, 540), (960, 540), (960, 540), (960, 540), (960, 540), (960, 540), (960, 540), (960, 540), (960, 540), (960, 540), (960, 540), (960, 540), (960, 540), (960, 540), (960, 540), (960, 540), (960, 540), (960, 540), (960, 540), (960, 540), (960, 540), (960, 540), (960, 540), (960, 540), (960, 540), (960, 540), (960, 540), (960, 540), (960, 540), (960, 540), (960, 540), (960, 540), (960, 540), (960, 540), (960, 540), (960, 540), (960, 540), (960, 540), (960, 540), (960, 540), (960, 540), (960, 540), (960, 540), (960, 540), (960, 540), (960, 540), (960, 540), (960, 540), (960, 540), (960, 540), (960, 540), (961, 534), (956, 520), (952, 498), (943, 468), (923, 361), (915, 299), (906, 237), (896, 174), (882, 66)]",260.65532809790034,"[9, 1, 2, 7, 8, 4, 5, 3, 6]","(0, 0.25)",DOT003C,DOT,C,English,Thu Aug 09 14:58:40 2018,Mouse
1,3,3,0,45,4,5,0,-680,590,90,139,0,500,200,8000,"[(960, 540), (960, 540), (960, 540), (960, 540), (960, 540), (960, 540), (960, 540), (960, 540), (960, 540), (960, 540), (960, 540), (960, 540), (960, 540), (960, 540), (960, 540), (960, 540), (960, 540), (960, 540), (960, 540), (960, 540), (960, 540), (960, 540), (960, 540), (960, 540), (960, 540), (960, 540), (960, 540), (960, 540), (960, 540), (960, 540), (960, 540), (960, 540), (960, 540), (960, 540), (960, 540), (960, 540), (960, 540), (960, 540), (960, 540), (960, 540), (960, 540), (960, 540), (960, 540), (960, 540), (960, 540), (960, 540), (960, 540), (960, 540), (960, 540), (960, 540), (960, 540), (960, 540), (960, 540), (960, 540), (960, 540), (960, 540), (960, 540), (960, 540), (960, 539), (960, 532), (959, 518), (958, 497), (945, 424), (935, 373), (931, 325), (931, 275), (931, 172), (931, 125)]",266.00269656259235,"[9, 1, 2, 7, 8, 4, 5, 3, 6]","(0, 0.25)",DOT003C,DOT,C,English,Thu Aug 09 14:58:40 2018,Mouse
1,3,3,0,46,7,7,1,1738,298,1440,140,0,500,200,8000,"[(960, 540), (960, 540), (960, 540), (960, 540), (960, 540), (960, 540), (960, 540), (960, 540), (960, 540), (960, 540), (960, 540), (960, 540), (960, 540), (960, 540), (960, 540), (960, 540), (960, 540), (960, 540), (960, 540), (960, 540), (960, 540), (960, 540), (960, 540), (960, 540), (960, 540), (960, 540), (960, 540), (960, 540), (960, 540), (961, 540), (961, 540), (962, 540), (962, 540), (962, 540), (962, 540), (962, 540), (962, 540), (963, 540), (964, 540), (964, 540), (965, 540), (967, 540), (968, 540), (972, 540), (975, 537), (987, 532), (992, 530), (998, 526), (1003, 525), (1012, 521), (1015, 520), (1017, 519), (1019, 518), (1019, 518), (1019, 518), (1019, 518), (1019, 518), (1019, 518), (1019, 518), (1019, 518), (1019, 518), (1019, 518), (1019, 518), (1019, 518), (1019, 518), (1019, 518), (1019, 518), (1019, 518), (1019, 518), (1019, 518), (1019, 518), (1019, 518), (1019, 518), (1019, 518), (1019, 518), (1020, 518), (1020, 518), (1020, 518), (1020, 518), (1020, 518), (1020, 518), (1020, 518), (1020, 518), (1020, 518), (1020, 518), (1020, 518), (1020, 518), (1020, 518), (1020, 518), (1020, 518), (1020, 518), (1020, 518), (1020, 518), (1020, 518), (1020, 518), (1020, 518), (1020, 518), (1020, 518), (1020, 518), (1020, 518), (1020, 518), (1020, 518), (1020, 518), (1020, 518), (1020, 518), (1020, 518), (1020, 518), (1020, 518), (1020, 518), (1020, 518), (1020, 518), (1020, 518), (1020, 518), (1020, 518), (1020, 518), (1020, 518), (1020, 518), (1020, 518), (1020, 518), (1020, 518), (1020, 518), (1020, 518), (1020, 518), (1020, 518), (1020, 518), (1020, 518), (1020, 518), (1020, 518), (1020, 518), (1021, 518), (1021, 518), (1021, 518), (1021, 518), (1021, 518), (1021, 518), (1021, 518), (1021, 518), (1021, 518), (1021, 518), (1021, 518), (1021, 518), (1021, 518), (1021, 518), (1021, 518), (1021, 518), (1021, 518), (1021, 518), (1021, 518), (1021, 518), (1021, 518), (1021, 518), (1021, 518), (1021, 518), (1021, 518), (1021, 519), (1021, 519), (1021, 519), (1021, 519), (1021, 519), (1021, 519), (1019, 521), (1014, 526), (1010, 530), (1004, 535), (996, 542), (965, 564), (944, 582), (916, 605), (887, 630), (820, 689), (786, 716), (752, 746), (715, 773), (646, 822)]",138.07333251107337,"[9, 1, 2, 7, 8, 4, 5, 3, 6]","(0, 0.25)",DOT003C,DOT,C,English,Thu Aug 09 14:58:40 2018,Mouse
1,3,3,0,47,3,3,1,590,225,365,140,0,500,200,8000,"[(960, 540), (960, 540), (960, 540), (960, 540), (960, 540), (960, 540), (960, 540), (960, 540), (960, 540), (960, 540), (960, 540), (960, 540), (960, 540), (960, 540), (960, 540), (960, 540), (960, 540), (960, 540), (960, 540), (960, 540), (959, 540), (959, 540), (959, 540), (959, 540), (959, 540), (959, 540), (959, 540), (959, 540), (959, 540), (959, 540), (959, 540), (959, 540), (959, 540), (959, 540), (959, 540), (959, 540), (959, 540), (959, 540), (959, 540), (959, 540), (959, 540), (959, 540), (959, 540), (959, 540), (959, 540), (959, 540), (959, 540), (959, 540), (959, 540), (959, 540), (959, 540), (960, 540), (963, 539), (967, 531), (986, 489), (1006, 444), (1036, 381), (1067, 309), (1147, 135)]",294.78411125601605,"[9, 1, 2, 7, 8, 4, 5, 3, 6]","(0, 0.25)",DOT003C,DOT,C,English,Thu Aug 09 14:58:40 2018,Mouse
1,3,3,0,48,8,8,1,618,528,90,139,0,500,200,8000,"[(960, 540), (960, 540), (960, 540), (960, 540), (960, 540), (960, 540), (960, 540), (960, 540), (960, 540), (960, 540), (960, 540), (960, 540), (960, 540), (960, 540), (960, 540), (960, 540), (960, 540), (960, 540), (960, 540), (960, 540), (960, 540), (960, 540), (960, 540), (960, 540), (960, 540), (960, 540), (960, 540), (960, 540), (960, 540), (960, 540), (960, 540), (960, 540), (960, 540), (960, 540), (960, 540), (960, 540), (960, 540), (960, 540), (960, 540), (960, 540), (960, 540), (960, 540), (960, 540), (960, 540), (960, 540), (960, 540), (960, 540), (960, 540), (960, 540), (960, 540), (960, 540), (960, 540), (957, 540), (948, 540), (916, 540), (888, 540), (852, 540), (804, 540), (705, 540), (646, 540), (583, 540), (525, 540)]",180.0,"[9, 1, 2, 7, 8, 4, 5, 3, 6]","(0, 0.25)",DOT003C,DOT,C,English,Thu Aug 09 14:58:40 2018,Mouse
1,3,3,0,49,6,7,0,-990,830,160,138,0,500,200,8000,"[(960, 540), (960, 540), (960, 540), (960, 540), (960, 540), (960, 540), (960, 540), (960, 540), (960, 540), (960, 540), (960, 540), (960, 540), (960, 540), (960, 540), (960, 540), (960, 540), (960, 540), (960, 540), (960, 540), (960, 540), (960, 540), (960, 540), (960, 540), (960, 540), (960, 540), (960, 540), (960, 540), (960, 540), (960, 540), (960, 540), (960, 540), (960, 540), (960, 540), (960, 540), (960, 540), (960, 540), (960, 540), (960, 540), (960, 540), (960, 540), (960, 540), (960, 540), (960, 540), (960, 540), (960, 540), (960, 540), (960, 540), (960, 540), (960, 540), (960, 540), (960, 540), (960, 540), (960, 540), (960, 540), (960, 540), (960, 540), (960, 540), (960, 540), (960, 540), (960, 540), (960, 540), (960, 540), (960, 540), (960, 540), (960, 540), (960, 540), (960, 540), (960, 540), (960, 540), (960, 540), (960, 540), (960, 540), (960, 540), (960, 540), (960, 540), (960, 540), (960, 540), (960, 540), (960, 540), (960, 540), (960, 540), (960, 540), (960, 542), (960, 547), (960, 551), (955, 558), (949, 567), (933, 587), (918, 604), (903, 618), (885, 632), (841, 670), (815, 689), (793, 705), (768, 721), (716, 751), (687, 765), (659, 780), (632, 796)]",142.02839623894963,"[9, 1, 2, 7, 8, 4, 5, 3, 6]","(0, 0.25)",DOT003C,DOT,C,English,Thu Aug 09 14:58:40 2018,Mouse
1,3,3,0,50,4,5,0,-501,401,100,139,0,500,200,8000,"[(960, 540), (960, 540), (960, 540), (960, 540), (960, 540), (960, 540), (960, 540), (960, 540), (960, 540), (960, 540), (960, 540), (960, 540), (960, 540), (960, 540), (960, 540), (960, 540), (960, 540), (960, 540), (960, 540), (960, 540), (960, 540), (960, 540), (960, 540), (960, 540), (960, 540), (960, 540), (960, 540), (960, 540), (960, 540), (960, 540), (960, 540), (960, 540), (960, 540), (960, 540), (960, 540), (960, 540), (960, 540), (960, 540), (960, 540), (960, 532), (960, 523), (960, 512), (960, 500), (954, 452), (954, 416), (953, 374), (953, 324), (953, 222), (953, 161), (953, 108)]",269.0716774064071,"[9, 1, 2, 7, 8, 4, 5, 3, 6]","(0, 0.25)",DOT003C,DOT,C,English,Thu Aug 09 14:58:40 2018,Mouse
1,3,3,0,51,4,4,1,429,279,150,140,0,500,200,8000,"[(960, 540), (960, 540), (960, 540), (960, 540), (960, 540), (960, 540), (960, 540), (960, 540), (960, 540), (960, 540), (960, 540), (960, 540), (960, 540), (960, 540), (960, 540), (960, 540), (960, 540), (960, 540), (960, 540), (960, 540), (960, 540), (960, 540), (960, 540), (960, 540), (960, 540), (960, 540), (960, 540), (960, 538), (960, 535), (960, 533), (960, 533), (959, 531), (956, 526), (955, 523), (951, 519), (948, 515), (939, 501), (931, 491), (921, 475), (894, 448), (796, 378), (719, 335), (645, 293)]",218.1009518114993,"[9, 1, 2, 7, 8, 4, 5, 3, 6]","(0, 0.25)",DOT003C,DOT,C,English,Thu Aug 09 14:58:40 2018,Mouse
1,3,3,0,52,2,2,1,849,569,280,140,0,500,200,8000,"[(960, 540), (960, 540), (960, 540), (960, 540), (960, 540), (960, 540), (960, 540), (960, 540), (960, 540), (960, 540), (960, 540), (960, 540), (960, 540), (960, 540), (960, 540), (960, 540), (960, 540), (960, 540), (960, 540), (960, 540), (960, 540), (960, 540), (960, 540), (960, 540), (960, 540), (960, 540), (960, 540), (960, 540), (960, 540), (960, 540), (960, 540), (960, 540), (960, 540), (960, 540), (960, 540), (960, 540), (960, 540), (960, 540), (960, 540), (960, 540), (960, 540), (960, 540), (960, 540), (960, 540), (960, 540), (960, 540), (960, 540), (960, 540), (960, 540), (960, 540), (960, 540), (960, 540), (960, 540), (960, 540), (960, 540), (960, 540), (960, 543), (960, 543), (960, 546), (960, 547), (960, 551), (960, 552), (960, 553), (960, 554), (960, 556), (960, 556), (960, 558), (960, 559), (960, 563), (960, 566), (958, 570), (957, 574), (955, 588), (951, 598), (950, 609), (947, 625), (939, 668), (936, 689), (930, 714), (925, 738), (917, 797), (912, 834), (906, 875), (893, 916), (871, 989)]",101.21173928906947,"[9, 1, 2, 7, 8, 4, 5, 3, 6]","(0, 0.25)",DOT003C,DOT,C,English,Thu Aug 09 14:58:40 2018,Mouse
1,3,3,0,53,4,4,1,4070,2150,1920,139,0,500,200,8000,"[(960, 540), (960, 540), (960, 540), (960, 540), (960, 540), (960, 540), (960, 540), (960, 540), (960, 540), (960, 540), (960, 540), (960, 540), (960, 540), (960, 540), (960, 540), (960, 540), (960, 540), (960, 540), (960, 540), (960, 540), (960, 540), (960, 540), (960, 540), (960, 540), (960, 540), (960, 540), (960, 540), (960, 540), (960, 540), (960, 540), (960, 540), (960, 540), (960, 540), (960, 540), (960, 540), (960, 540), (960, 540), (960, 540), (960, 540), (960, 540), (960, 540), (960, 540), (960, 540), (960, 540), (960, 540), (960, 540), (960, 540), (960, 540), (960, 540), (960, 540), (960, 540), (960, 540), (960, 540), (960, 540), (960, 540), (960, 540), (960, 540), (960, 540), (960, 540), (960, 540), (960, 540), (960, 540), (960, 540), (960, 540), (960, 540), (960, 540), (960, 540), (960, 540), (960, 540), (960, 540), (960, 540), (960, 540), (960, 540), (960, 540), (960, 540), (960, 540), (960, 540), (960, 540), (960, 540), (960, 540), (960, 540), (960, 540), (960, 540), (960, 540), (960, 540), (960, 540), (960, 540), (960, 540), (960, 540), (960, 540), (960, 540), (960, 540), (960, 540), (960, 540), (960, 540), (960, 540), (960, 540), (960, 540), (960, 540), (960, 540), (960, 540), (960, 540), (960, 540), (960, 540), (960, 540), (960, 540), (960, 540), (960, 540), (960, 540), (960, 540), (960, 540), (960, 540), (960, 540), (960, 540), (960, 540), (960, 540), (960, 540), (960, 540), (960, 540), (960, 540), (960, 540), (960, 540), (960, 540), (960, 540), (960, 540), (960, 540), (960, 540), (960, 540), (960, 540), (960, 540), (960, 540), (960, 540), (960, 540), (960, 540), (960, 540), (960, 540), (960, 540), (960, 540), (960, 540), (960, 540), (960, 540), (960, 540), (960, 540), (960, 540), (960, 540), (960, 540), (960, 540), (960, 540), (960, 540), (960, 540), (960, 540), (960, 540), (960, 540), (960, 540), (960, 540), (960, 540), (960, 540), (960, 540), (960, 540), (960, 540), (960, 540), (960, 540), (960, 540), (960, 540), (960, 540), (960, 540), (960, 540), (960, 540), (960, 540), (960, 540), (960, 540), (960, 540), (960, 540), (960, 540), (960, 540), (960, 540), (960, 540), (960, 540), (960, 540), (960, 540), (960, 540), (960, 540), (960, 540), (960, 540), (960, 540), (960, 540), (960, 540), (960, 540), (960, 540), (960, 540), (960, 540), (960, 540), (960, 540), (960, 540), (960, 540), (960, 540), (960, 540), (960, 540), (960, 540), (960, 540), (960, 540), (960, 540), (960, 540), (960, 540), (960, 540), (960, 540), (960, 540), (960, 540), (960, 540), (960, 540), (960, 540), (960, 540), (960, 540), (960, 540), (961, 538), (961, 538), (961, 538), (961, 538), (961, 538), (961, 538), (961, 537), (961, 537), (961, 537), (961, 537), (961, 537), (961, 537), (961, 537), (961, 537), (961, 537), (961, 537), (961, 537), (961, 537), (961, 537), (961, 537), (961, 537), (961, 537), (961, 537), (961, 537), (961, 537), (961, 537), (961, 537), (961, 537), (961, 537), (961, 537), (961, 537), (961, 537), (961, 537), (961, 537), (961, 537), (961, 537), (961, 537), (961, 537), (961, 537), (961, 537), (961, 537), (961, 537), (961, 537), (961, 537), (961, 537), (961, 537), (961, 537), (961, 537), (961, 537), (961, 537), (961, 536), (961, 536), (960, 534), (959, 533), (958, 531), (957, 527), (953, 523), (948, 517), (944, 513), (940, 507), (930, 497), (923, 490), (915, 479), (907, 470), (892, 453), (885, 442), (877, 432), (868, 423), (854, 404), (847, 396), (840, 387), (833, 379), (819, 362), (811, 353), (804, 345), (796, 338), (783, 327), (776, 321), (771, 317), (767, 312), (761, 306), (756, 301), (752, 297), (750, 295), (745, 290), (743, 286), (741, 285), (740, 283), (738, 281), (738, 281), (736, 278), (736, 278), (735, 276), (734, 276), (733, 275), (732, 275), (731, 274), (731, 273), (730, 273), (729, 272), (728, 271), (728, 271), (727, 270), (727, 269), (727, 269), (726, 269), (726, 269), (725, 268), (724, 267), (724, 266), (724, 266), (724, 266), (723, 264), (723, 264), (723, 264), (723, 263), (722, 263), (722, 263), (722, 263), (722, 263), (722, 263), (722, 263), (722, 263), (722, 263), (722, 263), (722, 263), (722, 263), (722, 263), (722, 263), (722, 263), (722, 263), (722, 263), (722, 263), (722, 263), (722, 263), (722, 263), (722, 262), (722, 262), (722, 262), (722, 262), (722, 261), (722, 261), (722, 259), (723, 259), (725, 259), (727, 259), (727, 259), (729, 258), (731, 258), (733, 258), (735, 257), (736, 257), (738, 256), (739, 256), (740, 255), (740, 255), (740, 255), (740, 255), (740, 255), (740, 255), (740, 255), (740, 255), (740, 255), (741, 255), (741, 254), (741, 254), (741, 254), (741, 254), (741, 254), (741, 254), (741, 254), (741, 254), (741, 254), (741, 254), (741, 254), (743, 253), (743, 252), (743, 251), (743, 251), (743, 250), (743, 247), (743, 246), (743, 245), (742, 242), (739, 239), (739, 237), (736, 234), (735, 232), (731, 228), (727, 223), (725, 221), (723, 218), (720, 214)]",233.639636367612,"[9, 1, 2, 7, 8, 4, 5, 3, 6]","(0, 0.25)",DOT003C,DOT,C,English,Thu Aug 09 14:58:40 2018,Mouse
1,3,3,0,54,4,4,1,190,70,120,138,0,500,200,8000,"[(960, 540), (960, 540), (960, 540), (960, 540), (960, 540), (960, 540), (955, 532), (949, 524), (944, 515), (934, 502), (915, 474), (904, 458), (887, 433), (871, 407), (822, 340), (795, 304), (762, 266), (728, 227), (670, 156)]",232.93959339866151,"[9, 1, 2, 7, 8, 4, 5, 3, 6]","(0, 0.25)",DOT003C,DOT,C,English,Thu Aug 09 14:58:40 2018,Mouse
1,3,3,0,55,7,7,1,790,570,220,137,0,500,200,8000,"[(960, 540), (960, 540), (960, 540), (960, 540), (960, 540), (960, 540), (960, 540), (960, 540), (960, 540), (960, 540), (960, 540), (960, 540), (960, 540), (960, 540), (960, 540), (960, 540), (960, 540), (960, 540), (960, 540), (960, 540), (960, 540), (960, 540), (960, 540), (960, 540), (960, 540), (960, 540), (960, 540), (960, 540), (960, 540), (960, 540), (960, 540), (960, 540), (960, 540), (960, 540), (960, 540), (960, 540), (960, 540), (960, 540), (960, 540), (960, 540), (960, 540), (960, 540), (960, 540), (960, 540), (960, 540), (960, 540), (960, 540), (960, 540), (960, 540), (960, 540), (960, 540), (960, 540), (960, 540), (960, 540), (960, 540), (960, 540), (960, 541), (960, 543), (960, 548), (957, 552), (956, 556), (952, 561), (941, 576), (935, 584), (928, 594), (919, 603), (899, 620), (887, 630), (873, 638), (853, 652), (822, 674), (802, 687), (785, 700), (771, 709), (728, 732), (707, 743), (687, 750), (666, 759), (633, 773)]",144.52867513668704,"[9, 1, 2, 7, 8, 4, 5, 3, 6]","(0, 0.25)",DOT003C,DOT,C,English,Thu Aug 09 14:58:40 2018,Mouse
1,3,3,0,56,3,3,1,799,699,100,136,0,500,200,8000,"[(960, 540), (960, 540), (960, 540), (960, 540), (960, 540), (960, 540), (960, 540), (960, 540), (960, 540), (960, 540), (960, 540), (960, 540), (960, 540), (960, 540), (960, 540), (960, 540), (960, 540), (960, 540), (960, 540), (960, 540), (960, 540), (960, 540), (960, 540), (960, 540), (960, 540), (960, 540), (960, 540), (960, 540), (960, 540), (960, 540), (960, 540), (960, 540), (960, 540), (960, 540), (960, 540), (960, 540), (960, 540), (960, 540), (960, 540), (960, 540), (960, 540), (960, 540), (960, 540), (960, 540), (960, 540), (960, 540), (960, 540), (960, 540), (960, 540), (960, 540), (960, 540), (960, 540), (960, 540), (960, 540), (960, 540), (960, 540), (960, 540), (960, 540), (960, 540), (960, 540), (960, 540), (960, 540), (960, 540), (960, 540), (960, 540), (960, 540), (960, 540), (960, 540), (960, 540), (961, 541), (968, 535), (974, 526), (983, 511), (992, 497), (1028, 435), (1049, 397), (1075, 348), (1099, 304), (1149, 214), (1169, 166)]",299.19748604606445,"[9, 1, 2, 7, 8, 4, 5, 3, 6]","(0, 0.25)",DOT003C,DOT,C,English,Thu Aug 09 14:58:40 2018,Mouse
1,3,3,0,57,3,3,1,198,78,120,135,0,500,200,8000,"[(960, 540), (960, 540), (960, 540), (960, 540), (960, 540), (960, 540), (960, 540), (961, 539), (963, 537), (968, 525), (973, 515), (979, 501), (987, 485), (1017, 423), (1040, 385), (1060, 350), (1084, 306), (1136, 233), (1157, 205), (1176, 175)]",300.6162328146206,"[9, 1, 2, 7, 8, 4, 5, 3, 6]","(0, 0.25)",DOT003C,DOT,C,English,Thu Aug 09 14:58:40 2018,Mouse
1,3,3,0,58,9,7,0,-1619,1249,370,134,0,500,200,8000,"[(960, 540), (960, 540), (960, 540), (960, 540), (960, 540), (960, 540), (960, 540), (960, 540), (960, 540), (960, 540), (960, 540), (960, 540), (960, 540), (960, 540), (960, 540), (960, 540), (960, 540), (960, 540), (960, 540), (960, 540), (960, 540), (960, 540), (960, 540), (960, 540), (960, 540), (960, 540), (960, 540), (960, 540), (960, 540), (960, 540), (960, 540), (960, 540), (960, 540), (960, 540), (960, 540), (960, 540), (960, 540), (960, 540), (960, 540), (960, 540), (960, 540), (960, 540), (960, 540), (960, 540), (960, 540), (960, 540), (960, 540), (960, 540), (960, 540), (960, 540), (960, 540), (960, 540), (960, 540), (960, 540), (960, 540), (960, 540), (960, 540), (960, 540), (960, 540), (960, 540), (960, 540), (960, 540), (960, 540), (960, 540), (960, 540), (960, 540), (960, 540), (960, 540), (960, 540), (960, 540), (960, 540), (960, 540), (960, 540), (960, 540), (960, 540), (960, 540), (960, 540), (960, 540), (960, 540), (960, 540), (960, 540), (960, 540), (960, 540), (960, 540), (960, 540), (960, 540), (960, 540), (960, 540), (960, 540), (960, 540), (960, 540), (960, 540), (960, 540), (960, 540), (960, 540), (960, 540), (960, 540), (960, 540), (960, 540), (960, 540), (960, 540), (960, 540), (960, 540), (960, 540), (960, 540), (960, 540), (960, 540), (960, 540), (960, 540), (960, 540), (960, 540), (960, 540), (960, 540), (960, 540), (960, 540), (960, 540), (960, 540), (960, 540), (960, 540), (960, 540), (960, 540), (960, 540), (960, 540), (960, 540), (960, 541), (960, 542), (960, 542), (960, 543), (960, 546), (959, 546), (959, 546), (959, 548), (958, 550), (956, 552), (953, 554), (950, 557), (941, 562), (937, 566), (928, 572), (920, 577), (905, 587), (896, 593), (888, 599), (880, 604), (863, 614), (854, 618), (846, 623), (838, 629), (824, 639), (819, 643), (811, 649), (805, 654), (790, 670), (781, 676), (772, 684), (760, 694), (738, 713), (722, 724), (707, 735), (688, 748), (654, 773), (640, 780)]",143.13010235415598,"[9, 1, 2, 7, 8, 4, 5, 3, 6]","(0, 0.25)",DOT003C,DOT,C,English,Thu Aug 09 14:58:40 2018,Mouse
1,3,3,0,59,2,2,1,629,499,130,135,0,500,200,8000,"[(960, 540), (960, 540), (960, 540), (960, 540), (960, 540), (960, 540), (960, 540), (960, 540), (960, 540), (960, 540), (960, 540), (960, 540), (960, 540), (960, 540), (960, 540), (960, 540), (960, 540), (960, 540), (960, 540), (960, 540), (960, 540), (960, 540), (960, 540), (960, 540), (960, 540), (960, 540), (960, 540), (960, 540), (960, 540), (960, 540), (960, 540), (960, 540), (960, 540), (960, 540), (960, 540), (960, 540), (960, 540), (960, 540), (960, 540), (960, 540), (960, 540), (960, 540), (960, 540), (960, 540), (960, 540), (960, 540), (960, 540), (960, 540), (960, 540), (960, 542), (960, 546), (960, 553), (960, 565), (957, 603), (951, 625), (941, 651), (928, 678), (912, 734), (903, 764), (900, 796), (895, 831), (895, 914), (897, 957)]",98.59122543222765,"[9, 1, 2, 7, 8, 4, 5, 3, 6]","(0, 0.25)",DOT003C,DOT,C,English,Thu Aug 09 14:58:40 2018,Mouse
1,3,3,0,60,6,6,1,489,259,230,135,0,500,200,8000,"[(960, 540), (960, 540), (960, 540), (960, 540), (960, 540), (960, 540), (960, 540), (960, 540), (960, 540), (960, 540), (960, 540), (960, 540), (960, 540), (960, 540), (960, 540), (960, 540), (960, 540), (960, 540), (960, 540), (960, 540), (960, 540), (960, 540), (960, 540), (960, 540), (960, 540), (961, 540), (962, 540), (964, 540), (967, 539), (973, 537), (977, 536), (982, 535), (987, 532), (1002, 529), (1011, 526), (1020, 524), (1032, 519), (1057, 512), (1069, 508), (1088, 500), (1106, 493), (1152, 466), (1173, 455), (1200, 440), (1220, 424), (1270, 393), (1292, 381), (1309, 368), (1321, 360)]",333.49846961675684,"[9, 1, 2, 7, 8, 4, 5, 3, 6]","(0, 0.25)",DOT003C,DOT,C,English,Thu Aug 09 14:58:40 2018,Mouse
1,3,3,0,61,2,3,0,-821,721,100,134,0,500,200,8000,"[(960, 540), (960, 540), (960, 540), (960, 540), (960, 540), (960, 540), (960, 540), (960, 540), (960, 540), (960, 540), (960, 540), (960, 540), (960, 540), (960, 540), (960, 540), (960, 540), (960, 540), (960, 540), (960, 540), (960, 540), (960, 540), (960, 540), (960, 540), (960, 540), (960, 540), (960, 540), (960, 540), (960, 540), (960, 540), (960, 540), (960, 540), (960, 540), (960, 540), (960, 540), (960, 540), (960, 540), (960, 540), (960, 540), (960, 540), (960, 540), (960, 540), (960, 540), (960, 540), (960, 540), (960, 540), (960, 540), (960, 540), (960, 540), (960, 540), (960, 540), (960, 540), (960, 540), (960, 540), (960, 540), (960, 540), (960, 540), (960, 540), (960, 540), (960, 540), (960, 540), (960, 540), (960, 540), (960, 540), (960, 540), (960, 540), (960, 540), (960, 540), (960, 540), (960, 540), (960, 540), (960, 540), (960, 540), (964, 531), (968, 521), (974, 507), (983, 483), (1009, 423), (1026, 388), (1044, 353), (1068, 307), (1119, 227), (1144, 188), (1165, 152)]",297.84975647524914,"[9, 1, 2, 7, 8, 4, 5, 3, 6]","(0, 0.25)",DOT003C,DOT,C,English,Thu Aug 09 14:58:40 2018,Mouse
1,3,3,0,62,2,2,1,370,150,220,135,0,500,200,8000,"[(960, 540), (960, 540), (960, 540), (960, 540), (960, 540), (960, 540), (960, 540), (960, 540), (960, 540), (960, 540), (960, 540), (960, 540), (960, 540), (960, 540), (960, 541), (960, 541), (960, 542), (960, 542), (960, 542), (960, 542), (959, 543), (959, 544), (958, 545), (958, 547), (954, 553), (951, 559), (945, 569), (939, 578), (926, 603), (919, 619), (904, 643), (890, 673), (863, 726), (849, 763), (834, 800), (822, 842), (805, 937)]",111.32707617891485,"[9, 1, 2, 7, 8, 4, 5, 3, 6]","(0, 0.25)",DOT003C,DOT,C,English,Thu Aug 09 14:58:40 2018,Mouse
1,3,3,0,63,8,8,1,658,508,150,135,0,500,200,8000,"[(960, 540), (960, 540), (960, 540), (960, 540), (960, 540), (960, 540), (960, 540), (960, 540), (960, 540), (960, 540), (960, 540), (960, 540), (960, 540), (960, 540), (960, 540), (960, 540), (960, 540), (960, 540), (960, 540), (960, 540), (960, 540), (960, 540), (960, 540), (960, 540), (960, 540), (960, 540), (960, 540), (960, 540), (960, 540), (960, 540), (960, 540), (960, 540), (960, 540), (960, 540), (960, 540), (960, 540), (960, 540), (960, 540), (960, 540), (960, 540), (960, 540), (960, 540), (960, 540), (960, 540), (960, 540), (960, 540), (960, 540), (960, 540), (960, 540), (960, 540), (957, 539), (953, 539), (948, 538), (944, 538), (926, 538), (912, 538), (895, 538), (873, 538), (822, 538), (794, 538), (761, 538), (725, 538), (646, 535), (610, 535), (565, 535), (523, 531)]",181.17983782083004,"[9, 1, 2, 7, 8, 4, 5, 3, 6]","(0, 0.25)",DOT003C,DOT,C,English,Thu Aug 09 14:58:40 2018,Mouse
1,3,3,0,64,3,3,1,759,509,250,134,0,500,200,8000,"[(960, 540), (960, 540), (960, 540), (960, 540), (960, 540), (960, 540), (960, 540), (960, 540), (960, 540), (960, 540), (960, 540), (960, 540), (960, 540), (960, 540), (960, 540), (960, 540), (960, 540), (960, 540), (960, 540), (960, 540), (960, 540), (960, 540), (960, 540), (960, 540), (960, 540), (960, 540), (960, 540), (960, 540), (960, 540), (960, 540), (960, 540), (960, 540), (960, 540), (960, 540), (960, 540), (960, 540), (960, 540), (960, 540), (960, 540), (960, 540), (960, 540), (960, 540), (960, 540), (960, 540), (960, 540), (960, 540), (960, 540), (960, 540), (960, 540), (960, 540), (961, 539), (964, 534), (967, 531), (968, 530), (970, 528), (974, 523), (976, 522), (978, 520), (979, 520), (981, 518), (983, 516), (985, 514), (986, 512), (992, 505), (996, 501), (1000, 494), (1007, 488), (1025, 468), (1038, 452), (1052, 433), (1069, 412), (1113, 358), (1138, 329), (1158, 301), (1182, 265), (1220, 211)]",308.3183849314212,"[9, 1, 2, 7, 8, 4, 5, 3, 6]","(0, 0.25)",DOT003C,DOT,C,English,Thu Aug 09 14:58:40 2018,Mouse
1,3,3,0,65,7,7,1,1149,489,660,133,0,500,200,8000,"[(960, 540), (960, 540), (960, 540), (960, 540), (960, 540), (960, 540), (960, 540), (960, 540), (960, 540), (960, 540), (960, 540), (960, 540), (960, 540), (960, 540), (960, 540), (960, 540), (960, 540), (960, 540), (960, 540), (960, 540), (960, 540), (960, 540), (960, 540), (960, 540), (960, 540), (960, 540), (960, 540), (960, 540), (960, 540), (960, 540), (960, 540), (960, 540), (960, 540), (960, 540), (960, 540), (960, 540), (960, 540), (960, 540), (960, 540), (960, 540), (960, 540), (960, 540), (960, 540), (960, 540), (960, 540), (960, 540), (960, 540), (960, 540), (958, 541), (956, 541), (942, 543), (935, 543), (928, 543), (919, 543), (897, 544), (886, 544), (872, 544), (863, 544), (844, 544), (836, 544), (830, 544), (826, 544), (823, 544), (823, 544), (823, 544), (823, 544), (823, 544), (823, 544), (823, 544), (823, 544), (823, 544), (823, 544), (823, 544), (823, 544), (823, 544), (823, 544), (823, 544), (823, 544), (823, 544), (823, 544), (822, 544), (821, 545), (818, 548), (818, 549), (815, 553), (812, 557), (806, 568), (803, 573), (796, 580), (792, 588), (777, 607), (768, 617), (759, 626), (751, 636), (728, 659), (719, 668), (712, 676), (702, 688), (688, 703), (680, 711), (674, 720), (669, 725), (662, 736), (660, 738), (658, 742), (656, 746), (651, 753), (650, 757), (647, 761), (645, 764), (641, 770), (639, 772), (637, 774), (637, 775), (634, 777)]",143.98307823453843,"[9, 1, 2, 7, 8, 4, 5, 3, 6]","(0, 0.25)",DOT003C,DOT,C,English,Thu Aug 09 14:58:40 2018,Mouse
1,3,3,0,66,2,3,0,-749,649,100,132,0,500,200,8000,"[(960, 540), (960, 540), (960, 540), (960, 540), (960, 540), (960, 540), (960, 540), (960, 540), (960, 540), (960, 540), (960, 540), (960, 540), (960, 540), (960, 540), (960, 540), (960, 540), (960, 540), (960, 540), (960, 540), (960, 540), (960, 540), (960, 540), (960, 540), (960, 540), (960, 540), (960, 540), (960, 540), (960, 540), (960, 540), (960, 540), (960, 540), (960, 540), (960, 540), (960, 540), (960, 540), (960, 540), (960, 540), (960, 540), (960, 540), (960, 540), (960, 540), (960, 540), (960, 540), (960, 540), (960, 540), (960, 540), (960, 540), (960, 540), (960, 540), (960, 540), (960, 540), (960, 540), (960, 540), (960, 540), (960, 540), (960, 540), (960, 540), (960, 540), (960, 540), (960, 540), (960, 540), (960, 540), (960, 540), (960, 540), (960, 541), (962, 541), (971, 520), (978, 502), (995, 474), (1013, 442), (1065, 367), (1098, 322), (1127, 285), (1158, 248), (1212, 185)]",305.36938626669735,"[9, 1, 2, 7, 8, 4, 5, 3, 6]","(0, 0.25)",DOT003C,DOT,C,English,Thu Aug 09 14:58:40 2018,Mouse
1,3,3,0,67,1,6,0,-751,341,410,133,0,500,200,8000,"[(960, 540), (960, 540), (960, 540), (960, 540), (960, 540), (960, 540), (960, 540), (960, 540), (960, 540), (960, 540), (960, 540), (960, 540), (960, 540), (960, 540), (960, 540), (960, 540), (960, 540), (960, 540), (960, 540), (960, 540), (960, 540), (960, 540), (960, 540), (960, 540), (960, 540), (960, 540), (960, 540), (960, 540), (960, 540), (960, 540), (960, 540), (960, 540), (960, 540), (960, 540), (960, 541), (960, 541), (959, 542), (959, 542), (959, 542), (959, 542), (959, 542), (959, 542), (959, 542), (959, 542), (959, 542), (959, 542), (959, 542), (959, 542), (959, 542), (959, 542), (959, 542), (959, 542), (959, 542), (959, 542), (959, 542), (959, 542), (959, 542), (959, 542), (959, 542), (959, 542), (959, 543), (959, 543), (959, 543), (959, 543), (959, 543), (959, 543), (958, 542), (968, 534), (975, 529), (988, 522), (1016, 507), (1086, 472), (1137, 449), (1185, 429), (1233, 407), (1327, 363)]",334.2525059922834,"[9, 1, 2, 7, 8, 4, 5, 3, 6]","(0, 0.25)",DOT003C,DOT,C,English,Thu Aug 09 14:58:40 2018,Mouse
1,3,3,0,68,3,3,1,787,237,550,134,0,500,200,8000,"[(960, 540), (960, 540), (960, 540), (960, 540), (960, 540), (960, 540), (960, 540), (960, 540), (960, 540), (960, 540), (960, 540), (960, 540), (960, 540), (960, 540), (960, 540), (960, 540), (960, 540), (960, 540), (960, 540), (960, 540), (960, 540), (960, 540), (960, 540), (960, 541), (960, 541), (960, 541), (960, 541), (960, 542), (960, 542), (960, 543), (960, 543), (960, 543), (960, 543), (960, 543), (960, 543), (960, 543), (960, 543), (960, 543), (960, 543), (960, 543), (960, 543), (960, 543), (960, 543), (960, 543), (960, 543), (960, 543), (960, 543), (960, 543), (960, 543), (960, 543), (960, 543), (960, 543), (960, 543), (960, 543), (960, 543), (960, 543), (960, 543), (960, 543), (960, 543), (960, 543), (960, 543), (960, 543), (960, 543), (960, 543), (960, 543), (960, 543), (961, 540), (963, 538), (963, 533), (965, 526), (974, 500), (978, 481), (990, 449), (1005, 415), (1044, 321), (1072, 277), (1101, 228), (1129, 186), (1183, 98)]",296.77208109633875,"[9, 1, 2, 7, 8, 4, 5, 3, 6]","(0, 0.25)",DOT003C,DOT,C,English,Thu Aug 09 14:58:40 2018,Mouse
1,3,3,0,69,5,5,1,669,409,260,134,0,500,200,8000,"[(960, 540), (960, 540), (960, 540), (960, 540), (960, 540), (960, 540), (960, 540), (960, 540), (960, 540), (960, 540), (960, 540), (960, 540), (960, 540), (960, 540), (960, 540), (960, 540), (960, 540), (960, 540), (960, 540), (960, 540), (960, 540), (960, 540), (960, 540), (960, 540), (960, 540), (960, 540), (960, 540), (960, 540), (960, 540), (960, 540), (960, 540), (960, 540), (960, 540), (960, 540), (960, 540), (960, 540), (960, 540), (960, 540), (960, 540), (960, 540), (960, 539), (960, 539), (960, 539), (960, 539), (960, 539), (960, 539), (960, 539), (960, 539), (960, 539), (960, 539), (960, 539), (960, 539), (960, 539), (960, 539), (960, 538), (960, 537), (960, 536), (959, 531), (955, 517), (953, 506), (946, 486), (937, 452), (911, 363), (894, 305), (877, 244), (863, 184), (846, 48)]",256.95436293705137,"[9, 1, 2, 7, 8, 4, 5, 3, 6]","(0, 0.25)",DOT003C,DOT,C,English,Thu Aug 09 14:58:40 2018,Mouse
1,3,3,0,70,1,2,0,-729,359,370,133,0,500,200,8000,"[(960, 540), (960, 540), (960, 540), (960, 540), (960, 540), (960, 540), (960, 540), (960, 540), (960, 540), (960, 540), (960, 540), (960, 540), (960, 540), (960, 540), (960, 540), (960, 540), (960, 540), (960, 540), (960, 540), (960, 540), (960, 540), (960, 540), (960, 540), (960, 540), (960, 540), (960, 540), (960, 540), (960, 540), (960, 540), (960, 540), (960, 540), (960, 540), (960, 540), (960, 540), (960, 540), (960, 541), (960, 542), (960, 542), (960, 543), (960, 543), (960, 543), (960, 545), (960, 549), (960, 550), (960, 552), (960, 554), (960, 557), (960, 559), (960, 561), (960, 563), (960, 566), (960, 568), (960, 571), (960, 574), (960, 582), (960, 588), (959, 596), (958, 604), (955, 628), (952, 642), (951, 654), (947, 672), (940, 704), (935, 729), (933, 744), (928, 766), (927, 809), (926, 834), (926, 860), (926, 882), (926, 921), (926, 938), (926, 950)]",94.74051057389119,"[9, 1, 2, 7, 8, 4, 5, 3, 6]","(0, 0.25)",DOT003C,DOT,C,English,Thu Aug 09 14:58:40 2018,Mouse
1,3,3,0,71,3,3,1,358,288,70,134,0,500,200,8000,"[(960, 540), (960, 540), (960, 540), (960, 540), (960, 540), (960, 540), (960, 540), (960, 540), (960, 540), (960, 540), (960, 540), (960, 540), (960, 540), (960, 540), (960, 540), (960, 540), (960, 540), (960, 540), (960, 540), (960, 540), (960, 540), (960, 540), (960, 540), (960, 540), (960, 540), (960, 540), (960, 540), (960, 540), (962, 540), (966, 533), (972, 519), (987, 487), (1037, 394), (1073, 336), (1123, 262), (1168, 190)]",300.7224109522868,"[9, 1, 2, 7, 8, 4, 5, 3, 6]","(0, 0.25)",DOT003C,DOT,C,English,Thu Aug 09 14:58:40 2018,Mouse
1,3,3,0,72,7,5,0,-990,890,100,134,0,500,200,8000,"[(960, 540), (960, 540), (960, 540), (960, 540), (960, 540), (960, 540), (960, 540), (960, 540), (960, 540), (960, 540), (960, 540), (960, 540), (960, 540), (960, 540), (960, 540), (960, 540), (960, 540), (960, 540), (960, 540), (960, 540), (960, 540), (960, 540), (960, 540), (960, 540), (960, 540), (960, 540), (960, 540), (960, 540), (960, 540), (960, 540), (960, 540), (960, 540), (960, 540), (960, 540), (960, 540), (960, 540), (960, 540), (960, 540), (960, 540), (960, 540), (960, 540), (960, 540), (960, 540), (960, 540), (960, 540), (960, 540), (960, 540), (960, 540), (960, 540), (960, 540), (960, 540), (960, 540), (960, 540), (960, 540), (960, 540), (960, 540), (960, 540), (960, 540), (960, 540), (960, 540), (960, 540), (960, 540), (960, 540), (960, 540), (960, 540), (960, 540), (960, 540), (960, 540), (960, 540), (960, 540), (960, 540), (960, 540), (960, 540), (960, 540), (960, 540), (960, 540), (960, 540), (960, 540), (960, 540), (960, 540), (960, 540), (960, 540), (960, 540), (960, 540), (960, 540), (960, 540), (960, 540), (960, 540), (960, 538), (960, 529), (959, 511), (949, 450), (943, 409), (938, 369), (932, 323), (921, 237), (915, 192), (910, 154), (905, 122)]",262.5041423602701,"[9, 1, 2, 7, 8, 4, 5, 3, 6]","(0, 0.25)",DOT003C,DOT,C,English,Thu Aug 09 14:58:40 2018,Mouse
1,3,3,0,73,1,1,1,750,540,210,135,0,500,200,8000,"[(960, 540), (960, 540), (960, 540), (960, 540), (960, 540), (960, 540), (960, 540), (960, 540), (960, 540), (960, 540), (960, 540), (960, 540), (960, 540), (960, 540), (960, 540), (960, 540), (960, 540), (960, 540), (960, 540), (960, 540), (960, 540), (960, 540), (960, 540), (960, 540), (960, 540), (960, 540), (960, 540), (960, 540), (960, 540), (960, 540), (960, 540), (960, 540), (960, 540), (960, 540), (960, 540), (960, 540), (960, 540), (960, 540), (960, 540), (960, 540), (960, 540), (960, 540), (960, 540), (960, 540), (960, 540), (960, 540), (960, 540), (960, 540), (960, 540), (960, 540), (960, 540), (960, 540), (960, 540), (960, 542), (960, 543), (960, 547), (960, 549), (960, 551), (961, 554), (965, 564), (969, 573), (974, 584), (979, 597), (997, 639), (1010, 666), (1031, 701), (1048, 731), (1081, 788), (1092, 810), (1104, 829), (1113, 845), (1126, 868), (1134, 881), (1143, 895), (1150, 908)]",62.69249647926145,"[9, 1, 2, 7, 8, 4, 5, 3, 6]","(0, 0.25)",DOT003C,DOT,C,English,Thu Aug 09 14:58:40 2018,Mouse
1,3,3,0,74,7,7,1,998,808,190,135,0,500,200,8000,"[(960, 540), (960, 540), (960, 540), (960, 540), (960, 540), (960, 540), (960, 540), (960, 540), (960, 540), (960, 540), (960, 540), (960, 540), (960, 540), (960, 540), (960, 540), (960, 540), (960, 540), (960, 540), (960, 540), (960, 540), (960, 540), (960, 540), (960, 540), (960, 540), (960, 540), (960, 540), (960, 540), (960, 540), (960, 540), (960, 540), (960, 540), (960, 540), (960, 540), (960, 540), (960, 540), (960, 540), (960, 540), (960, 540), (960, 540), (960, 540), (960, 540), (960, 540), (960, 540), (960, 540), (960, 540), (960, 540), (960, 540), (960, 540), (960, 540), (960, 540), (960, 540), (960, 540), (960, 540), (960, 540), (960, 540), (960, 540), (960, 540), (960, 540), (960, 540), (960, 540), (960, 540), (960, 540), (960, 540), (960, 540), (960, 540), (960, 540), (960, 540), (960, 540), (960, 540), (960, 540), (960, 540), (960, 540), (960, 540), (960, 540), (960, 540), (960, 540), (960, 540), (960, 540), (960, 540), (960, 540), (957, 540), (957, 540), (956, 542), (953, 545), (952, 548), (947, 552), (939, 560), (926, 572), (918, 578), (908, 588), (896, 596), (861, 621), (841, 633), (819, 647), (791, 666), (741, 702), (715, 720), (693, 735), (670, 753), (634, 778)]",143.8682628332076,"[9, 1, 2, 7, 8, 4, 5, 3, 6]","(0, 0.25)",DOT003C,DOT,C,English,Thu Aug 09 14:58:40 2018,Mouse
1,3,3,0,75,6,6,1,708,588,120,134,0,500,200,8000,"[(960, 540), (960, 540), (960, 540), (960, 540), (960, 540), (960, 540), (960, 540), (960, 540), (960, 540), (960, 540), (960, 540), (960, 540), (960, 540), (960, 540), (960, 540), (960, 540), (960, 540), (960, 540), (960, 540), (960, 540), (960, 540), (960, 540), (960, 540), (960, 540), (960, 540), (960, 540), (960, 540), (960, 540), (960, 540), (960, 540), (960, 540), (960, 540), (960, 540), (960, 540), (960, 540), (960, 540), (960, 540), (960, 540), (960, 540), (960, 540), (960, 540), (960, 540), (960, 540), (960, 540), (960, 540), (960, 540), (960, 540), (960, 540), (960, 540), (960, 540), (960, 540), (960, 540), (960, 540), (960, 540), (960, 540), (960, 540), (960, 540), (960, 540), (967, 541), (977, 536), (990, 531), (1008, 524), (1056, 509), (1090, 496), (1127, 485), (1163, 472), (1244, 448), (1273, 434), (1308, 416), (1334, 406), (1379, 386)]",339.8195116692207,"[9, 1, 2, 7, 8, 4, 5, 3, 6]","(0, 0.25)",DOT003C,DOT,C,English,Thu Aug 09 14:58:40 2018,Mouse
1,3,3,0,76,3,3,1,499,429,70,133,0,500,200,8000,"[(960, 540), (960, 540), (960, 540), (960, 540), (960, 540), (960, 540), (960, 540), (960, 540), (960, 540), (960, 540), (960, 540), (960, 540), (960, 540), (960, 540), (960, 540), (960, 540), (960, 540), (960, 540), (960, 540), (960, 540), (960, 540), (960, 540), (960, 540), (960, 540), (960, 540), (960, 540), (960, 540), (960, 540), (960, 540), (960, 540), (960, 540), (960, 540), (960, 540), (960, 540), (960, 540), (960, 540), (960, 540), (960, 540), (960, 540), (960, 540), (960, 540), (960, 540), (963, 533), (970, 514), (978, 481), (990, 442), (1030, 317), (1061, 244), (1092, 169), (1116, 104)]",289.68711619812586,"[9, 1, 2, 7, 8, 4, 5, 3, 6]","(0, 0.25)",DOT003C,DOT,C,English,Thu Aug 09 14:58:40 2018,Mouse
1,3,3,0,77,7,1,0,-639,579,60,132,0,500,200,8000,"[(960, 540), (960, 540), (960, 540), (960, 540), (960, 540), (960, 540), (960, 540), (960, 540), (960, 540), (960, 540), (960, 540), (960, 540), (960, 540), (960, 540), (960, 540), (960, 540), (960, 540), (960, 540), (960, 540), (960, 540), (960, 540), (960, 540), (960, 540), (960, 540), (960, 540), (960, 540), (960, 540), (960, 540), (960, 540), (960, 540), (960, 540), (960, 540), (960, 540), (960, 540), (960, 540), (960, 540), (960, 540), (960, 540), (960, 540), (960, 540), (960, 540), (960, 540), (960, 540), (960, 540), (960, 540), (960, 540), (960, 540), (960, 540), (960, 540), (960, 540), (960, 540), (960, 540), (960, 540), (960, 540), (960, 540), (960, 540), (960, 540), (963, 541), (976, 553), (1000, 597), (1018, 640), (1040, 693), (1068, 753), (1137, 902)]",63.943666016329004,"[9, 1, 2, 7, 8, 4, 5, 3, 6]","(0, 0.25)",DOT003C,DOT,C,English,Thu Aug 09 14:58:40 2018,Mouse
1,3,3,0,78,6,6,1,810,750,60,133,0,500,200,8000,"[(960, 540), (960, 540), (960, 540), (960, 540), (960, 540), (960, 540), (960, 540), (960, 540), (960, 540), (960, 540), (960, 540), (960, 540), (960, 540), (960, 540), (960, 540), (960, 540), (960, 540), (960, 540), (960, 540), (960, 540), (960, 540), (960, 540), (960, 540), (960, 540), (960, 540), (960, 540), (960, 540), (960, 540), (960, 540), (960, 540), (960, 540), (960, 540), (960, 540), (960, 540), (960, 540), (960, 540), (960, 540), (960, 540), (960, 540), (960, 540), (960, 540), (960, 540), (960, 540), (960, 540), (960, 540), (960, 540), (960, 540), (960, 540), (960, 540), (960, 540), (960, 540), (960, 540), (960, 540), (960, 540), (960, 540), (960, 540), (960, 540), (960, 540), (960, 540), (960, 540), (960, 540), (960, 540), (960, 540), (960, 540), (960, 540), (960, 540), (960, 540), (960, 540), (960, 540), (960, 540), (960, 540), (960, 540), (960, 540), (960, 540), (969, 540), (991, 530), (1026, 510), (1070, 481), (1202, 400), (1279, 352), (1353, 307)]",329.3373446424289,"[9, 1, 2, 7, 8, 4, 5, 3, 6]","(0, 0.25)",DOT003C,DOT,C,English,Thu Aug 09 14:58:40 2018,Mouse
1,3,3,0,79,2,3,0,-611,381,230,133,0,500,200,8000,"[(960, 540), (960, 540), (960, 540), (960, 540), (960, 540), (960, 540), (960, 540), (960, 540), (960, 540), (960, 540), (960, 540), (960, 540), (960, 540), (960, 540), (960, 540), (960, 540), (960, 540), (960, 540), (960, 540), (960, 540), (960, 540), (960, 540), (960, 540), (960, 540), (960, 540), (960, 540), (960, 540), (960, 540), (960, 540), (960, 540), (960, 540), (960, 540), (960, 540), (960, 540), (960, 540), (960, 540), (960, 540), (960, 540), (958, 539), (955, 538), (955, 538), (954, 537), (954, 537), (954, 537), (954, 536), (956, 533), (956, 533), (958, 531), (958, 531), (962, 524), (967, 518), (971, 512), (977, 499), (995, 457), (1008, 427), (1021, 393), (1033, 359), (1064, 290), (1082, 260), (1097, 235), (1116, 208), (1142, 173)]",296.3774019151029,"[9, 1, 2, 7, 8, 4, 5, 3, 6]","(0, 0.25)",DOT003C,DOT,C,English,Thu Aug 09 14:58:40 2018,Mouse
1,3,3,0,80,9,9,1,427,347,80,134,0,500,200,8000,"[(960, 540), (960, 540), (960, 540), (960, 540), (960, 540), (960, 540), (960, 540), (960, 540), (960, 540), (960, 540), (960, 540), (960, 540), (960, 540), (960, 540), (960, 540), (960, 540), (960, 540), (960, 540), (960, 540), (960, 540), (960, 540), (960, 540), (960, 540), (960, 540), (960, 540), (960, 540), (960, 540), (960, 540), (960, 540), (960, 540), (960, 540), (960, 540), (960, 540), (960, 540), (959, 541), (961, 546), (967, 552), (976, 561), (1011, 590), (1047, 613), (1107, 643), (1174, 671), (1351, 728)]",25.67910458322375,"[9, 1, 2, 7, 8, 4, 5, 3, 6]","(0, 0.25)",DOT003C,DOT,C,English,Thu Aug 09 14:58:40 2018,Mouse
1,3,3,0,81,8,3,0,-889,349,540,134,0,500,200,8000,"[(960, 540), (960, 540), (960, 540), (960, 540), (960, 540), (960, 540), (960, 540), (960, 540), (960, 540), (960, 540), (960, 540), (960, 540), (960, 540), (960, 540), (960, 540), (960, 540), (960, 540), (960, 540), (960, 540), (960, 540), (960, 540), (960, 540), (960, 540), (960, 540), (960, 540), (960, 540), (960, 540), (960, 540), (960, 540), (960, 540), (960, 540), (960, 540), (960, 540), (960, 540), (961, 541), (961, 542), (961, 543), (961, 545), (961, 548), (961, 551), (960, 554), (960, 560), (959, 566), (959, 570), (958, 574), (957, 576), (957, 579), (956, 581), (956, 581), (956, 583), (956, 584), (956, 585), (956, 585), (956, 586), (956, 586), (956, 586), (956, 586), (956, 586), (956, 586), (956, 586), (956, 586), (956, 586), (956, 586), (956, 586), (956, 586), (956, 586), (956, 586), (956, 586), (956, 586), (956, 586), (956, 586), (956, 586), (956, 586), (956, 586), (956, 586), (956, 586), (956, 586), (956, 586), (956, 586), (956, 586), (956, 586), (960, 582), (982, 539), (999, 499), (1022, 448), (1047, 394), (1118, 268), (1158, 202), (1198, 149)]",301.32869286780414,"[9, 1, 2, 7, 8, 4, 5, 3, 6]","(0, 0.25)",DOT003C,DOT,C,English,Thu Aug 09 14:58:40 2018,Mouse
1,3,3,0,82,4,4,1,730,560,170,135,0,500,200,8000,"[(960, 540), (960, 540), (960, 540), (960, 540), (960, 540), (960, 540), (960, 540), (960, 540), (960, 540), (960, 540), (960, 540), (960, 540), (960, 540), (960, 540), (960, 540), (960, 540), (960, 540), (960, 540), (960, 540), (960, 540), (960, 540), (960, 540), (960, 540), (960, 540), (960, 540), (960, 540), (960, 540), (960, 540), (960, 540), (960, 540), (960, 540), (960, 540), (960, 540), (960, 540), (960, 540), (960, 540), (960, 540), (960, 540), (960, 540), (960, 540), (960, 540), (960, 540), (960, 540), (960, 540), (960, 540), (960, 540), (960, 540), (960, 540), (960, 540), (960, 540), (960, 540), (960, 540), (960, 540), (960, 540), (960, 540), (958, 540), (953, 533), (948, 528), (943, 521), (936, 513), (916, 496), (904, 485), (889, 474), (871, 459), (832, 432), (804, 415), (780, 400), (751, 386), (704, 366), (681, 358), (660, 348), (639, 339), (595, 322)]",210.84819440658114,"[9, 1, 2, 7, 8, 4, 5, 3, 6]","(0, 0.25)",DOT003C,DOT,C,English,Thu Aug 09 14:58:40 2018,Mouse
1,3,3,0,83,4,4,1,430,310,120,135,0,500,200,8000,"[(960, 540), (960, 540), (960, 540), (960, 540), (960, 540), (960, 540), (960, 540), (960, 540), (960, 540), (960, 540), (960, 540), (960, 540), (960, 540), (960, 540), (960, 540), (960, 540), (960, 540), (960, 540), (960, 540), (960, 540), (960, 540), (960, 540), (960, 540), (960, 540), (960, 540), (960, 540), (960, 540), (960, 540), (960, 540), (960, 540), (959, 540), (957, 540), (954, 538), (948, 530), (930, 512), (916, 499), (896, 484), (870, 465), (812, 424), (777, 408), (739, 389), (703, 376), (604, 354)]",207.5858033846913,"[9, 1, 2, 7, 8, 4, 5, 3, 6]","(0, 0.25)",DOT003C,DOT,C,English,Thu Aug 09 14:58:40 2018,Mouse
1,3,3,0,84,5,5,1,299,189,110,134,0,500,200,8000,"[(960, 540), (960, 540), (960, 540), (960, 540), (960, 540), (960, 540), (960, 540), (960, 540), (960, 540), (960, 540), (960, 540), (960, 540), (960, 540), (960, 540), (960, 540), (960, 540), (960, 540), (960, 540), (961, 535), (961, 530), (962, 524), (962, 513), (962, 477), (962, 455), (962, 421), (962, 374), (962, 280), (962, 222), (962, 163), (962, 97)]",270.2586699333868,"[9, 1, 2, 7, 8, 4, 5, 3, 6]","(0, 0.25)",DOT003C,DOT,C,English,Thu Aug 09 14:58:40 2018,Mouse
1,3,3,0,85,3,3,1,420,320,100,133,0,500,200,8000,"[(960, 540), (960, 540), (960, 540), (960, 540), (960, 540), (960, 540), (960, 540), (960, 540), (960, 540), (960, 540), (960, 540), (960, 540), (960, 540), (960, 540), (960, 540), (960, 540), (960, 540), (960, 540), (960, 540), (960, 540), (960, 540), (960, 540), (960, 540), (960, 540), (960, 540), (960, 540), (960, 540), (960, 540), (960, 540), (960, 540), (960, 540), (960, 536), (960, 534), (961, 529), (964, 521), (980, 484), (992, 453), (1012, 404), (1037, 353), (1095, 247), (1131, 192), (1162, 139)]",296.736253195983,"[9, 1, 2, 7, 8, 4, 5, 3, 6]","(0, 0.25)",DOT003C,DOT,C,English,Thu Aug 09 14:58:40 2018,Mouse
1,3,3,0,86,7,5,0,-728,528,200,132,0,500,200,8000,"[(960, 540), (960, 540), (960, 540), (960, 540), (960, 540), (960, 540), (960, 540), (960, 540), (960, 540), (960, 540), (960, 540), (960, 540), (960, 540), (960, 540), (960, 540), (960, 540), (960, 540), (960, 540), (960, 540), (960, 540), (960, 540), (960, 540), (960, 540), (960, 540), (960, 540), (960, 540), (960, 540), (960, 540), (960, 540), (960, 540), (960, 540), (960, 540), (960, 540), (960, 540), (960, 540), (960, 540), (960, 540), (960, 540), (960, 540), (960, 540), (960, 540), (960, 540), (960, 540), (960, 540), (960, 540), (960, 540), (960, 540), (960, 540), (960, 540), (960, 540), (960, 540), (960, 540), (960, 539), (960, 538), (960, 537), (960, 536), (960, 533), (960, 532), (960, 530), (960, 528), (960, 523), (959, 520), (958, 514), (954, 503), (948, 470), (940, 445), (931, 412), (922, 376), (905, 283), (900, 243), (892, 197), (890, 152), (882, 96)]",260.0361958100928,"[9, 1, 2, 7, 8, 4, 5, 3, 6]","(0, 0.25)",DOT003C,DOT,C,English,Thu Aug 09 14:58:40 2018,Mouse
1,3,3,0,87,1,4,0,-470,270,200,133,0,500,200,8000,"[(960, 540), (960, 540), (960, 540), (960, 540), (960, 540), (960, 540), (960, 540), (960, 540), (960, 540), (960, 540), (960, 540), (960, 540), (960, 540), (960, 540), (960, 540), (960, 540), (960, 540), (960, 540), (960, 540), (960, 540), (960, 540), (960, 540), (960, 540), (960, 540), (960, 540), (960, 540), (958, 540), (958, 540), (957, 540), (956, 540), (956, 539), (956, 539), (955, 538), (955, 538), (954, 537), (953, 536), (952, 535), (951, 534), (946, 529), (942, 526), (937, 519), (928, 510), (893, 479), (861, 451), (810, 409), (757, 373), (634, 300)]",216.36036363238796,"[9, 1, 2, 7, 8, 4, 5, 3, 6]","(0, 0.25)",DOT003C,DOT,C,English,Thu Aug 09 14:58:40 2018,Mouse
1,3,3,0,88,1,1,1,699,619,80,134,0,500,200,8000,"[(960, 540), (960, 540), (960, 540), (960, 540), (960, 540), (960, 540), (960, 540), (960, 540), (960, 540), (960, 540), (960, 540), (960, 540), (960, 540), (960, 540), (960, 540), (960, 540), (960, 540), (960, 540), (960, 540), (960, 540), (960, 540), (960, 540), (960, 540), (960, 540), (960, 540), (960, 540), (960, 540), (960, 540), (960, 540), (960, 540), (960, 540), (960, 540), (960, 540), (960, 540), (960, 540), (960, 540), (960, 540), (960, 540), (960, 540), (960, 540), (960, 540), (960, 540), (960, 540), (960, 540), (960, 540), (960, 540), (960, 540), (960, 540), (960, 540), (960, 540), (960, 540), (960, 540), (960, 540), (960, 540), (960, 540), (960, 540), (960, 540), (960, 540), (960, 540), (960, 540), (960, 540), (960, 541), (975, 563), (992, 588), (1014, 619), (1035, 657), (1088, 755), (1118, 799), (1149, 846), (1178, 888)]",57.9354575155593,"[9, 1, 2, 7, 8, 4, 5, 3, 6]","(0, 0.25)",DOT003C,DOT,C,English,Thu Aug 09 14:58:40 2018,Mouse
1,3,3,0,89,7,5,0,-839,759,80,134,0,500,200,8000,"[(960, 540), (960, 540), (960, 540), (960, 540), (960, 540), (960, 540), (960, 540), (960, 540), (960, 540), (960, 540), (960, 540), (960, 540), (960, 540), (960, 540), (960, 540), (960, 540), (960, 540), (960, 540), (960, 540), (960, 540), (960, 540), (960, 540), (960, 540), (960, 540), (960, 540), (960, 540), (960, 540), (960, 540), (960, 540), (960, 540), (960, 540), (960, 540), (960, 540), (960, 540), (960, 540), (960, 540), (960, 540), (960, 540), (960, 540), (960, 540), (960, 540), (960, 540), (960, 540), (960, 540), (960, 540), (960, 540), (960, 540), (960, 540), (960, 540), (960, 540), (960, 540), (960, 540), (960, 540), (960, 540), (960, 540), (960, 540), (960, 540), (960, 540), (960, 540), (960, 540), (960, 540), (960, 540), (960, 540), (960, 540), (960, 540), (960, 540), (960, 540), (960, 540), (960, 540), (960, 540), (960, 540), (960, 540), (960, 540), (960, 540), (960, 540), (960, 531), (960, 514), (960, 487), (960, 456), (960, 348), (960, 292), (955, 241), (946, 195), (912, 118)]",263.51083360407245,"[9, 1, 2, 7, 8, 4, 5, 3, 6]","(0, 0.25)",DOT003C,DOT,C,English,Thu Aug 09 14:58:40 2018,Mouse
