NativeLangNumber,LanuageNumber,SessionNumber,Block,TrialNum,ConditionNumber,Response,Accuracy,RT,MovementOnsetTime,TimeInMotion,SignalContrast,SignalContrastNumber,StimDisplayTime,MaskTime,MaxResponseTime,MousePositionXY,MouseAngle,WheelOrder,NoiseMuSigma,ParticipantID,LanuageTested,SessionTested,NativeLanuage,Date,ResponseDevice
1,3,2,0,1,7,7,1,813,542,271,153,0,500,200,8000,"[(960, 540), (960, 540), (960, 540), (960, 540), (960, 540), (960, 540), (960, 540), (960, 540), (960, 540), (960, 540), (960, 540), (960, 540), (960, 540), (960, 540), (960, 540), (960, 540), (960, 540), (960, 540), (960, 540), (960, 540), (960, 540), (960, 540), (960, 540), (960, 540), (960, 540), (960, 540), (960, 540), (960, 540), (960, 540), (960, 540), (960, 540), (960, 540), (960, 540), (960, 540), (960, 540), (960, 540), (960, 540), (960, 540), (960, 540), (960, 540), (960, 540), (960, 540), (960, 540), (960, 540), (960, 540), (960, 540), (960, 540), (960, 540), (960, 540), (960, 540), (960, 540), (960, 540), (960, 540), (960, 540), (962, 540), (972, 537), (983, 531), (1008, 522), (1024, 517), (1041, 514), (1060, 508), (1093, 498), (1106, 494), (1118, 491), (1127, 489), (1147, 480), (1159, 475), (1169, 472), (1180, 466), (1201, 457), (1210, 453), (1220, 450), (1230, 445), (1248, 440), (1258, 437), (1268, 434), (1278, 431), (1296, 426), (1307, 424), (1320, 420), (1331, 417), (1355, 409)]",341.6521267627951,"[5, 3, 1, 9, 8, 2, 4, 6, 7]","(0, 0.25)",DOT005B,DOT,B,English,Mon Aug 20 12:02:18 2018,Mouse
1,3,2,0,2,2,2,1,950,550,400,153,0,500,200,8000,"[(960, 540), (960, 540), (960, 540), (960, 540), (960, 540), (960, 540), (960, 540), (960, 540), (960, 540), (960, 540), (960, 540), (960, 540), (960, 540), (960, 540), (960, 540), (960, 540), (960, 540), (960, 540), (960, 540), (960, 540), (960, 540), (960, 540), (960, 540), (960, 540), (960, 540), (960, 540), (960, 540), (960, 540), (960, 540), (960, 540), (960, 540), (960, 540), (960, 540), (960, 540), (960, 540), (960, 540), (960, 540), (960, 540), (960, 540), (960, 540), (960, 540), (960, 540), (960, 540), (960, 540), (960, 540), (960, 540), (960, 540), (960, 540), (960, 540), (960, 540), (960, 540), (960, 540), (960, 540), (960, 540), (959, 537), (958, 536), (958, 536), (956, 534), (955, 533), (953, 530), (951, 529), (948, 526), (943, 520), (940, 517), (939, 516), (938, 515), (936, 514), (934, 512), (934, 512), (933, 512), (929, 508), (928, 507), (927, 506), (926, 505), (921, 501), (916, 498), (909, 493), (899, 489), (878, 477), (867, 470), (850, 461), (836, 452), (802, 430), (788, 420), (765, 403), (749, 392), (715, 370), (701, 359), (689, 351), (680, 346), (660, 333), (653, 329), (644, 325), (636, 321), (623, 311)]",214.19709658689456,"[5, 3, 1, 9, 8, 2, 4, 6, 7]","(0, 0.25)",DOT005B,DOT,B,English,Mon Aug 20 12:02:18 2018,Mouse
1,3,2,0,3,1,1,1,639,439,200,152,0,500,200,8000,"[(960, 540), (960, 540), (960, 540), (960, 540), (960, 540), (960, 540), (960, 540), (960, 540), (960, 540), (960, 540), (960, 540), (960, 540), (960, 540), (960, 540), (960, 540), (960, 540), (960, 540), (960, 540), (960, 540), (960, 540), (960, 540), (960, 540), (960, 540), (960, 540), (960, 540), (960, 540), (960, 540), (960, 540), (960, 540), (960, 540), (960, 540), (960, 540), (960, 540), (960, 540), (960, 540), (960, 540), (960, 540), (960, 540), (960, 540), (960, 540), (960, 540), (960, 540), (960, 540), (962, 544), (963, 549), (965, 553), (969, 563), (971, 568), (973, 573), (973, 577), (977, 594), (977, 607), (977, 620), (977, 637), (977, 673), (977, 693), (977, 715), (977, 738), (974, 789), (969, 819), (964, 851), (956, 881), (942, 932), (936, 951)]",93.34194385726113,"[5, 3, 1, 9, 8, 2, 4, 6, 7]","(0, 0.25)",DOT005B,DOT,B,English,Mon Aug 20 12:02:18 2018,Mouse
1,3,2,0,4,7,5,0,-859,659,200,151,0,500,200,8000,"[(960, 540), (960, 540), (960, 540), (960, 540), (960, 540), (960, 540), (960, 540), (960, 540), (960, 540), (960, 540), (960, 540), (960, 540), (960, 540), (960, 540), (960, 540), (960, 540), (960, 540), (960, 540), (960, 540), (960, 540), (960, 540), (960, 540), (960, 540), (960, 540), (960, 540), (960, 540), (960, 540), (960, 540), (960, 540), (960, 540), (960, 540), (960, 540), (960, 540), (960, 540), (960, 540), (960, 540), (960, 540), (960, 540), (960, 540), (960, 540), (960, 540), (960, 540), (960, 540), (960, 540), (960, 540), (960, 540), (960, 540), (960, 540), (960, 540), (960, 540), (960, 540), (960, 540), (960, 540), (960, 540), (960, 540), (960, 540), (960, 540), (960, 540), (960, 540), (960, 540), (960, 540), (960, 540), (960, 540), (960, 540), (960, 540), (961, 539), (974, 546), (983, 552), (996, 559), (1015, 571), (1053, 591), (1081, 601), (1104, 608), (1132, 617), (1175, 627), (1192, 632), (1209, 638), (1229, 643), (1255, 656), (1266, 661), (1279, 666), (1290, 671), (1312, 680), (1324, 683), (1332, 685), (1339, 686)]",21.067895915368013,"[5, 3, 1, 9, 8, 2, 4, 6, 7]","(0, 0.25)",DOT005B,DOT,B,English,Mon Aug 20 12:02:18 2018,Mouse
1,3,2,0,5,1,1,1,509,339,170,152,0,500,200,8000,"[(960, 540), (960, 540), (960, 540), (960, 540), (960, 540), (960, 540), (960, 540), (960, 540), (960, 540), (960, 540), (960, 540), (960, 540), (960, 540), (960, 540), (960, 540), (960, 540), (960, 540), (960, 540), (960, 540), (960, 540), (960, 540), (960, 540), (960, 540), (960, 540), (960, 540), (960, 540), (960, 540), (960, 540), (960, 540), (960, 540), (960, 540), (960, 540), (960, 540), (960, 546), (960, 566), (958, 574), (955, 586), (954, 599), (949, 632), (948, 650), (945, 671), (941, 692), (931, 728), (922, 749), (911, 773), (902, 796), (878, 841), (869, 865), (862, 882), (857, 902), (851, 941)]",105.20674743594017,"[5, 3, 1, 9, 8, 2, 4, 6, 7]","(0, 0.25)",DOT005B,DOT,B,English,Mon Aug 20 12:02:18 2018,Mouse
1,3,2,0,6,6,6,1,789,289,500,152,0,500,200,8000,"[(960, 540), (960, 540), (960, 540), (960, 540), (960, 540), (960, 540), (960, 540), (960, 540), (960, 540), (960, 540), (960, 540), (960, 540), (960, 540), (960, 540), (960, 540), (960, 540), (960, 540), (960, 540), (960, 540), (960, 540), (960, 540), (960, 540), (960, 540), (960, 540), (960, 540), (960, 540), (960, 540), (960, 540), (960, 542), (960, 542), (959, 542), (959, 542), (959, 542), (959, 542), (957, 544), (957, 544), (957, 544), (957, 544), (956, 544), (956, 544), (956, 544), (956, 544), (956, 544), (956, 544), (956, 544), (956, 544), (956, 544), (956, 544), (956, 544), (956, 544), (956, 544), (956, 544), (956, 544), (960, 540), (984, 522), (1000, 504), (1008, 493), (1014, 475), (1028, 435), (1033, 418), (1035, 404), (1040, 393), (1046, 376), (1051, 364), (1054, 352), (1057, 339), (1063, 314), (1067, 306), (1069, 297), (1072, 291), (1082, 274), (1083, 269), (1089, 262), (1094, 252), (1107, 231), (1117, 216), (1125, 200), (1132, 189), (1147, 165)]",296.5039030898208,"[5, 3, 1, 9, 8, 2, 4, 6, 7]","(0, 0.25)",DOT005B,DOT,B,English,Mon Aug 20 12:02:18 2018,Mouse
1,3,2,0,7,2,2,1,1031,701,330,151,0,500,200,8000,"[(960, 540), (960, 540), (960, 540), (960, 540), (960, 540), (960, 540), (960, 540), (960, 540), (960, 540), (960, 540), (960, 540), (960, 540), (960, 540), (960, 540), (960, 540), (960, 540), (960, 540), (960, 540), (960, 540), (960, 540), (960, 540), (960, 540), (960, 540), (960, 540), (960, 540), (960, 540), (960, 540), (960, 540), (960, 540), (960, 540), (960, 540), (960, 540), (960, 540), (960, 540), (960, 540), (960, 540), (960, 540), (960, 540), (960, 540), (960, 540), (960, 540), (960, 540), (960, 540), (960, 540), (960, 540), (960, 540), (960, 540), (960, 540), (960, 540), (960, 540), (960, 540), (960, 540), (960, 540), (960, 540), (960, 540), (960, 540), (960, 540), (960, 540), (960, 540), (960, 540), (960, 540), (960, 540), (960, 540), (960, 540), (960, 540), (960, 540), (960, 540), (960, 540), (960, 540), (960, 535), (955, 512), (954, 501), (953, 492), (950, 483), (944, 466), (942, 458), (937, 447), (932, 437), (923, 417), (920, 409), (916, 399), (911, 393), (906, 383), (905, 380), (904, 378), (902, 375), (900, 373), (900, 373), (899, 373), (899, 373), (897, 372), (891, 369), (884, 368), (878, 364), (851, 353), (840, 345), (821, 337), (795, 327), (748, 305), (723, 292), (707, 283), (685, 270), (658, 255)]",223.34113105035019,"[5, 3, 1, 9, 8, 2, 4, 6, 7]","(0, 0.25)",DOT005B,DOT,B,English,Mon Aug 20 12:02:18 2018,Mouse
1,3,2,0,8,6,6,1,709,499,210,150,0,500,200,8000,"[(960, 540), (960, 540), (960, 540), (960, 540), (960, 540), (960, 540), (960, 540), (960, 540), (960, 540), (960, 540), (960, 540), (960, 540), (960, 540), (960, 540), (960, 540), (960, 540), (960, 540), (960, 540), (960, 540), (960, 540), (960, 540), (960, 540), (960, 540), (960, 540), (960, 540), (960, 540), (960, 540), (960, 540), (960, 540), (960, 540), (960, 540), (960, 540), (960, 540), (960, 540), (960, 540), (960, 540), (960, 540), (960, 540), (960, 540), (960, 540), (960, 540), (960, 540), (960, 540), (960, 540), (960, 540), (960, 540), (960, 540), (960, 540), (960, 540), (961, 540), (968, 530), (974, 520), (981, 508), (992, 491), (1009, 450), (1019, 426), (1029, 405), (1038, 384), (1053, 351), (1059, 336), (1066, 318), (1072, 306), (1079, 276), (1084, 261), (1089, 247), (1095, 232), (1105, 206), (1109, 199), (1113, 189), (1117, 180), (1127, 162)]",293.8357908971542,"[5, 3, 1, 9, 8, 2, 4, 6, 7]","(0, 0.25)",DOT005B,DOT,B,English,Mon Aug 20 12:02:18 2018,Mouse
1,3,2,0,9,8,8,1,1149,709,440,149,0,500,200,8000,"[(960, 540), (960, 540), (960, 540), (960, 540), (960, 540), (960, 540), (960, 540), (960, 540), (960, 540), (960, 540), (960, 540), (960, 540), (960, 540), (960, 540), (960, 540), (960, 540), (960, 540), (960, 540), (960, 540), (960, 540), (960, 540), (960, 540), (960, 540), (960, 540), (960, 540), (960, 540), (960, 540), (960, 540), (960, 540), (960, 540), (960, 540), (960, 540), (960, 540), (960, 540), (960, 540), (960, 540), (960, 540), (960, 540), (960, 540), (960, 540), (960, 540), (960, 540), (960, 540), (960, 540), (960, 540), (960, 540), (960, 540), (960, 540), (960, 540), (960, 540), (960, 540), (960, 540), (960, 540), (960, 540), (960, 540), (960, 540), (960, 540), (960, 540), (960, 540), (960, 540), (960, 540), (960, 540), (960, 540), (960, 540), (960, 540), (960, 540), (960, 540), (960, 540), (960, 540), (960, 540), (959, 540), (959, 540), (959, 540), (959, 540), (959, 540), (959, 540), (959, 540), (959, 540), (959, 540), (959, 540), (959, 540), (959, 540), (959, 540), (959, 540), (959, 540), (959, 540), (959, 540), (959, 540), (958, 540), (956, 540), (949, 540), (942, 540), (934, 540), (923, 540), (898, 540), (883, 540), (869, 540), (854, 540), (822, 540), (807, 540), (790, 540), (773, 540), (741, 540), (727, 540), (713, 540), (701, 540), (675, 540), (664, 540), (653, 540), (641, 540), (618, 540), (607, 540), (596, 540), (580, 540), (550, 539)]",180.13974552658297,"[5, 3, 1, 9, 8, 2, 4, 6, 7]","(0, 0.25)",DOT005B,DOT,B,English,Mon Aug 20 12:02:18 2018,Mouse
1,3,2,0,10,3,3,1,737,377,360,148,0,500,200,8000,"[(960, 540), (960, 540), (960, 540), (960, 540), (960, 540), (960, 540), (960, 540), (960, 540), (960, 540), (960, 540), (960, 540), (960, 540), (960, 540), (960, 540), (960, 540), (960, 540), (960, 540), (960, 540), (960, 540), (960, 540), (960, 540), (960, 540), (960, 540), (960, 540), (960, 540), (960, 540), (960, 540), (960, 540), (960, 540), (960, 540), (960, 540), (960, 540), (960, 540), (960, 540), (960, 540), (960, 540), (960, 540), (961, 540), (961, 542), (961, 543), (961, 545), (961, 546), (961, 549), (963, 554), (967, 560), (971, 565), (975, 571), (983, 582), (990, 592), (998, 603), (1005, 613), (1017, 634), (1023, 644), (1028, 653), (1034, 663), (1048, 687), (1051, 694), (1055, 703), (1059, 711), (1064, 728), (1066, 735), (1070, 745), (1078, 768), (1082, 779), (1087, 790), (1089, 799), (1092, 806), (1097, 824), (1099, 834), (1104, 847), (1106, 857), (1113, 880), (1118, 895), (1123, 907)]",66.05199794787241,"[5, 3, 1, 9, 8, 2, 4, 6, 7]","(0, 0.25)",DOT005B,DOT,B,English,Mon Aug 20 12:02:18 2018,Mouse
1,3,2,0,11,1,1,1,320,180,140,147,0,500,200,8000,"[(960, 540), (960, 540), (960, 540), (960, 540), (960, 540), (960, 540), (960, 540), (960, 540), (960, 540), (960, 540), (960, 540), (960, 540), (960, 540), (960, 540), (960, 540), (960, 540), (960, 540), (959, 540), (958, 541), (955, 549), (953, 558), (949, 572), (944, 590), (931, 632), (922, 665), (912, 699), (901, 738), (881, 807), (870, 843), (861, 879), (854, 912), (842, 964)]",105.55198537038247,"[5, 3, 1, 9, 8, 2, 4, 6, 7]","(0, 0.25)",DOT005B,DOT,B,English,Mon Aug 20 12:02:18 2018,Mouse
1,3,2,0,12,2,2,1,1268,1018,250,146,0,500,200,8000,"[(960, 540), (960, 540), (960, 540), (960, 540), (960, 540), (960, 540), (960, 540), (960, 540), (960, 540), (960, 540), (960, 540), (960, 540), (960, 540), (960, 540), (960, 540), (960, 540), (960, 540), (960, 540), (960, 540), (960, 540), (960, 540), (960, 540), (960, 540), (960, 540), (960, 540), (960, 540), (960, 540), (960, 540), (960, 540), (960, 540), (960, 540), (960, 540), (960, 540), (960, 540), (960, 540), (960, 540), (960, 540), (960, 540), (960, 540), (960, 540), (960, 540), (960, 540), (960, 540), (960, 540), (960, 540), (960, 540), (960, 540), (960, 540), (960, 540), (960, 540), (960, 540), (960, 540), (960, 540), (960, 540), (960, 540), (960, 540), (960, 540), (960, 540), (960, 540), (960, 540), (960, 540), (960, 540), (960, 540), (960, 540), (960, 540), (960, 540), (960, 540), (960, 540), (960, 540), (960, 540), (960, 540), (960, 540), (960, 540), (960, 540), (960, 540), (960, 540), (960, 540), (960, 540), (960, 540), (960, 540), (960, 540), (960, 540), (960, 540), (960, 540), (960, 540), (960, 540), (960, 540), (960, 540), (960, 540), (960, 540), (960, 540), (960, 540), (960, 540), (960, 540), (960, 540), (960, 540), (960, 540), (960, 540), (960, 540), (960, 540), (960, 540), (959, 536), (946, 514), (936, 503), (928, 492), (917, 480), (896, 462), (881, 449), (870, 441), (860, 432), (834, 414), (823, 406), (811, 398), (800, 390), (776, 372), (766, 366), (755, 359), (747, 355), (728, 343), (721, 337), (710, 328), (699, 321), (680, 307), (671, 298), (664, 291), (658, 284), (643, 265)]",220.94189619726845,"[5, 3, 1, 9, 8, 2, 4, 6, 7]","(0, 0.25)",DOT005B,DOT,B,English,Mon Aug 20 12:02:18 2018,Mouse
1,3,2,0,13,6,6,1,870,590,280,145,0,500,200,8000,"[(960, 540), (960, 540), (960, 540), (960, 540), (960, 540), (960, 540), (960, 540), (960, 540), (960, 540), (960, 540), (960, 540), (960, 540), (960, 540), (960, 540), (960, 540), (960, 540), (960, 540), (960, 540), (960, 540), (960, 540), (960, 540), (960, 540), (960, 540), (960, 540), (960, 540), (960, 540), (960, 540), (960, 540), (960, 540), (960, 540), (960, 540), (960, 540), (960, 540), (960, 540), (960, 540), (960, 540), (960, 540), (960, 540), (960, 540), (960, 540), (960, 540), (960, 540), (960, 540), (960, 540), (960, 540), (960, 540), (960, 540), (960, 540), (960, 540), (960, 540), (960, 540), (960, 540), (960, 540), (960, 540), (960, 540), (960, 540), (960, 540), (960, 540), (966, 536), (970, 529), (975, 517), (981, 509), (989, 490), (994, 480), (1000, 470), (1005, 461), (1015, 441), (1017, 435), (1022, 428), (1025, 420), (1037, 399), (1044, 386), (1052, 373), (1057, 363), (1069, 342), (1075, 332), (1082, 323), (1089, 312), (1100, 288), (1104, 278), (1110, 265), (1117, 254), (1128, 231), (1133, 218), (1138, 207), (1143, 195), (1154, 171)]",297.73293641127157,"[5, 3, 1, 9, 8, 2, 4, 6, 7]","(0, 0.25)",DOT005B,DOT,B,English,Mon Aug 20 12:02:18 2018,Mouse
1,3,2,0,14,7,7,1,586,346,240,144,0,500,200,8000,"[(960, 540), (960, 540), (960, 540), (960, 540), (960, 540), (960, 540), (960, 540), (960, 540), (960, 540), (960, 540), (960, 540), (960, 540), (960, 540), (960, 540), (960, 540), (960, 540), (960, 540), (960, 540), (960, 540), (960, 540), (960, 540), (960, 540), (960, 540), (960, 540), (960, 540), (960, 540), (960, 540), (960, 540), (960, 540), (960, 540), (960, 540), (960, 540), (960, 540), (960, 540), (964, 540), (966, 540), (969, 540), (971, 539), (976, 538), (979, 537), (981, 537), (985, 535), (999, 529), (1010, 525), (1022, 519), (1034, 516), (1077, 495), (1098, 486), (1121, 475), (1145, 466), (1185, 450), (1202, 445), (1222, 439), (1235, 437), (1264, 426), (1275, 424), (1295, 417), (1315, 411), (1360, 398)]",340.4551376733712,"[5, 3, 1, 9, 8, 2, 4, 6, 7]","(0, 0.25)",DOT005B,DOT,B,English,Mon Aug 20 12:02:18 2018,Mouse
1,3,2,0,15,1,1,1,345,215,130,143,0,500,200,8000,"[(960, 540), (960, 540), (960, 540), (960, 540), (960, 540), (960, 540), (960, 540), (960, 540), (960, 540), (960, 540), (960, 540), (960, 540), (960, 540), (960, 540), (960, 540), (960, 540), (960, 540), (960, 540), (960, 540), (960, 540), (960, 540), (959, 541), (959, 541), (959, 541), (958, 545), (956, 552), (951, 581), (949, 601), (945, 628), (939, 663), (931, 733), (923, 779), (918, 819), (912, 867), (897, 949)]",98.75668876978807,"[5, 3, 1, 9, 8, 2, 4, 6, 7]","(0, 0.25)",DOT005B,DOT,B,English,Mon Aug 20 12:02:18 2018,Mouse
1,3,2,0,16,3,9,0,-2568,1308,1260,142,0,500,200,8000,"[(960, 540), (960, 540), (960, 540), (960, 540), (960, 540), (960, 540), (960, 540), (960, 540), (960, 540), (960, 540), (960, 540), (960, 540), (960, 540), (960, 540), (960, 540), (960, 540), (960, 540), (960, 540), (960, 540), (960, 540), (960, 540), (960, 540), (960, 540), (960, 540), (960, 540), (960, 540), (960, 540), (960, 540), (960, 540), (960, 540), (960, 540), (960, 540), (960, 540), (960, 540), (960, 540), (960, 540), (960, 540), (960, 540), (960, 540), (960, 540), (960, 540), (960, 540), (960, 540), (960, 540), (960, 540), (960, 540), (960, 540), (960, 540), (960, 540), (960, 540), (960, 540), (960, 540), (960, 540), (960, 540), (960, 540), (960, 540), (960, 540), (960, 540), (960, 540), (960, 540), (960, 540), (960, 540), (960, 540), (960, 540), (960, 540), (960, 540), (960, 540), (960, 540), (960, 540), (960, 540), (960, 540), (960, 540), (960, 540), (960, 540), (960, 540), (960, 540), (960, 540), (960, 540), (960, 540), (960, 540), (960, 540), (960, 540), (960, 540), (960, 540), (960, 540), (960, 540), (960, 540), (960, 540), (960, 540), (960, 540), (960, 540), (960, 540), (960, 540), (960, 540), (960, 540), (960, 540), (960, 540), (960, 540), (960, 540), (960, 540), (960, 540), (960, 540), (960, 540), (960, 540), (960, 540), (960, 540), (960, 540), (960, 540), (960, 540), (960, 540), (960, 540), (960, 540), (960, 540), (960, 540), (960, 540), (960, 540), (960, 540), (960, 540), (960, 540), (960, 540), (960, 540), (960, 540), (960, 540), (960, 540), (960, 540), (960, 540), (960, 540), (960, 540), (960, 540), (960, 540), (960, 541), (952, 556), (945, 566), (937, 579), (922, 599), (914, 606), (907, 613), (900, 618), (899, 620), (898, 620), (898, 620), (898, 620), (898, 620), (898, 620), (898, 620), (898, 620), (898, 620), (898, 620), (898, 620), (898, 620), (898, 620), (898, 620), (898, 620), (898, 620), (898, 620), (898, 620), (898, 620), (898, 620), (898, 620), (898, 620), (898, 620), (898, 620), (898, 620), (898, 620), (898, 620), (898, 620), (898, 620), (898, 620), (898, 620), (898, 620), (898, 620), (898, 620), (898, 620), (898, 620), (898, 620), (898, 620), (898, 620), (898, 620), (898, 620), (898, 620), (898, 620), (898, 620), (898, 620), (898, 620), (898, 620), (898, 620), (898, 620), (898, 620), (898, 620), (898, 620), (898, 620), (898, 620), (898, 620), (898, 620), (898, 620), (898, 620), (898, 620), (898, 620), (898, 620), (898, 620), (898, 620), (898, 620), (898, 620), (898, 620), (898, 620), (898, 620), (898, 620), (898, 620), (898, 620), (898, 620), (898, 620), (898, 620), (898, 620), (898, 620), (898, 620), (898, 620), (898, 620), (898, 620), (898, 620), (898, 620), (898, 620), (898, 620), (898, 620), (898, 620), (898, 620), (898, 620), (898, 620), (898, 620), (898, 620), (898, 620), (898, 620), (898, 620), (898, 620), (898, 620), (898, 620), (898, 620), (898, 620), (898, 620), (898, 620), (898, 620), (893, 624), (884, 632), (860, 645), (847, 653), (823, 664), (802, 676), (758, 703), (739, 713), (726, 720), (712, 729), (692, 743), (681, 749), (673, 756), (664, 761), (651, 773), (645, 778), (639, 785)]",142.64768272350625,"[5, 3, 1, 9, 8, 2, 4, 6, 7]","(0, 0.25)",DOT005B,DOT,B,English,Mon Aug 20 12:02:18 2018,Mouse
1,3,2,0,17,7,7,1,409,229,180,143,0,500,200,8000,"[(960, 540), (960, 540), (960, 540), (960, 540), (960, 540), (960, 540), (960, 540), (960, 540), (960, 540), (960, 540), (960, 540), (960, 540), (960, 540), (960, 540), (960, 540), (960, 540), (960, 540), (960, 540), (960, 540), (960, 540), (960, 540), (960, 540), (960, 539), (966, 535), (1010, 515), (1033, 506), (1057, 495), (1082, 485), (1124, 459), (1150, 449), (1176, 436), (1197, 425), (1233, 410), (1248, 403), (1258, 399), (1272, 390), (1288, 381), (1297, 376), (1307, 370), (1315, 367), (1340, 357)]",334.28551296660595,"[5, 3, 1, 9, 8, 2, 4, 6, 7]","(0, 0.25)",DOT005B,DOT,B,English,Mon Aug 20 12:02:18 2018,Mouse
1,3,2,0,18,7,7,1,229,109,120,143,0,500,200,8000,"[(960, 540), (960, 540), (960, 540), (960, 540), (960, 540), (960, 540), (960, 540), (960, 540), (960, 540), (960, 540), (962, 540), (970, 540), (981, 540), (994, 539), (1043, 531), (1072, 528), (1098, 523), (1133, 520), (1209, 507), (1236, 499), (1267, 491), (1301, 480), (1356, 457)]",348.1623947035554,"[5, 3, 1, 9, 8, 2, 4, 6, 7]","(0, 0.25)",DOT005B,DOT,B,English,Mon Aug 20 12:02:18 2018,Mouse
1,3,2,0,19,5,5,1,530,390,140,142,0,500,200,8000,"[(960, 540), (960, 540), (960, 540), (960, 540), (960, 540), (960, 540), (960, 540), (960, 540), (960, 540), (960, 540), (960, 540), (960, 540), (960, 540), (960, 540), (960, 540), (960, 540), (960, 540), (960, 540), (960, 540), (960, 540), (960, 540), (960, 540), (960, 540), (960, 540), (960, 540), (960, 540), (960, 540), (960, 540), (960, 540), (960, 540), (960, 540), (960, 540), (960, 540), (960, 540), (960, 540), (960, 540), (960, 540), (960, 540), (969, 544), (978, 546), (991, 551), (1002, 553), (1035, 563), (1063, 570), (1088, 577), (1117, 582), (1176, 599), (1209, 608), (1239, 617), (1265, 625), (1317, 639), (1343, 647), (1362, 653)]",15.700382547823239,"[5, 3, 1, 9, 8, 2, 4, 6, 7]","(0, 0.25)",DOT005B,DOT,B,English,Mon Aug 20 12:02:18 2018,Mouse
1,3,2,0,20,9,9,1,1670,1190,480,141,0,500,200,8000,"[(960, 540), (960, 540), (960, 540), (960, 540), (960, 540), (960, 540), (960, 540), (960, 540), (960, 540), (960, 540), (960, 540), (960, 540), (960, 540), (960, 540), (960, 540), (960, 540), (960, 540), (960, 540), (960, 540), (960, 540), (960, 540), (960, 540), (960, 540), (960, 540), (960, 540), (960, 540), (960, 540), (960, 540), (960, 540), (960, 540), (960, 540), (960, 540), (960, 540), (960, 540), (960, 540), (960, 540), (960, 540), (960, 540), (960, 540), (960, 540), (960, 540), (960, 540), (960, 540), (960, 540), (960, 540), (960, 540), (960, 540), (960, 540), (960, 540), (960, 540), (960, 540), (960, 540), (960, 540), (960, 540), (960, 540), (960, 540), (960, 540), (960, 540), (960, 540), (960, 540), (960, 540), (960, 540), (960, 540), (960, 540), (960, 540), (960, 540), (960, 540), (960, 540), (960, 540), (960, 540), (960, 540), (960, 540), (960, 540), (960, 540), (960, 540), (960, 540), (960, 540), (960, 540), (960, 540), (960, 540), (960, 540), (960, 540), (960, 540), (960, 540), (960, 540), (960, 540), (960, 540), (960, 540), (960, 540), (960, 540), (960, 540), (960, 540), (960, 540), (960, 540), (960, 540), (960, 540), (960, 540), (960, 540), (960, 540), (960, 540), (960, 540), (960, 540), (960, 540), (960, 540), (960, 540), (960, 540), (960, 540), (960, 540), (960, 540), (960, 540), (960, 540), (960, 540), (960, 540), (960, 540), (960, 540), (960, 540), (960, 540), (960, 540), (957, 539), (953, 539), (936, 540), (924, 540), (909, 540), (891, 540), (854, 540), (837, 540), (824, 540), (809, 540), (782, 540), (769, 540), (759, 540), (752, 540), (740, 540), (740, 540), (739, 540), (739, 540), (739, 540), (739, 540), (739, 540), (739, 540), (739, 540), (739, 540), (739, 540), (739, 540), (739, 540), (741, 540), (747, 540), (751, 541), (763, 544), (771, 546), (781, 551), (789, 555), (801, 565), (805, 573), (809, 583), (810, 596), (811, 635), (811, 658), (811, 683), (811, 719), (800, 766), (792, 791), (784, 809), (775, 830), (756, 860), (750, 869), (744, 878)]",122.58074431702502,"[5, 3, 1, 9, 8, 2, 4, 6, 7]","(0, 0.25)",DOT005B,DOT,B,English,Mon Aug 20 12:02:18 2018,Mouse
1,3,2,0,21,4,4,1,789,329,460,140,0,500,200,8000,"[(960, 540), (960, 540), (960, 540), (960, 540), (960, 540), (960, 540), (960, 540), (960, 540), (960, 540), (960, 540), (960, 540), (960, 540), (960, 540), (960, 540), (960, 540), (960, 540), (960, 540), (960, 540), (960, 540), (960, 540), (960, 540), (960, 540), (960, 540), (960, 540), (960, 540), (960, 540), (960, 540), (960, 540), (960, 540), (960, 540), (960, 540), (960, 540), (960, 541), (960, 541), (960, 541), (960, 541), (960, 541), (960, 541), (960, 541), (960, 541), (960, 541), (961, 541), (961, 541), (962, 540), (962, 540), (962, 536), (963, 535), (963, 534), (963, 534), (963, 533), (963, 533), (963, 533), (963, 533), (963, 531), (963, 531), (963, 528), (963, 522), (962, 514), (961, 508), (959, 500), (957, 495), (953, 480), (950, 470), (946, 458), (944, 447), (934, 418), (930, 399), (926, 383), (921, 369), (914, 331), (912, 310), (909, 289), (906, 271), (902, 232), (899, 211), (898, 194), (898, 179), (894, 151), (894, 140)]",260.63061490351254,"[5, 3, 1, 9, 8, 2, 4, 6, 7]","(0, 0.25)",DOT005B,DOT,B,English,Mon Aug 20 12:02:18 2018,Mouse
1,3,2,0,22,7,7,1,680,510,170,139,0,500,200,8000,"[(960, 540), (960, 540), (960, 540), (960, 540), (960, 540), (960, 540), (960, 540), (960, 540), (960, 540), (960, 540), (960, 540), (960, 540), (960, 540), (960, 540), (960, 540), (960, 540), (960, 540), (960, 540), (960, 540), (960, 540), (960, 540), (960, 540), (960, 540), (960, 540), (960, 540), (960, 540), (960, 540), (960, 540), (960, 540), (960, 540), (960, 540), (960, 540), (960, 540), (960, 540), (960, 540), (960, 540), (960, 540), (960, 540), (960, 540), (960, 540), (960, 540), (960, 540), (960, 540), (960, 540), (960, 540), (960, 540), (960, 540), (960, 540), (960, 540), (960, 540), (962, 541), (965, 541), (984, 537), (1002, 532), (1024, 526), (1050, 516), (1113, 494), (1136, 484), (1164, 476), (1194, 468), (1241, 455), (1261, 450), (1277, 440), (1291, 437), (1317, 426), (1328, 419), (1338, 414), (1349, 406)]",340.99255283339073,"[5, 3, 1, 9, 8, 2, 4, 6, 7]","(0, 0.25)",DOT005B,DOT,B,English,Mon Aug 20 12:02:18 2018,Mouse
1,3,2,0,23,2,3,0,-739,629,110,138,0,500,200,8000,"[(960, 540), (960, 540), (960, 540), (960, 540), (960, 540), (960, 540), (960, 540), (960, 540), (960, 540), (960, 540), (960, 540), (960, 540), (960, 540), (960, 540), (960, 540), (960, 540), (960, 540), (960, 540), (960, 540), (960, 540), (960, 540), (960, 540), (960, 540), (960, 540), (960, 540), (960, 540), (960, 540), (960, 540), (960, 540), (960, 540), (960, 540), (960, 540), (960, 540), (960, 540), (960, 540), (960, 540), (960, 540), (960, 540), (960, 540), (960, 540), (960, 540), (960, 540), (960, 540), (960, 540), (960, 540), (960, 540), (960, 540), (960, 540), (960, 540), (960, 540), (960, 540), (960, 540), (960, 540), (960, 540), (960, 540), (960, 540), (960, 540), (960, 540), (960, 540), (960, 540), (960, 540), (960, 540), (962, 547), (982, 579), (995, 604), (1010, 628), (1024, 658), (1054, 722), (1068, 753), (1084, 786), (1094, 809), (1117, 861), (1126, 887), (1134, 913)]",64.99151629426188,"[5, 3, 1, 9, 8, 2, 4, 6, 7]","(0, 0.25)",DOT005B,DOT,B,English,Mon Aug 20 12:02:18 2018,Mouse
1,3,2,0,24,7,7,1,430,230,200,139,0,500,200,8000,"[(960, 540), (960, 540), (960, 540), (960, 540), (960, 540), (960, 540), (960, 540), (960, 540), (960, 540), (960, 540), (960, 540), (960, 540), (960, 540), (960, 540), (960, 540), (960, 540), (960, 540), (960, 540), (960, 540), (960, 540), (960, 540), (960, 540), (961, 539), (966, 536), (987, 529), (999, 525), (1013, 519), (1030, 513), (1083, 499), (1103, 493), (1128, 485), (1148, 478), (1188, 464), (1210, 453), (1225, 447), (1237, 441), (1260, 432), (1271, 426), (1283, 423), (1294, 419), (1314, 410), (1325, 405), (1338, 399)]",339.54368623672195,"[5, 3, 1, 9, 8, 2, 4, 6, 7]","(0, 0.25)",DOT005B,DOT,B,English,Mon Aug 20 12:02:18 2018,Mouse
1,3,2,0,25,6,7,0,-499,359,140,139,0,500,200,8000,"[(960, 540), (960, 540), (960, 540), (960, 540), (960, 540), (960, 540), (960, 540), (960, 540), (960, 540), (960, 540), (960, 540), (960, 540), (960, 540), (960, 540), (960, 540), (960, 540), (960, 540), (960, 540), (960, 540), (960, 540), (960, 540), (960, 540), (960, 540), (960, 540), (960, 540), (960, 540), (960, 540), (960, 540), (960, 540), (960, 540), (960, 540), (960, 540), (960, 540), (960, 540), (960, 540), (962, 540), (989, 540), (1004, 539), (1031, 534), (1060, 531), (1127, 522), (1160, 515), (1189, 512), (1218, 507), (1268, 493), (1287, 489), (1306, 479), (1324, 471), (1347, 458), (1355, 454)]",347.71716139214504,"[5, 3, 1, 9, 8, 2, 4, 6, 7]","(0, 0.25)",DOT005B,DOT,B,English,Mon Aug 20 12:02:18 2018,Mouse
1,3,2,0,26,7,7,1,549,349,200,140,0,500,200,8000,"[(960, 540), (960, 540), (960, 540), (960, 540), (960, 540), (960, 540), (960, 540), (960, 540), (960, 540), (960, 540), (960, 540), (960, 540), (960, 540), (960, 540), (960, 540), (960, 540), (960, 540), (960, 540), (960, 540), (960, 540), (960, 540), (960, 540), (960, 540), (960, 540), (960, 540), (960, 540), (960, 540), (960, 540), (960, 540), (960, 540), (960, 540), (960, 540), (960, 540), (960, 540), (959, 540), (966, 537), (976, 532), (1001, 521), (1012, 519), (1024, 513), (1040, 507), (1084, 489), (1102, 482), (1117, 476), (1130, 470), (1162, 454), (1177, 448), (1195, 441), (1212, 430), (1245, 415), (1260, 409), (1275, 403), (1293, 396), (1318, 385), (1329, 380)]",336.5582359109841,"[5, 3, 1, 9, 8, 2, 4, 6, 7]","(0, 0.25)",DOT005B,DOT,B,English,Mon Aug 20 12:02:18 2018,Mouse
1,3,2,0,27,2,3,0,-720,570,150,140,0,500,200,8000,"[(960, 540), (960, 540), (960, 540), (960, 540), (960, 540), (960, 540), (960, 540), (960, 540), (960, 540), (960, 540), (960, 540), (960, 540), (960, 540), (960, 540), (960, 540), (960, 540), (960, 540), (960, 540), (960, 540), (960, 540), (960, 540), (960, 540), (960, 540), (960, 540), (960, 540), (960, 540), (960, 540), (960, 540), (960, 540), (960, 540), (960, 540), (960, 540), (960, 540), (960, 540), (960, 540), (960, 540), (960, 540), (960, 540), (960, 540), (960, 540), (960, 540), (960, 540), (960, 540), (960, 540), (960, 540), (960, 540), (960, 540), (960, 540), (960, 540), (960, 540), (960, 540), (960, 540), (960, 540), (960, 540), (960, 540), (960, 540), (960, 546), (963, 559), (978, 592), (993, 617), (999, 634), (1009, 657), (1028, 699), (1037, 723), (1046, 743), (1059, 768), (1083, 813), (1089, 828), (1096, 848), (1103, 863), (1118, 902), (1125, 915)]",66.25050550713324,"[5, 3, 1, 9, 8, 2, 4, 6, 7]","(0, 0.25)",DOT005B,DOT,B,English,Mon Aug 20 12:02:18 2018,Mouse
1,3,2,0,28,1,1,1,359,249,110,141,0,500,200,8000,"[(960, 540), (960, 540), (960, 540), (960, 540), (960, 540), (960, 540), (960, 540), (960, 540), (960, 540), (960, 540), (960, 540), (960, 540), (960, 540), (960, 540), (960, 540), (960, 540), (960, 540), (960, 540), (960, 540), (960, 540), (960, 540), (960, 540), (960, 540), (960, 540), (960, 546), (960, 579), (960, 601), (960, 634), (960, 709), (960, 748), (956, 785), (953, 814), (948, 877), (945, 901), (940, 928), (938, 949)]",93.07895737282989,"[5, 3, 1, 9, 8, 2, 4, 6, 7]","(0, 0.25)",DOT005B,DOT,B,English,Mon Aug 20 12:02:18 2018,Mouse
1,3,2,0,29,3,3,1,519,429,90,141,0,500,200,8000,"[(960, 540), (960, 540), (960, 540), (960, 540), (960, 540), (960, 540), (960, 540), (960, 540), (960, 540), (960, 540), (960, 540), (960, 540), (960, 540), (960, 540), (960, 540), (960, 540), (960, 540), (960, 540), (960, 540), (960, 540), (960, 540), (960, 540), (960, 540), (960, 540), (960, 540), (960, 540), (960, 540), (960, 540), (960, 540), (960, 540), (960, 540), (960, 540), (960, 540), (960, 540), (960, 540), (960, 540), (960, 540), (960, 540), (960, 540), (960, 540), (960, 540), (960, 540), (965, 549), (978, 585), (986, 613), (993, 641), (1003, 677), (1026, 760), (1039, 802), (1052, 841), (1070, 886), (1101, 958)]",71.35969083958311,"[5, 3, 1, 9, 8, 2, 4, 6, 7]","(0, 0.25)",DOT005B,DOT,B,English,Mon Aug 20 12:02:18 2018,Mouse
1,3,2,0,30,5,5,1,1021,921,100,140,0,500,200,8000,"[(960, 540), (960, 540), (960, 540), (960, 540), (960, 540), (960, 540), (960, 540), (960, 540), (960, 540), (960, 540), (960, 540), (960, 540), (960, 540), (960, 540), (960, 540), (960, 540), (960, 540), (960, 540), (960, 540), (960, 540), (960, 540), (960, 540), (960, 540), (960, 540), (960, 540), (960, 540), (960, 540), (960, 540), (960, 540), (960, 540), (960, 540), (960, 540), (960, 540), (960, 540), (960, 540), (960, 540), (960, 540), (960, 540), (960, 540), (960, 540), (960, 540), (960, 540), (960, 540), (960, 540), (960, 540), (960, 540), (960, 540), (960, 540), (960, 540), (960, 540), (960, 540), (960, 540), (960, 540), (960, 540), (960, 540), (960, 540), (960, 540), (960, 540), (960, 540), (960, 540), (960, 540), (960, 540), (960, 540), (960, 540), (960, 540), (960, 540), (960, 540), (960, 540), (960, 540), (960, 540), (960, 540), (960, 540), (960, 540), (960, 540), (960, 540), (960, 540), (960, 540), (960, 540), (960, 540), (960, 540), (960, 540), (960, 540), (960, 540), (960, 540), (960, 540), (960, 540), (960, 540), (960, 540), (960, 540), (960, 540), (960, 540), (966, 539), (984, 543), (1007, 553), (1068, 579), (1100, 593), (1140, 612), (1177, 625), (1249, 658), (1280, 670), (1309, 684), (1330, 693)]",22.465755634149623,"[5, 3, 1, 9, 8, 2, 4, 6, 7]","(0, 0.25)",DOT005B,DOT,B,English,Mon Aug 20 12:02:18 2018,Mouse
1,3,2,0,31,3,3,1,479,319,160,139,0,500,200,8000,"[(960, 540), (960, 540), (960, 540), (960, 540), (960, 540), (960, 540), (960, 540), (960, 540), (960, 540), (960, 540), (960, 540), (960, 540), (960, 540), (960, 540), (960, 540), (960, 540), (960, 540), (960, 540), (960, 540), (960, 540), (960, 540), (960, 540), (960, 540), (960, 540), (960, 540), (960, 540), (960, 540), (960, 540), (960, 540), (960, 540), (960, 540), (962, 543), (967, 553), (971, 563), (976, 577), (992, 601), (998, 616), (1011, 640), (1021, 661), (1040, 705), (1048, 724), (1056, 746), (1064, 774), (1080, 827), (1092, 856), (1101, 877), (1109, 898), (1127, 932)]",66.9250057373487,"[5, 3, 1, 9, 8, 2, 4, 6, 7]","(0, 0.25)",DOT005B,DOT,B,English,Mon Aug 20 12:02:18 2018,Mouse
1,3,2,0,32,9,9,1,600,340,260,138,0,500,200,8000,"[(960, 540), (960, 540), (960, 540), (960, 540), (960, 540), (960, 540), (960, 540), (960, 540), (960, 540), (960, 540), (960, 540), (960, 540), (960, 540), (960, 540), (960, 540), (960, 540), (960, 540), (960, 540), (960, 540), (960, 540), (960, 540), (960, 540), (960, 540), (960, 540), (960, 540), (960, 540), (960, 540), (960, 540), (960, 540), (960, 540), (960, 540), (960, 540), (960, 540), (956, 540), (939, 540), (931, 542), (926, 542), (918, 542), (902, 542), (898, 543), (892, 545), (889, 545), (886, 545), (886, 545), (885, 546), (885, 546), (881, 549), (876, 554), (871, 561), (862, 571), (843, 593), (829, 609), (811, 629), (795, 648), (752, 690), (726, 711), (703, 731), (679, 751), (647, 778), (635, 791)]",142.32081491866452,"[5, 3, 1, 9, 8, 2, 4, 6, 7]","(0, 0.25)",DOT005B,DOT,B,English,Mon Aug 20 12:02:18 2018,Mouse
1,3,2,0,33,9,9,1,478,268,210,137,0,500,200,8000,"[(960, 540), (960, 540), (960, 540), (960, 540), (960, 540), (960, 540), (960, 540), (960, 540), (960, 540), (960, 540), (960, 540), (960, 540), (960, 540), (960, 540), (960, 540), (960, 540), (960, 540), (960, 540), (960, 540), (960, 540), (960, 540), (960, 540), (960, 540), (960, 540), (960, 540), (960, 540), (958, 546), (953, 553), (946, 560), (938, 569), (920, 591), (909, 603), (894, 621), (882, 636), (858, 662), (842, 678), (830, 692), (812, 707), (781, 735), (763, 750), (750, 763), (740, 772), (722, 789), (714, 796), (705, 802), (696, 810), (681, 822), (671, 828)]",135.09929934514352,"[5, 3, 1, 9, 8, 2, 4, 6, 7]","(0, 0.25)",DOT005B,DOT,B,English,Mon Aug 20 12:02:18 2018,Mouse
1,3,2,0,34,5,5,1,428,288,140,136,0,500,200,8000,"[(960, 540), (960, 540), (960, 540), (960, 540), (960, 540), (960, 540), (960, 540), (960, 540), (960, 540), (960, 540), (960, 540), (960, 540), (960, 540), (960, 540), (960, 540), (960, 540), (960, 540), (960, 540), (960, 540), (960, 540), (960, 540), (960, 540), (960, 540), (960, 540), (960, 540), (960, 540), (960, 540), (960, 540), (961, 539), (989, 546), (1009, 551), (1025, 555), (1050, 561), (1106, 578), (1137, 586), (1162, 594), (1184, 600), (1231, 619), (1254, 628), (1272, 636), (1290, 645), (1329, 660), (1346, 667)]",18.21200917172449,"[5, 3, 1, 9, 8, 2, 4, 6, 7]","(0, 0.25)",DOT005B,DOT,B,English,Mon Aug 20 12:02:18 2018,Mouse
1,3,2,0,35,7,5,0,-1389,1239,150,135,0,500,200,8000,"[(960, 540), (960, 540), (960, 540), (960, 540), (960, 540), (960, 540), (960, 540), (960, 540), (960, 540), (960, 540), (960, 540), (960, 540), (960, 540), (960, 540), (960, 540), (960, 540), (960, 540), (960, 540), (960, 540), (960, 540), (960, 540), (960, 540), (960, 540), (960, 540), (960, 540), (960, 540), (960, 540), (960, 540), (960, 540), (960, 540), (960, 540), (960, 540), (960, 540), (960, 540), (960, 540), (960, 540), (960, 540), (960, 540), (960, 540), (960, 540), (960, 540), (960, 540), (960, 540), (960, 540), (960, 540), (960, 540), (960, 540), (960, 540), (960, 540), (960, 540), (960, 540), (960, 540), (960, 540), (960, 540), (960, 540), (960, 540), (960, 540), (960, 540), (960, 540), (960, 540), (960, 540), (960, 540), (960, 540), (960, 540), (960, 540), (960, 540), (960, 540), (960, 540), (960, 540), (960, 540), (960, 540), (960, 540), (960, 540), (960, 540), (960, 540), (960, 540), (960, 540), (960, 540), (960, 540), (960, 540), (960, 540), (960, 540), (960, 540), (960, 540), (960, 540), (960, 540), (960, 540), (960, 540), (960, 540), (960, 540), (960, 540), (960, 540), (960, 540), (960, 540), (960, 540), (960, 540), (960, 540), (960, 540), (960, 540), (960, 540), (960, 540), (960, 540), (960, 540), (960, 540), (960, 540), (960, 540), (960, 540), (960, 540), (960, 540), (960, 540), (960, 540), (960, 540), (960, 540), (960, 540), (960, 540), (960, 540), (960, 540), (960, 540), (960, 540), (960, 540), (960, 540), (960, 540), (960, 540), (962, 540), (999, 562), (1023, 573), (1045, 585), (1074, 597), (1129, 621), (1158, 634), (1184, 644), (1213, 656), (1246, 671), (1264, 679), (1277, 684), (1292, 691), (1312, 700), (1318, 704), (1327, 708)]",24.596680507208934,"[5, 3, 1, 9, 8, 2, 4, 6, 7]","(0, 0.25)",DOT005B,DOT,B,English,Mon Aug 20 12:02:18 2018,Mouse
1,3,2,0,36,6,7,0,-720,600,120,136,0,500,200,8000,"[(960, 540), (960, 540), (960, 540), (960, 540), (960, 540), (960, 540), (960, 540), (960, 540), (960, 540), (960, 540), (960, 540), (960, 540), (960, 540), (960, 540), (960, 540), (960, 540), (960, 540), (960, 540), (960, 540), (960, 540), (960, 540), (960, 540), (960, 540), (960, 540), (960, 540), (960, 540), (960, 540), (960, 540), (960, 540), (960, 540), (960, 540), (960, 540), (960, 540), (960, 540), (960, 540), (960, 540), (960, 540), (960, 540), (960, 540), (960, 540), (960, 540), (960, 540), (960, 540), (960, 540), (960, 540), (960, 540), (960, 540), (960, 540), (960, 540), (960, 540), (960, 540), (960, 540), (960, 540), (960, 540), (960, 540), (960, 540), (960, 540), (960, 540), (960, 540), (960, 538), (996, 529), (1016, 522), (1031, 517), (1054, 514), (1115, 499), (1150, 492), (1182, 488), (1215, 482), (1278, 468), (1303, 460), (1331, 452), (1354, 443)]",346.1692396182696,"[5, 3, 1, 9, 8, 2, 4, 6, 7]","(0, 0.25)",DOT005B,DOT,B,English,Mon Aug 20 12:02:18 2018,Mouse
1,3,2,0,37,4,4,1,1428,778,650,137,0,500,200,8000,"[(960, 540), (960, 540), (960, 540), (960, 540), (960, 540), (960, 540), (960, 540), (960, 540), (960, 540), (960, 540), (960, 540), (960, 540), (960, 540), (960, 540), (960, 540), (960, 540), (960, 540), (960, 540), (960, 540), (960, 540), (960, 540), (960, 540), (960, 540), (960, 540), (960, 540), (960, 540), (960, 540), (960, 540), (960, 540), (960, 540), (960, 540), (960, 540), (960, 540), (960, 540), (960, 540), (960, 540), (960, 540), (960, 540), (960, 540), (960, 540), (960, 540), (960, 540), (960, 540), (960, 540), (960, 540), (960, 540), (960, 540), (960, 540), (960, 540), (960, 540), (960, 540), (960, 540), (960, 540), (960, 540), (960, 540), (960, 540), (960, 540), (960, 540), (960, 540), (960, 540), (960, 540), (960, 540), (960, 540), (960, 540), (960, 540), (960, 540), (960, 540), (960, 540), (960, 540), (960, 540), (960, 540), (960, 540), (960, 540), (960, 540), (960, 540), (960, 540), (960, 540), (955, 541), (947, 544), (922, 546), (908, 548), (895, 548), (883, 548), (864, 548), (857, 548), (854, 548), (853, 548), (853, 548), (853, 548), (853, 548), (853, 548), (853, 548), (853, 548), (853, 548), (853, 548), (853, 548), (853, 548), (853, 548), (853, 548), (853, 548), (853, 548), (853, 548), (853, 548), (853, 548), (853, 548), (853, 548), (853, 548), (853, 548), (853, 548), (853, 548), (853, 548), (853, 548), (853, 548), (853, 548), (853, 548), (853, 548), (853, 548), (853, 548), (853, 548), (853, 548), (853, 548), (853, 548), (853, 548), (853, 548), (853, 548), (853, 548), (853, 548), (853, 548), (853, 548), (853, 548), (853, 548), (852, 549), (852, 549), (852, 549), (852, 549), (852, 545), (852, 525), (852, 477), (852, 433), (852, 330), (852, 269), (852, 214), (852, 153)]",254.40718906073366,"[5, 3, 1, 9, 8, 2, 4, 6, 7]","(0, 0.25)",DOT005B,DOT,B,English,Mon Aug 20 12:02:18 2018,Mouse
1,3,2,0,38,8,8,1,1299,979,320,137,0,500,200,8000,"[(960, 540), (960, 540), (960, 540), (960, 540), (960, 540), (960, 540), (960, 540), (960, 540), (960, 540), (960, 540), (960, 540), (960, 540), (960, 540), (960, 540), (960, 540), (960, 540), (960, 540), (960, 540), (960, 540), (960, 540), (960, 540), (960, 540), (960, 540), (960, 540), (960, 540), (960, 540), (960, 540), (960, 540), (960, 540), (960, 540), (960, 540), (960, 540), (960, 540), (960, 540), (960, 540), (960, 540), (960, 540), (960, 540), (960, 540), (960, 540), (960, 540), (960, 540), (960, 540), (960, 540), (960, 540), (960, 540), (960, 540), (960, 540), (960, 540), (960, 540), (960, 540), (960, 540), (960, 540), (960, 540), (960, 540), (960, 540), (960, 540), (960, 540), (960, 540), (960, 540), (960, 540), (960, 540), (960, 540), (960, 540), (960, 540), (960, 540), (960, 540), (960, 540), (960, 540), (960, 540), (960, 540), (960, 540), (960, 540), (960, 540), (960, 540), (960, 540), (960, 540), (960, 540), (960, 540), (960, 540), (960, 540), (960, 540), (960, 540), (960, 540), (960, 540), (960, 540), (960, 540), (960, 540), (960, 540), (960, 540), (960, 540), (960, 540), (960, 540), (960, 540), (960, 540), (960, 540), (960, 540), (958, 541), (952, 541), (944, 542), (939, 542), (937, 542), (934, 542), (931, 542), (930, 542), (927, 542), (924, 542), (915, 542), (910, 542), (903, 543), (895, 545), (884, 547), (878, 547), (876, 547), (874, 547), (869, 548), (864, 549), (861, 549), (858, 550), (841, 552), (832, 552), (820, 552), (807, 554), (770, 558), (745, 558), (716, 562), (685, 562), (621, 562), (591, 562), (555, 562)]",176.89069254906477,"[5, 3, 1, 9, 8, 2, 4, 6, 7]","(0, 0.25)",DOT005B,DOT,B,English,Mon Aug 20 12:02:18 2018,Mouse
1,3,2,0,39,5,5,1,668,418,250,136,0,500,200,8000,"[(960, 540), (960, 540), (960, 540), (960, 540), (960, 540), (960, 540), (960, 540), (960, 540), (960, 540), (960, 540), (960, 540), (960, 540), (960, 540), (960, 540), (960, 540), (960, 540), (960, 540), (960, 540), (960, 540), (960, 540), (960, 540), (960, 540), (960, 540), (960, 540), (960, 540), (960, 540), (960, 540), (960, 540), (960, 540), (960, 540), (960, 540), (960, 540), (960, 540), (960, 540), (960, 540), (960, 540), (960, 540), (960, 540), (960, 540), (960, 540), (960, 540), (961, 540), (961, 540), (963, 540), (963, 540), (963, 540), (964, 541), (964, 541), (964, 541), (967, 542), (968, 543), (971, 543), (976, 546), (995, 554), (1009, 559), (1029, 564), (1050, 568), (1110, 591), (1136, 600), (1166, 609), (1199, 618), (1253, 636), (1276, 643), (1300, 654), (1312, 660), (1335, 669), (1346, 675)]",19.276821573257838,"[5, 3, 1, 9, 8, 2, 4, 6, 7]","(0, 0.25)",DOT005B,DOT,B,English,Mon Aug 20 12:02:18 2018,Mouse
1,3,2,0,40,8,8,1,1029,789,240,135,0,500,200,8000,"[(960, 540), (960, 540), (960, 540), (960, 540), (960, 540), (960, 540), (960, 540), (960, 540), (960, 540), (960, 540), (960, 540), (960, 540), (960, 540), (960, 540), (960, 540), (960, 540), (960, 540), (960, 540), (960, 540), (960, 540), (960, 540), (960, 540), (960, 540), (960, 540), (960, 540), (960, 540), (960, 540), (960, 540), (960, 540), (960, 540), (960, 540), (960, 540), (960, 540), (960, 540), (960, 540), (960, 540), (960, 540), (960, 540), (960, 540), (960, 540), (960, 540), (960, 540), (960, 540), (960, 540), (960, 540), (960, 540), (960, 540), (960, 540), (960, 540), (960, 540), (960, 540), (960, 540), (960, 540), (960, 540), (960, 540), (960, 540), (960, 540), (960, 540), (960, 540), (960, 540), (960, 540), (960, 540), (960, 540), (960, 540), (960, 540), (960, 540), (960, 540), (960, 540), (960, 540), (960, 540), (960, 540), (960, 540), (960, 540), (960, 540), (960, 540), (960, 540), (960, 540), (960, 540), (959, 539), (957, 539), (950, 540), (944, 541), (939, 543), (936, 544), (931, 545), (925, 547), (923, 547), (920, 548), (909, 550), (898, 551), (888, 553), (876, 553), (846, 554), (829, 554), (810, 554), (789, 555), (736, 555), (706, 555), (675, 555), (644, 555), (599, 555), (577, 555), (552, 555)]",177.89448581114397,"[5, 3, 1, 9, 8, 2, 4, 6, 7]","(0, 0.25)",DOT005B,DOT,B,English,Mon Aug 20 12:02:18 2018,Mouse
1,3,2,0,41,3,3,1,589,309,280,134,0,500,200,8000,"[(960, 540), (960, 540), (960, 540), (960, 540), (960, 540), (960, 540), (960, 540), (960, 540), (960, 540), (960, 540), (960, 540), (960, 540), (960, 540), (960, 540), (960, 540), (960, 540), (960, 540), (960, 540), (960, 540), (960, 540), (960, 540), (960, 540), (960, 540), (960, 540), (960, 540), (960, 540), (960, 540), (960, 540), (960, 540), (960, 540), (965, 540), (968, 545), (972, 561), (976, 568), (981, 578), (985, 588), (995, 612), (1002, 625), (1009, 637), (1020, 656), (1042, 683), (1056, 698), (1068, 713), (1076, 725), (1099, 752), (1107, 761), (1116, 771), (1123, 779), (1138, 799), (1144, 808), (1150, 816), (1152, 824), (1159, 835), (1161, 841), (1164, 848), (1167, 856), (1171, 870), (1172, 876), (1175, 884)]",57.9946167919165,"[5, 3, 1, 9, 8, 2, 4, 6, 7]","(0, 0.25)",DOT005B,DOT,B,English,Mon Aug 20 12:02:18 2018,Mouse
1,3,2,0,42,5,5,1,1740,1090,650,133,0,500,200,8000,"[(960, 540), (960, 540), (960, 540), (960, 540), (960, 540), (960, 540), (960, 540), (960, 540), (960, 540), (960, 540), (960, 540), (960, 540), (960, 540), (960, 540), (960, 540), (960, 540), (960, 540), (960, 540), (960, 540), (960, 540), (960, 540), (960, 540), (960, 540), (960, 540), (960, 540), (960, 540), (960, 540), (960, 540), (960, 540), (960, 540), (960, 540), (960, 540), (960, 540), (960, 540), (960, 540), (960, 540), (960, 540), (960, 540), (960, 540), (960, 540), (960, 540), (960, 540), (960, 540), (960, 540), (960, 540), (960, 540), (960, 540), (960, 540), (960, 540), (960, 540), (960, 540), (960, 540), (960, 540), (960, 540), (960, 540), (960, 540), (960, 540), (960, 540), (960, 540), (960, 540), (960, 540), (960, 540), (960, 540), (960, 540), (960, 540), (960, 540), (960, 540), (960, 540), (960, 540), (960, 540), (960, 540), (960, 540), (960, 540), (960, 540), (960, 540), (960, 540), (960, 540), (960, 540), (960, 540), (960, 540), (960, 540), (960, 540), (960, 540), (960, 540), (960, 540), (960, 540), (960, 540), (960, 540), (960, 540), (960, 540), (960, 540), (960, 540), (960, 540), (960, 540), (960, 540), (960, 540), (960, 540), (960, 540), (960, 540), (960, 540), (960, 540), (960, 540), (960, 540), (960, 540), (960, 540), (960, 540), (960, 540), (960, 540), (964, 535), (979, 526), (996, 516), (1017, 506), (1064, 485), (1096, 471), (1122, 458), (1130, 451), (1159, 438), (1167, 435), (1173, 433), (1176, 430), (1178, 429), (1178, 429), (1178, 429), (1178, 429), (1178, 429), (1178, 429), (1178, 429), (1178, 429), (1178, 429), (1178, 429), (1178, 429), (1178, 429), (1178, 432), (1176, 438), (1172, 447), (1167, 459), (1160, 485), (1159, 502), (1158, 516), (1156, 531), (1156, 556), (1158, 567), (1163, 581), (1169, 594), (1184, 621), (1194, 633), (1202, 643), (1208, 649), (1220, 660), (1227, 664), (1231, 667), (1235, 670), (1245, 675), (1247, 677), (1252, 679), (1258, 683), (1267, 685), (1272, 688), (1275, 689), (1278, 692), (1286, 693), (1288, 696), (1290, 696), (1290, 696), (1291, 697), (1291, 697), (1293, 697), (1294, 698), (1297, 699), (1300, 700), (1303, 701), (1306, 702), (1323, 708), (1332, 710)]",24.559891043701096,"[5, 3, 1, 9, 8, 2, 4, 6, 7]","(0, 0.25)",DOT005B,DOT,B,English,Mon Aug 20 12:02:18 2018,Mouse
1,3,2,0,43,8,9,0,-869,629,240,132,0,500,200,8000,"[(960, 540), (960, 540), (960, 540), (960, 540), (960, 540), (960, 540), (960, 540), (960, 540), (960, 540), (960, 540), (960, 540), (960, 540), (960, 540), (960, 540), (960, 540), (960, 540), (960, 540), (960, 540), (960, 540), (960, 540), (960, 540), (960, 540), (960, 540), (960, 540), (960, 540), (960, 540), (960, 540), (960, 540), (960, 540), (960, 540), (960, 540), (960, 540), (960, 540), (960, 540), (960, 540), (960, 540), (960, 540), (960, 540), (960, 540), (960, 540), (960, 540), (960, 540), (960, 540), (960, 540), (960, 540), (960, 540), (960, 540), (960, 540), (960, 540), (960, 540), (960, 540), (960, 540), (960, 540), (960, 540), (960, 540), (960, 540), (960, 540), (960, 540), (960, 540), (960, 540), (960, 540), (960, 540), (959, 540), (956, 541), (953, 544), (937, 557), (927, 567), (915, 579), (903, 592), (875, 629), (863, 644), (853, 656), (844, 665), (825, 687), (814, 699), (806, 710), (797, 719), (778, 737), (768, 745), (759, 754), (748, 764), (730, 783), (724, 792), (716, 801), (708, 810), (693, 828), (686, 837)]",132.6933609244846,"[5, 3, 1, 9, 8, 2, 4, 6, 7]","(0, 0.25)",DOT005B,DOT,B,English,Mon Aug 20 12:02:18 2018,Mouse
1,3,2,0,44,6,7,0,-1108,528,580,133,0,500,200,8000,"[(960, 540), (960, 540), (960, 540), (960, 540), (960, 540), (960, 540), (960, 540), (960, 540), (960, 540), (960, 540), (960, 540), (960, 540), (960, 540), (960, 540), (960, 540), (960, 540), (960, 540), (960, 540), (960, 540), (960, 540), (960, 540), (960, 540), (960, 540), (960, 540), (960, 540), (960, 540), (960, 540), (960, 540), (960, 540), (960, 540), (960, 540), (960, 540), (960, 540), (960, 540), (960, 540), (960, 540), (960, 540), (960, 540), (960, 540), (960, 540), (960, 540), (960, 540), (960, 540), (960, 540), (960, 540), (960, 540), (960, 540), (960, 540), (960, 540), (960, 540), (960, 540), (960, 540), (961, 539), (965, 538), (971, 533), (975, 531), (981, 526), (990, 520), (1013, 510), (1028, 503), (1040, 497), (1057, 491), (1091, 474), (1103, 470), (1116, 464), (1126, 459), (1143, 452), (1152, 449), (1158, 446), (1165, 444), (1180, 436), (1185, 434), (1193, 431), (1199, 428), (1211, 423), (1214, 421), (1216, 421), (1218, 420), (1219, 420), (1219, 420), (1219, 420), (1219, 420), (1219, 420), (1219, 420), (1219, 420), (1219, 420), (1219, 420), (1219, 420), (1219, 420), (1219, 420), (1219, 420), (1219, 420), (1219, 420), (1219, 420), (1219, 420), (1219, 420), (1219, 420), (1219, 420), (1219, 420), (1219, 420), (1219, 420), (1219, 420), (1219, 420), (1219, 420), (1222, 418), (1228, 416), (1255, 411), (1272, 409), (1294, 404), (1318, 401), (1360, 396)]",340.2011236454751,"[5, 3, 1, 9, 8, 2, 4, 6, 7]","(0, 0.25)",DOT005B,DOT,B,English,Mon Aug 20 12:02:18 2018,Mouse
1,3,2,0,45,2,3,0,-689,539,150,134,0,500,200,8000,"[(960, 540), (960, 540), (960, 540), (960, 540), (960, 540), (960, 540), (960, 540), (960, 540), (960, 540), (960, 540), (960, 540), (960, 540), (960, 540), (960, 540), (960, 540), (960, 540), (960, 540), (960, 540), (960, 540), (960, 540), (960, 540), (960, 540), (960, 540), (960, 540), (960, 540), (960, 540), (960, 540), (960, 540), (960, 540), (960, 540), (960, 540), (960, 540), (960, 540), (960, 540), (960, 540), (960, 540), (960, 540), (960, 540), (960, 540), (960, 540), (960, 540), (960, 540), (960, 540), (960, 540), (960, 540), (960, 540), (960, 540), (960, 540), (960, 540), (960, 540), (960, 540), (960, 540), (960, 540), (959, 542), (961, 554), (966, 566), (972, 580), (980, 598), (1000, 643), (1013, 670), (1029, 699), (1044, 726), (1075, 781), (1087, 800), (1101, 822), (1121, 857), (1129, 875), (1136, 893), (1143, 911)]",63.74465272288084,"[5, 3, 1, 9, 8, 2, 4, 6, 7]","(0, 0.25)",DOT005B,DOT,B,English,Mon Aug 20 12:02:18 2018,Mouse
1,3,2,0,46,8,9,0,-710,520,190,135,0,500,200,8000,"[(960, 540), (960, 540), (960, 540), (960, 540), (960, 540), (960, 540), (960, 540), (960, 540), (960, 540), (960, 540), (960, 540), (960, 540), (960, 540), (960, 540), (960, 540), (960, 540), (960, 540), (960, 540), (960, 540), (960, 540), (960, 540), (960, 540), (960, 540), (960, 540), (960, 540), (960, 540), (960, 540), (960, 540), (960, 540), (960, 540), (960, 540), (960, 540), (960, 540), (960, 540), (960, 540), (960, 540), (960, 540), (960, 540), (960, 540), (960, 540), (960, 540), (960, 540), (960, 540), (960, 540), (960, 540), (960, 540), (960, 540), (960, 540), (960, 540), (960, 540), (960, 540), (958, 540), (952, 541), (945, 547), (936, 553), (917, 567), (905, 575), (893, 586), (880, 597), (852, 622), (839, 640), (823, 658), (813, 670), (797, 695), (786, 709), (771, 727), (756, 745), (724, 783), (709, 803), (692, 828), (678, 848)]",132.47673376649706,"[5, 3, 1, 9, 8, 2, 4, 6, 7]","(0, 0.25)",DOT005B,DOT,B,English,Mon Aug 20 12:02:18 2018,Mouse
1,3,2,0,47,9,9,1,370,210,160,136,0,500,200,8000,"[(960, 540), (960, 540), (960, 540), (960, 540), (960, 540), (960, 540), (960, 540), (960, 540), (960, 540), (960, 540), (960, 540), (960, 540), (960, 540), (960, 540), (960, 540), (960, 540), (960, 540), (960, 540), (960, 540), (960, 540), (957, 543), (952, 547), (947, 552), (932, 565), (922, 573), (913, 583), (901, 594), (873, 619), (850, 637), (834, 651), (814, 667), (773, 700), (753, 717), (730, 735), (709, 753), (673, 784), (655, 799)]",139.66273933625465,"[5, 3, 1, 9, 8, 2, 4, 6, 7]","(0, 0.25)",DOT005B,DOT,B,English,Mon Aug 20 12:02:18 2018,Mouse
1,3,2,0,48,4,5,0,-619,249,370,136,0,500,200,8000,"[(960, 540), (960, 540), (960, 540), (960, 540), (960, 540), (960, 540), (960, 540), (960, 540), (960, 540), (960, 540), (960, 540), (960, 540), (960, 540), (960, 540), (960, 540), (960, 540), (960, 540), (960, 540), (960, 540), (960, 540), (960, 540), (960, 540), (960, 540), (960, 540), (957, 541), (956, 542), (956, 542), (956, 542), (956, 542), (956, 542), (956, 542), (956, 542), (956, 542), (956, 542), (956, 542), (956, 542), (956, 542), (956, 542), (956, 542), (956, 542), (956, 542), (955, 542), (957, 545), (963, 546), (970, 547), (986, 556), (997, 561), (1014, 569), (1035, 578), (1082, 599), (1111, 610), (1132, 621), (1161, 633), (1207, 650), (1227, 659), (1243, 666), (1254, 671), (1274, 680), (1286, 684), (1296, 689), (1308, 693), (1332, 704)]",23.7907738657772,"[5, 3, 1, 9, 8, 2, 4, 6, 7]","(0, 0.25)",DOT005B,DOT,B,English,Mon Aug 20 12:02:18 2018,Mouse
1,3,2,0,49,9,9,1,400,230,170,137,0,500,200,8000,"[(960, 540), (960, 540), (960, 540), (960, 540), (960, 540), (960, 540), (960, 540), (960, 540), (960, 540), (960, 540), (960, 540), (960, 540), (960, 540), (960, 540), (960, 540), (960, 540), (960, 540), (960, 540), (960, 540), (960, 540), (960, 540), (960, 540), (959, 540), (955, 543), (950, 549), (945, 556), (928, 576), (916, 590), (901, 607), (885, 623), (847, 663), (828, 680), (805, 700), (782, 718), (742, 747), (722, 761), (705, 774), (688, 787), (666, 802), (658, 808)]",138.41359827477189,"[5, 3, 1, 9, 8, 2, 4, 6, 7]","(0, 0.25)",DOT005B,DOT,B,English,Mon Aug 20 12:02:18 2018,Mouse
1,3,2,0,50,9,9,1,387,177,210,137,0,500,200,8000,"[(960, 540), (960, 540), (960, 540), (960, 540), (960, 540), (960, 540), (960, 540), (960, 540), (960, 540), (960, 540), (960, 540), (960, 540), (960, 540), (960, 540), (960, 540), (960, 540), (960, 540), (959, 541), (955, 544), (952, 549), (950, 551), (946, 556), (934, 568), (926, 579), (919, 586), (911, 595), (889, 620), (876, 635), (861, 651), (837, 671), (796, 706), (773, 724), (750, 740), (735, 756), (704, 782), (689, 794), (680, 801), (670, 811), (653, 825)]",137.12825568433044,"[5, 3, 1, 9, 8, 2, 4, 6, 7]","(0, 0.25)",DOT005B,DOT,B,English,Mon Aug 20 12:02:18 2018,Mouse
1,3,2,0,51,1,1,1,329,189,140,136,0,500,200,8000,"[(960, 540), (960, 540), (960, 540), (960, 540), (960, 540), (960, 540), (960, 540), (960, 540), (960, 540), (960, 540), (960, 540), (960, 540), (960, 540), (960, 540), (960, 540), (960, 540), (960, 540), (960, 540), (960, 551), (960, 561), (960, 572), (959, 587), (955, 621), (951, 645), (949, 669), (944, 698), (933, 755), (924, 783), (918, 808), (910, 838), (893, 894), (885, 919), (877, 945)]",101.58173204577102,"[5, 3, 1, 9, 8, 2, 4, 6, 7]","(0, 0.25)",DOT005B,DOT,B,English,Mon Aug 20 12:02:18 2018,Mouse
1,3,2,0,52,7,7,1,1280,1180,100,135,0,500,200,8000,"[(960, 540), (960, 540), (960, 540), (960, 540), (960, 540), (960, 540), (960, 540), (960, 540), (960, 540), (960, 540), (960, 540), (960, 540), (960, 540), (960, 540), (960, 540), (960, 540), (960, 540), (960, 540), (960, 540), (960, 540), (960, 540), (960, 540), (960, 540), (960, 540), (960, 540), (960, 540), (960, 540), (960, 540), (960, 540), (960, 540), (960, 540), (960, 540), (960, 540), (960, 540), (960, 540), (960, 540), (960, 540), (960, 540), (960, 540), (960, 540), (960, 540), (960, 540), (960, 540), (960, 540), (960, 540), (960, 540), (960, 540), (960, 540), (960, 540), (960, 540), (960, 540), (960, 540), (960, 540), (960, 540), (960, 540), (960, 540), (960, 540), (960, 540), (960, 540), (960, 540), (960, 540), (960, 540), (960, 540), (960, 540), (960, 540), (960, 540), (960, 540), (960, 540), (960, 540), (960, 540), (960, 540), (960, 540), (960, 540), (960, 540), (960, 540), (960, 540), (960, 540), (960, 540), (960, 540), (960, 540), (960, 540), (960, 540), (960, 540), (960, 540), (960, 540), (960, 540), (960, 540), (960, 540), (960, 540), (960, 540), (960, 540), (960, 540), (960, 540), (960, 540), (960, 540), (960, 540), (960, 540), (960, 540), (960, 540), (960, 540), (960, 540), (960, 540), (960, 540), (960, 540), (960, 540), (960, 540), (960, 540), (960, 540), (960, 540), (960, 540), (960, 540), (960, 540), (960, 540), (960, 540), (960, 540), (960, 540), (960, 540), (965, 537), (979, 536), (1022, 529), (1050, 521), (1086, 510), (1125, 499), (1203, 477), (1245, 463), (1275, 455), (1309, 446), (1370, 427)]",344.59127367699284,"[5, 3, 1, 9, 8, 2, 4, 6, 7]","(0, 0.25)",DOT005B,DOT,B,English,Mon Aug 20 12:02:18 2018,Mouse
1,3,2,0,53,1,1,1,390,169,221,134,0,500,200,8000,"[(960, 540), (960, 540), (960, 540), (960, 540), (960, 540), (960, 540), (960, 540), (960, 540), (960, 540), (960, 540), (960, 540), (960, 540), (960, 540), (960, 540), (960, 540), (960, 540), (960, 542), (957, 544), (955, 546), (953, 548), (952, 549), (951, 550), (945, 559), (943, 562), (942, 568), (940, 576), (939, 598), (939, 613), (939, 627), (939, 640), (939, 686), (939, 711), (939, 742), (939, 778), (939, 842), (939, 875), (938, 893), (937, 913), (931, 961)]",93.94051550437904,"[5, 3, 1, 9, 8, 2, 4, 6, 7]","(0, 0.25)",DOT005B,DOT,B,English,Mon Aug 20 12:02:18 2018,Mouse
1,3,2,0,54,5,5,1,731,601,130,133,0,500,200,8000,"[(960, 540), (960, 540), (960, 540), (960, 540), (960, 540), (960, 540), (960, 540), (960, 540), (960, 540), (960, 540), (960, 540), (960, 540), (960, 540), (960, 540), (960, 540), (960, 540), (960, 540), (960, 540), (960, 540), (960, 540), (960, 540), (960, 540), (960, 540), (960, 540), (960, 540), (960, 540), (960, 540), (960, 540), (960, 540), (960, 540), (960, 540), (960, 540), (960, 540), (960, 540), (960, 540), (960, 540), (960, 540), (960, 540), (960, 540), (960, 540), (960, 540), (960, 540), (960, 540), (960, 540), (960, 540), (960, 540), (960, 540), (960, 540), (960, 540), (960, 540), (960, 540), (960, 540), (960, 540), (960, 540), (960, 540), (960, 540), (960, 540), (960, 540), (960, 540), (960, 540), (963, 539), (971, 543), (988, 549), (1032, 567), (1055, 575), (1081, 586), (1110, 598), (1165, 621), (1191, 633), (1215, 644), (1244, 658), (1296, 679), (1314, 687), (1333, 696)]",22.696172067420708,"[5, 3, 1, 9, 8, 2, 4, 6, 7]","(0, 0.25)",DOT005B,DOT,B,English,Mon Aug 20 12:02:18 2018,Mouse
1,3,2,0,55,8,7,0,-788,708,80,132,0,500,200,8000,"[(960, 540), (960, 540), (960, 540), (960, 540), (960, 540), (960, 540), (960, 540), (960, 540), (960, 540), (960, 540), (960, 540), (960, 540), (960, 540), (960, 540), (960, 540), (960, 540), (960, 540), (960, 540), (960, 540), (960, 540), (960, 540), (960, 540), (960, 540), (960, 540), (960, 540), (960, 540), (960, 540), (960, 540), (960, 540), (960, 540), (960, 540), (960, 540), (960, 540), (960, 540), (960, 540), (960, 540), (960, 540), (960, 540), (960, 540), (960, 540), (960, 540), (960, 540), (960, 540), (960, 540), (960, 540), (960, 540), (960, 540), (960, 540), (960, 540), (960, 540), (960, 540), (960, 540), (960, 540), (960, 540), (960, 540), (960, 540), (960, 540), (960, 540), (960, 540), (960, 540), (960, 540), (960, 540), (960, 540), (960, 540), (960, 540), (960, 540), (960, 540), (960, 540), (960, 540), (960, 540), (962, 538), (975, 531), (1026, 505), (1058, 491), (1098, 474), (1146, 453), (1256, 412), (1309, 394), (1358, 382)]",338.3476685280911,"[5, 3, 1, 9, 8, 2, 4, 6, 7]","(0, 0.25)",DOT005B,DOT,B,English,Mon Aug 20 12:02:18 2018,Mouse
1,3,2,0,56,5,5,1,518,278,240,133,0,500,200,8000,"[(960, 540), (960, 540), (960, 540), (960, 540), (960, 540), (960, 540), (960, 540), (960, 540), (960, 540), (960, 540), (960, 540), (960, 540), (960, 540), (960, 540), (960, 540), (960, 540), (960, 540), (960, 540), (960, 540), (960, 540), (960, 540), (960, 540), (960, 540), (960, 540), (960, 540), (960, 540), (960, 540), (960, 542), (965, 547), (988, 560), (1010, 572), (1034, 583), (1053, 593), (1097, 612), (1114, 618), (1125, 623), (1137, 625), (1151, 628), (1158, 628), (1163, 629), (1168, 629), (1181, 629), (1188, 629), (1194, 629), (1199, 629), (1214, 629), (1225, 630), (1239, 634), (1258, 640), (1303, 654), (1323, 663), (1341, 670)]",18.840018284284135,"[5, 3, 1, 9, 8, 2, 4, 6, 7]","(0, 0.25)",DOT005B,DOT,B,English,Mon Aug 20 12:02:18 2018,Mouse
1,3,2,0,57,9,1,0,-369,209,160,133,0,500,200,8000,"[(960, 540), (960, 540), (960, 540), (960, 540), (960, 540), (960, 540), (960, 540), (960, 540), (960, 540), (960, 540), (960, 540), (960, 540), (960, 540), (960, 540), (960, 540), (960, 540), (960, 540), (960, 540), (960, 540), (960, 540), (959, 540), (957, 541), (955, 543), (954, 548), (950, 563), (948, 574), (943, 586), (940, 600), (931, 630), (924, 650), (918, 675), (907, 709), (887, 783), (878, 824), (869, 855), (858, 891), (837, 961)]",106.28633137294574,"[5, 3, 1, 9, 8, 2, 4, 6, 7]","(0, 0.25)",DOT005B,DOT,B,English,Mon Aug 20 12:02:18 2018,Mouse
1,3,2,0,58,6,4,0,-1170,1090,80,134,0,500,200,8000,"[(960, 540), (960, 540), (960, 540), (960, 540), (960, 540), (960, 540), (960, 540), (960, 540), (960, 540), (960, 540), (960, 540), (960, 540), (960, 540), (960, 540), (960, 540), (960, 540), (960, 540), (960, 540), (960, 540), (960, 540), (960, 540), (960, 540), (960, 540), (960, 540), (960, 540), (960, 540), (960, 540), (960, 540), (960, 540), (960, 540), (960, 540), (960, 540), (960, 540), (960, 540), (960, 540), (960, 540), (960, 540), (960, 540), (960, 540), (960, 540), (960, 540), (960, 540), (960, 540), (960, 540), (960, 540), (960, 540), (960, 540), (960, 540), (960, 540), (960, 540), (960, 540), (960, 540), (960, 540), (960, 540), (960, 540), (960, 540), (960, 540), (960, 540), (960, 540), (960, 540), (960, 540), (960, 540), (960, 540), (960, 540), (960, 540), (960, 540), (960, 540), (960, 540), (960, 540), (960, 540), (960, 540), (960, 540), (960, 540), (960, 540), (960, 540), (960, 540), (960, 540), (960, 540), (960, 540), (960, 540), (960, 540), (960, 540), (960, 540), (960, 540), (960, 540), (960, 540), (960, 540), (960, 540), (960, 540), (960, 540), (960, 540), (960, 540), (960, 540), (960, 540), (960, 540), (960, 540), (960, 540), (960, 540), (960, 540), (960, 540), (960, 540), (960, 540), (960, 540), (960, 540), (960, 540), (960, 540), (960, 540), (960, 540), (960, 528), (955, 465), (952, 428), (946, 382), (940, 345), (928, 264), (918, 225), (915, 180), (900, 140)]",261.46923439005184,"[5, 3, 1, 9, 8, 2, 4, 6, 7]","(0, 0.25)",DOT005B,DOT,B,English,Mon Aug 20 12:02:18 2018,Mouse
1,3,2,0,59,8,8,1,641,411,230,135,0,500,200,8000,"[(960, 540), (960, 540), (960, 540), (960, 540), (960, 540), (960, 540), (960, 540), (960, 540), (960, 540), (960, 540), (960, 540), (960, 540), (960, 540), (960, 540), (960, 540), (960, 540), (960, 540), (960, 540), (960, 540), (960, 540), (960, 540), (960, 540), (960, 540), (960, 540), (960, 540), (960, 540), (960, 540), (960, 540), (960, 540), (960, 540), (960, 540), (960, 540), (960, 540), (960, 540), (960, 540), (960, 540), (960, 540), (960, 540), (960, 540), (960, 540), (959, 540), (959, 540), (958, 540), (957, 541), (956, 542), (956, 542), (955, 542), (953, 542), (952, 543), (948, 544), (941, 546), (921, 547), (905, 547), (885, 547), (866, 547), (815, 547), (787, 547), (754, 547), (721, 547), (657, 547), (626, 547), (606, 547), (587, 547), (555, 547)]",179.00980117079564,"[5, 3, 1, 9, 8, 2, 4, 6, 7]","(0, 0.25)",DOT005B,DOT,B,English,Mon Aug 20 12:02:18 2018,Mouse
1,3,2,0,60,9,9,1,350,70,280,135,0,500,200,8000,"[(960, 540), (960, 540), (960, 540), (960, 540), (960, 540), (960, 540), (959, 541), (959, 542), (958, 542), (957, 543), (955, 545), (953, 548), (951, 549), (948, 552), (939, 560), (934, 564), (928, 570), (920, 581), (903, 600), (892, 612), (880, 625), (866, 640), (844, 661), (832, 671), (819, 682), (807, 692), (780, 712), (768, 723), (758, 731), (748, 740), (726, 759), (716, 768), (703, 778), (686, 789), (657, 810)]",138.29611597254632,"[5, 3, 1, 9, 8, 2, 4, 6, 7]","(0, 0.25)",DOT005B,DOT,B,English,Mon Aug 20 12:02:18 2018,Mouse
1,3,2,0,61,1,1,1,309,169,140,134,0,500,200,8000,"[(960, 540), (960, 540), (960, 540), (960, 540), (960, 540), (960, 540), (960, 540), (960, 540), (960, 540), (960, 540), (960, 540), (960, 540), (960, 540), (960, 540), (960, 540), (960, 540), (961, 540), (961, 544), (955, 565), (954, 580), (952, 598), (947, 622), (939, 681), (936, 712), (931, 745), (928, 771), (919, 830), (915, 854), (912, 880), (907, 902), (893, 954)]",99.19280269298558,"[5, 3, 1, 9, 8, 2, 4, 6, 7]","(0, 0.25)",DOT005B,DOT,B,English,Mon Aug 20 12:02:18 2018,Mouse
1,3,2,0,62,4,5,0,-798,698,100,133,0,500,200,8000,"[(960, 540), (960, 540), (960, 540), (960, 540), (960, 540), (960, 540), (960, 540), (960, 540), (960, 540), (960, 540), (960, 540), (960, 540), (960, 540), (960, 540), (960, 540), (960, 540), (960, 540), (960, 540), (960, 540), (960, 540), (960, 540), (960, 540), (960, 540), (960, 540), (960, 540), (960, 540), (960, 540), (960, 540), (960, 540), (960, 540), (960, 540), (960, 540), (960, 540), (960, 540), (960, 540), (960, 540), (960, 540), (960, 540), (960, 540), (960, 540), (960, 540), (960, 540), (960, 540), (960, 540), (960, 540), (960, 540), (960, 540), (960, 540), (960, 540), (960, 540), (960, 540), (960, 540), (960, 540), (960, 540), (960, 540), (960, 540), (960, 540), (960, 540), (960, 540), (960, 540), (960, 540), (960, 540), (960, 540), (960, 540), (960, 540), (960, 540), (960, 540), (960, 540), (960, 540), (964, 539), (977, 546), (1023, 570), (1052, 585), (1090, 606), (1127, 621), (1215, 656), (1247, 672), (1281, 685), (1310, 697), (1348, 711)]",23.784126252451294,"[5, 3, 1, 9, 8, 2, 4, 6, 7]","(0, 0.25)",DOT005B,DOT,B,English,Mon Aug 20 12:02:18 2018,Mouse
1,3,2,0,63,3,1,0,-309,69,240,134,0,500,200,8000,"[(960, 540), (960, 540), (960, 540), (960, 540), (960, 540), (960, 540), (959, 540), (957, 540), (955, 542), (953, 547), (949, 554), (946, 559), (944, 562), (941, 568), (936, 581), (933, 588), (929, 598), (924, 610), (916, 632), (911, 648), (908, 662), (902, 682), (894, 725), (891, 749), (886, 773), (885, 796), (877, 844), (874, 868), (871, 897), (871, 922), (870, 970)]",101.82148834060726,"[5, 3, 1, 9, 8, 2, 4, 6, 7]","(0, 0.25)",DOT005B,DOT,B,English,Mon Aug 20 12:02:18 2018,Mouse
1,3,2,0,64,2,2,1,880,660,220,135,0,500,200,8000,"[(960, 540), (960, 540), (960, 540), (960, 540), (960, 540), (960, 540), (960, 540), (960, 540), (960, 540), (960, 540), (960, 540), (960, 540), (960, 540), (960, 540), (960, 540), (960, 540), (960, 540), (960, 540), (960, 540), (960, 540), (960, 540), (960, 540), (960, 540), (960, 540), (960, 540), (960, 540), (960, 540), (960, 540), (960, 540), (960, 540), (960, 540), (960, 540), (960, 540), (960, 540), (960, 540), (960, 540), (960, 540), (960, 540), (960, 540), (960, 540), (960, 540), (960, 540), (960, 540), (960, 540), (960, 540), (960, 540), (960, 540), (960, 540), (960, 540), (960, 540), (960, 540), (960, 540), (960, 540), (960, 540), (960, 540), (960, 540), (960, 540), (960, 540), (960, 540), (960, 540), (960, 540), (960, 540), (960, 540), (960, 540), (960, 540), (958, 533), (943, 524), (926, 515), (899, 500), (867, 481), (855, 474), (842, 467), (831, 460), (806, 443), (796, 437), (784, 427), (775, 419), (756, 402), (745, 394), (735, 385), (725, 376), (701, 357), (688, 346), (677, 339), (669, 332), (646, 321), (637, 313), (628, 307)]",215.06145556692553,"[5, 3, 1, 9, 8, 2, 4, 6, 7]","(0, 0.25)",DOT005B,DOT,B,English,Mon Aug 20 12:02:18 2018,Mouse
1,3,2,0,65,9,9,1,339,179,160,135,0,500,200,8000,"[(960, 540), (960, 540), (960, 540), (960, 540), (960, 540), (960, 540), (960, 540), (960, 540), (960, 540), (960, 540), (960, 540), (960, 540), (960, 540), (960, 540), (960, 540), (960, 540), (960, 540), (960, 542), (957, 546), (950, 551), (936, 567), (925, 575), (911, 586), (894, 597), (859, 625), (843, 639), (826, 654), (808, 669), (769, 703), (746, 723), (722, 743), (702, 760), (664, 790), (647, 802)]",140.06862281863818,"[5, 3, 1, 9, 8, 2, 4, 6, 7]","(0, 0.25)",DOT005B,DOT,B,English,Mon Aug 20 12:02:18 2018,Mouse
1,3,2,0,66,4,7,0,-1901,1661,240,134,0,500,200,8000,"[(960, 540), (960, 540), (960, 540), (960, 540), (960, 540), (960, 540), (960, 540), (960, 540), (960, 540), (960, 540), (960, 540), (960, 540), (960, 540), (960, 540), (960, 540), (960, 540), (960, 540), (960, 540), (960, 540), (960, 540), (960, 540), (960, 540), (960, 540), (960, 540), (960, 540), (960, 540), (960, 540), (960, 540), (960, 540), (960, 540), (960, 540), (960, 540), (960, 540), (960, 540), (960, 540), (960, 540), (960, 540), (960, 540), (960, 540), (960, 540), (960, 540), (960, 540), (960, 540), (960, 540), (960, 540), (960, 540), (960, 540), (960, 540), (960, 540), (960, 540), (960, 540), (960, 540), (960, 540), (960, 540), (960, 540), (960, 540), (960, 540), (960, 540), (960, 540), (960, 540), (960, 540), (960, 540), (960, 540), (960, 540), (960, 540), (960, 540), (960, 540), (960, 540), (960, 540), (960, 540), (960, 540), (960, 540), (960, 540), (960, 540), (960, 540), (960, 540), (960, 540), (960, 540), (960, 540), (960, 540), (960, 540), (960, 540), (960, 540), (960, 540), (960, 540), (960, 540), (960, 540), (960, 540), (960, 540), (960, 540), (960, 540), (960, 540), (960, 540), (960, 540), (960, 540), (960, 540), (960, 540), (960, 540), (960, 540), (960, 540), (960, 540), (960, 540), (960, 540), (960, 540), (960, 540), (960, 540), (960, 540), (960, 540), (960, 540), (960, 540), (960, 540), (960, 540), (960, 540), (960, 540), (960, 540), (960, 540), (960, 540), (960, 540), (960, 540), (960, 540), (960, 540), (960, 540), (960, 540), (960, 540), (960, 540), (960, 540), (960, 540), (960, 540), (960, 540), (960, 540), (960, 540), (960, 540), (960, 540), (960, 540), (960, 540), (960, 540), (960, 540), (960, 540), (960, 540), (960, 540), (960, 540), (960, 540), (960, 540), (960, 540), (960, 540), (960, 540), (960, 540), (960, 540), (960, 540), (960, 540), (960, 540), (960, 540), (960, 540), (960, 540), (960, 540), (960, 540), (960, 540), (960, 540), (960, 540), (960, 540), (960, 540), (960, 540), (960, 540), (960, 540), (960, 540), (960, 540), (960, 541), (968, 542), (976, 544), (986, 544), (1005, 544), (1021, 539), (1034, 536), (1050, 531), (1092, 511), (1107, 505), (1122, 497), (1141, 489), (1177, 473), (1189, 468), (1202, 463), (1212, 459), (1228, 453), (1239, 450), (1247, 447), (1259, 443), (1277, 438), (1287, 436), (1298, 432), (1312, 426), (1343, 417)]",342.1956396405322,"[5, 3, 1, 9, 8, 2, 4, 6, 7]","(0, 0.25)",DOT005B,DOT,B,English,Mon Aug 20 12:02:18 2018,Mouse
1,3,2,0,67,6,7,0,-1221,561,660,135,0,500,200,8000,"[(960, 540), (960, 540), (960, 540), (960, 540), (960, 540), (960, 540), (960, 540), (960, 540), (960, 540), (960, 540), (960, 540), (960, 540), (960, 540), (960, 540), (960, 540), (960, 540), (960, 540), (960, 540), (960, 540), (960, 540), (960, 540), (960, 540), (960, 540), (960, 540), (960, 540), (960, 540), (960, 540), (960, 540), (960, 540), (960, 540), (960, 540), (960, 540), (960, 540), (960, 540), (960, 540), (960, 540), (960, 540), (960, 540), (960, 540), (960, 540), (960, 540), (960, 540), (960, 540), (960, 540), (960, 540), (960, 540), (960, 540), (960, 540), (960, 540), (960, 540), (960, 540), (960, 540), (960, 540), (960, 540), (960, 540), (960, 540), (959, 540), (959, 540), (959, 540), (959, 540), (959, 540), (959, 540), (959, 540), (959, 540), (959, 540), (959, 540), (959, 540), (959, 540), (959, 540), (959, 540), (959, 540), (959, 540), (959, 540), (959, 540), (959, 540), (959, 540), (959, 540), (959, 540), (959, 540), (959, 540), (959, 540), (959, 540), (959, 540), (959, 540), (959, 540), (959, 540), (959, 540), (959, 540), (959, 540), (959, 540), (959, 540), (959, 540), (959, 540), (959, 540), (959, 540), (959, 540), (959, 540), (959, 540), (959, 540), (959, 540), (959, 540), (959, 540), (959, 540), (959, 540), (959, 540), (959, 540), (959, 540), (959, 540), (959, 540), (959, 540), (959, 540), (962, 539), (971, 535), (981, 528), (996, 519), (1046, 496), (1086, 479), (1121, 465), (1169, 442), (1247, 418), (1279, 406), (1312, 397), (1345, 387)]",338.32699858981596,"[5, 3, 1, 9, 8, 2, 4, 6, 7]","(0, 0.25)",DOT005B,DOT,B,English,Mon Aug 20 12:02:18 2018,Mouse
1,3,2,0,68,1,1,1,320,170,150,136,0,500,200,8000,"[(960, 540), (960, 540), (960, 540), (960, 540), (960, 540), (960, 540), (960, 540), (960, 540), (960, 540), (960, 540), (960, 540), (960, 540), (960, 540), (960, 540), (960, 540), (960, 540), (958, 540), (957, 540), (954, 543), (953, 545), (947, 559), (941, 570), (937, 584), (931, 602), (918, 646), (912, 674), (903, 704), (890, 744), (871, 829), (864, 867), (860, 901), (855, 939)]",104.74356283647074,"[5, 3, 1, 9, 8, 2, 4, 6, 7]","(0, 0.25)",DOT005B,DOT,B,English,Mon Aug 20 12:02:18 2018,Mouse
1,3,2,0,69,2,3,0,-641,381,260,136,0,500,200,8000,"[(960, 540), (960, 540), (960, 540), (960, 540), (960, 540), (960, 540), (960, 540), (960, 540), (960, 540), (960, 540), (960, 540), (960, 540), (960, 540), (960, 540), (960, 540), (960, 540), (960, 540), (960, 540), (960, 540), (960, 540), (960, 540), (960, 540), (960, 540), (960, 540), (960, 540), (960, 540), (960, 540), (960, 540), (960, 540), (960, 540), (960, 540), (960, 540), (960, 540), (960, 540), (960, 540), (960, 540), (960, 540), (960, 540), (960, 541), (960, 544), (960, 549), (960, 551), (960, 552), (960, 554), (960, 558), (960, 559), (960, 560), (960, 561), (961, 566), (961, 567), (964, 571), (966, 576), (972, 588), (977, 597), (983, 608), (994, 627), (1019, 673), (1034, 696), (1048, 720), (1068, 741), (1107, 790), (1120, 810), (1138, 833), (1149, 849), (1184, 891)]",57.45493218247356,"[5, 3, 1, 9, 8, 2, 4, 6, 7]","(0, 0.25)",DOT005B,DOT,B,English,Mon Aug 20 12:02:18 2018,Mouse
1,3,2,0,70,4,4,1,1099,139,960,137,0,500,200,8000,"[(959, 540), (959, 540), (959, 540), (959, 540), (959, 540), (959, 540), (959, 540), (959, 540), (959, 540), (959, 540), (959, 540), (959, 540), (959, 540), (959, 541), (959, 541), (959, 541), (959, 542), (959, 542), (959, 542), (959, 542), (959, 542), (959, 542), (959, 542), (959, 542), (959, 542), (959, 542), (959, 542), (959, 542), (959, 542), (959, 542), (959, 542), (959, 542), (959, 542), (959, 542), (959, 542), (959, 542), (959, 542), (959, 542), (959, 542), (959, 542), (959, 542), (959, 542), (959, 542), (959, 542), (959, 542), (959, 542), (959, 542), (959, 542), (959, 542), (959, 542), (959, 542), (959, 542), (959, 542), (959, 542), (959, 542), (959, 542), (959, 542), (959, 542), (959, 542), (959, 542), (959, 542), (959, 542), (959, 542), (958, 542), (958, 542), (958, 542), (958, 542), (958, 542), (958, 542), (958, 542), (958, 542), (958, 542), (958, 542), (958, 542), (958, 542), (958, 542), (958, 542), (958, 542), (958, 542), (958, 542), (958, 542), (958, 542), (958, 542), (958, 542), (958, 542), (958, 542), (958, 542), (958, 542), (958, 542), (958, 542), (958, 542), (958, 542), (958, 542), (958, 543), (954, 541), (946, 526), (937, 505), (921, 428), (912, 390), (907, 366), (900, 328), (892, 269), (887, 245), (885, 224), (884, 210), (880, 189), (880, 180), (880, 169), (880, 158), (880, 136)]",258.7992022121156,"[5, 3, 1, 9, 8, 2, 4, 6, 7]","(0, 0.25)",DOT005B,DOT,B,English,Mon Aug 20 12:02:18 2018,Mouse
1,3,2,0,71,5,7,0,-1740,1420,320,137,0,500,200,8000,"[(960, 540), (960, 540), (960, 540), (960, 540), (960, 540), (960, 540), (960, 540), (960, 540), (960, 540), (960, 540), (960, 540), (960, 540), (960, 540), (960, 540), (960, 540), (960, 540), (960, 540), (960, 540), (960, 540), (960, 540), (960, 540), (960, 540), (960, 540), (960, 540), (960, 540), (960, 540), (960, 540), (960, 540), (960, 540), (960, 540), (960, 540), (960, 540), (960, 540), (960, 540), (960, 540), (960, 540), (960, 540), (960, 540), (960, 540), (960, 540), (960, 540), (960, 540), (960, 540), (960, 540), (960, 540), (960, 540), (960, 540), (960, 540), (960, 540), (960, 540), (960, 540), (960, 540), (960, 540), (960, 540), (960, 540), (960, 540), (960, 540), (960, 540), (960, 540), (960, 540), (960, 540), (960, 540), (960, 540), (960, 540), (960, 540), (960, 540), (960, 540), (960, 540), (960, 540), (960, 540), (960, 540), (960, 540), (960, 540), (960, 540), (960, 540), (960, 540), (960, 540), (960, 540), (960, 540), (960, 540), (960, 540), (960, 540), (960, 540), (960, 540), (960, 540), (960, 540), (960, 540), (960, 540), (960, 540), (960, 540), (960, 540), (960, 540), (960, 540), (960, 540), (960, 540), (960, 540), (960, 540), (960, 540), (960, 540), (960, 540), (960, 540), (960, 540), (960, 540), (960, 540), (960, 540), (960, 540), (960, 540), (960, 540), (960, 540), (960, 540), (960, 540), (960, 540), (960, 540), (960, 540), (960, 540), (960, 540), (960, 540), (960, 540), (960, 540), (960, 540), (960, 540), (960, 540), (960, 540), (960, 540), (960, 540), (960, 540), (960, 540), (960, 540), (960, 540), (960, 540), (960, 540), (960, 540), (960, 540), (960, 540), (960, 540), (960, 540), (960, 540), (960, 540), (960, 540), (960, 540), (960, 540), (960, 541), (964, 540), (970, 535), (975, 530), (981, 526), (1001, 512), (1011, 507), (1024, 500), (1035, 494), (1059, 484), (1069, 482), (1079, 478), (1090, 476), (1115, 472), (1126, 468), (1133, 466), (1138, 465), (1145, 463), (1147, 463), (1148, 462), (1151, 461), (1158, 458), (1164, 457), (1174, 453), (1185, 451), (1212, 443), (1227, 441), (1242, 440), (1257, 434), (1291, 423), (1310, 417), (1326, 409), (1343, 404)]",340.4504879045933,"[5, 3, 1, 9, 8, 2, 4, 6, 7]","(0, 0.25)",DOT005B,DOT,B,English,Mon Aug 20 12:02:18 2018,Mouse
1,3,2,0,72,6,6,1,1359,709,650,138,0,500,200,8000,"[(960, 540), (960, 540), (960, 540), (960, 540), (960, 540), (960, 540), (960, 540), (960, 540), (960, 540), (960, 540), (960, 540), (960, 540), (960, 540), (960, 540), (960, 540), (960, 540), (960, 540), (960, 540), (960, 540), (960, 540), (960, 540), (960, 540), (960, 540), (960, 540), (960, 540), (960, 540), (960, 540), (960, 540), (960, 540), (960, 540), (960, 540), (960, 540), (960, 540), (960, 540), (960, 540), (960, 540), (960, 540), (960, 540), (960, 540), (960, 540), (960, 540), (960, 540), (960, 540), (960, 540), (960, 540), (960, 540), (960, 540), (960, 540), (960, 540), (960, 540), (960, 540), (960, 540), (960, 540), (960, 540), (960, 540), (960, 540), (960, 540), (960, 540), (960, 540), (960, 540), (960, 540), (960, 540), (960, 540), (960, 540), (960, 540), (960, 540), (960, 540), (960, 540), (960, 540), (960, 540), (956, 540), (940, 540), (930, 540), (923, 540), (915, 540), (903, 540), (900, 540), (899, 540), (897, 540), (897, 540), (897, 540), (897, 540), (897, 540), (897, 540), (897, 540), (897, 540), (897, 540), (897, 540), (897, 540), (897, 540), (897, 540), (897, 540), (897, 540), (897, 540), (897, 540), (897, 540), (897, 540), (897, 540), (897, 540), (897, 540), (897, 540), (897, 540), (897, 540), (897, 540), (897, 540), (897, 540), (897, 540), (897, 540), (897, 540), (897, 540), (897, 540), (897, 540), (897, 540), (897, 540), (897, 540), (897, 540), (897, 540), (897, 540), (896, 540), (896, 540), (895, 540), (895, 539), (895, 538), (898, 523), (905, 506), (914, 483), (927, 456), (949, 402), (967, 372), (982, 345), (1002, 314), (1045, 255), (1065, 229), (1081, 207), (1100, 184), (1131, 141)]",293.1985905136482,"[5, 3, 1, 9, 8, 2, 4, 6, 7]","(0, 0.25)",DOT005B,DOT,B,English,Mon Aug 20 12:02:18 2018,Mouse
1,3,2,0,73,1,1,1,289,69,220,138,0,500,200,8000,"[(960, 540), (960, 540), (960, 540), (960, 540), (960, 540), (960, 540), (959, 541), (957, 544), (957, 547), (957, 548), (957, 551), (955, 557), (955, 563), (955, 570), (955, 579), (955, 602), (955, 617), (955, 632), (955, 649), (955, 685), (955, 710), (955, 738), (955, 763), (955, 814), (955, 839), (955, 864), (955, 886), (951, 931), (946, 952)]",91.94619511703075,"[5, 3, 1, 9, 8, 2, 4, 6, 7]","(0, 0.25)",DOT005B,DOT,B,English,Mon Aug 20 12:02:18 2018,Mouse
1,3,2,0,74,7,7,1,1779,1589,190,137,0,500,200,8000,"[(960, 540), (960, 540), (960, 540), (960, 540), (960, 540), (960, 540), (960, 540), (960, 540), (960, 540), (960, 540), (960, 540), (960, 540), (960, 540), (960, 540), (960, 540), (960, 540), (960, 540), (960, 540), (960, 540), (960, 540), (960, 540), (960, 540), (960, 540), (960, 540), (960, 540), (960, 540), (960, 540), (960, 540), (960, 540), (960, 540), (960, 540), (960, 540), (960, 540), (960, 540), (960, 540), (960, 540), (960, 540), (960, 540), (960, 540), (960, 540), (960, 540), (960, 540), (960, 540), (960, 540), (960, 540), (960, 540), (960, 540), (960, 540), (960, 540), (960, 540), (960, 540), (960, 540), (960, 540), (960, 540), (960, 540), (960, 540), (960, 540), (960, 540), (960, 540), (960, 540), (960, 540), (960, 540), (960, 540), (960, 540), (960, 540), (960, 540), (960, 540), (960, 540), (960, 540), (960, 540), (960, 540), (960, 540), (960, 540), (960, 540), (960, 540), (960, 540), (960, 540), (960, 540), (960, 540), (960, 540), (960, 540), (960, 540), (960, 540), (960, 540), (960, 540), (960, 540), (960, 540), (960, 540), (960, 540), (960, 540), (960, 540), (960, 540), (960, 540), (960, 540), (960, 540), (960, 540), (960, 540), (960, 540), (960, 540), (960, 540), (960, 540), (960, 540), (960, 540), (960, 540), (960, 540), (960, 540), (960, 540), (960, 540), (960, 540), (960, 540), (960, 540), (960, 540), (960, 540), (960, 540), (960, 540), (960, 540), (960, 540), (960, 540), (960, 540), (960, 540), (960, 540), (960, 540), (960, 540), (960, 540), (960, 540), (960, 540), (960, 540), (960, 540), (960, 540), (960, 540), (960, 540), (960, 540), (960, 540), (960, 540), (960, 540), (960, 540), (960, 540), (960, 540), (960, 540), (960, 540), (960, 540), (960, 540), (960, 540), (960, 540), (960, 540), (960, 540), (960, 540), (960, 540), (960, 540), (960, 540), (960, 540), (960, 540), (960, 540), (960, 540), (960, 540), (960, 540), (960, 540), (960, 540), (960, 539), (963, 537), (965, 535), (972, 530), (977, 526), (984, 522), (996, 516), (1021, 502), (1045, 489), (1059, 480), (1083, 467), (1133, 443), (1159, 433), (1190, 423), (1218, 416), (1268, 400), (1288, 393), (1307, 385), (1326, 379), (1352, 372)]",336.8014094863518,"[5, 3, 1, 9, 8, 2, 4, 6, 7]","(0, 0.25)",DOT005B,DOT,B,English,Mon Aug 20 12:02:18 2018,Mouse
1,3,2,0,75,9,9,1,839,379,460,136,0,500,200,8000,"[(960, 540), (960, 540), (960, 540), (960, 540), (960, 540), (960, 540), (960, 540), (960, 540), (960, 540), (960, 540), (960, 540), (960, 540), (960, 540), (960, 540), (960, 540), (960, 540), (960, 540), (960, 540), (960, 540), (960, 540), (960, 540), (960, 540), (960, 540), (960, 540), (960, 540), (960, 540), (960, 540), (960, 540), (960, 540), (960, 540), (960, 540), (960, 540), (960, 540), (960, 540), (960, 540), (960, 540), (960, 540), (950, 547), (940, 550), (929, 556), (913, 561), (867, 570), (844, 571), (822, 575), (796, 579), (747, 582), (730, 582), (714, 582), (703, 582), (690, 582), (687, 582), (687, 582), (686, 582), (686, 582), (686, 582), (686, 582), (686, 582), (686, 582), (686, 582), (686, 582), (686, 582), (686, 582), (686, 582), (686, 582), (686, 582), (686, 582), (686, 582), (686, 582), (688, 583), (701, 586), (707, 588), (715, 589), (722, 591), (731, 595), (735, 597), (737, 601), (738, 609), (740, 634), (740, 652), (736, 679), (729, 717), (709, 789), (698, 823), (688, 856)]",130.7205364697548,"[5, 3, 1, 9, 8, 2, 4, 6, 7]","(0, 0.25)",DOT005B,DOT,B,English,Mon Aug 20 12:02:18 2018,Mouse
1,3,2,0,76,5,5,1,641,331,310,135,0,500,200,8000,"[(960, 540), (960, 540), (960, 540), (960, 540), (960, 540), (960, 540), (960, 540), (960, 540), (960, 540), (960, 540), (960, 540), (960, 540), (960, 540), (960, 540), (960, 540), (960, 540), (960, 540), (960, 540), (960, 540), (960, 540), (960, 540), (960, 540), (960, 540), (960, 540), (960, 540), (960, 540), (960, 540), (960, 540), (960, 540), (960, 540), (960, 540), (960, 540), (960, 540), (962, 540), (964, 539), (964, 538), (966, 538), (973, 534), (978, 532), (982, 530), (986, 528), (994, 525), (994, 525), (995, 525), (995, 525), (995, 525), (995, 525), (995, 525), (995, 525), (995, 525), (995, 525), (995, 525), (997, 525), (1000, 525), (1004, 525), (1009, 527), (1021, 533), (1046, 545), (1070, 556), (1101, 564), (1139, 574), (1226, 589), (1275, 596), (1326, 604), (1381, 614)]",9.969156267938045,"[5, 3, 1, 9, 8, 2, 4, 6, 7]","(0, 0.25)",DOT005B,DOT,B,English,Mon Aug 20 12:02:18 2018,Mouse
1,3,2,0,77,4,6,0,-1841,721,1120,134,0,500,200,8000,"[(960, 540), (960, 540), (960, 540), (960, 540), (960, 540), (960, 540), (960, 540), (960, 540), (960, 540), (960, 540), (960, 540), (960, 540), (960, 540), (960, 540), (960, 540), (960, 540), (960, 540), (960, 540), (960, 540), (960, 540), (960, 540), (960, 540), (960, 540), (960, 540), (960, 540), (960, 540), (960, 540), (960, 540), (960, 540), (960, 540), (960, 540), (960, 540), (960, 540), (960, 540), (960, 540), (960, 540), (960, 540), (960, 540), (960, 540), (960, 540), (960, 540), (960, 540), (960, 540), (960, 540), (960, 540), (960, 540), (960, 540), (960, 540), (960, 540), (960, 540), (960, 540), (960, 540), (960, 540), (960, 540), (960, 540), (960, 540), (960, 540), (960, 540), (960, 540), (960, 540), (960, 540), (960, 540), (960, 540), (960, 540), (960, 540), (960, 540), (960, 540), (960, 540), (960, 540), (960, 540), (960, 540), (960, 540), (959, 540), (957, 540), (954, 540), (950, 540), (942, 540), (939, 540), (936, 540), (936, 540), (935, 540), (935, 540), (935, 540), (935, 540), (935, 540), (935, 540), (935, 540), (935, 540), (935, 540), (935, 540), (935, 540), (935, 540), (937, 542), (941, 545), (942, 546), (943, 547), (946, 549), (946, 550), (947, 550), (947, 550), (947, 551), (947, 551), (947, 551), (947, 551), (947, 551), (947, 551), (947, 551), (947, 551), (947, 551), (947, 551), (947, 551), (947, 551), (947, 551), (947, 551), (947, 551), (947, 551), (947, 551), (947, 551), (947, 551), (947, 551), (947, 551), (947, 551), (947, 551), (947, 551), (947, 551), (947, 551), (947, 551), (947, 551), (947, 551), (948, 551), (952, 552), (958, 554), (967, 556), (973, 558), (976, 559), (979, 560), (982, 561), (984, 562), (984, 562), (984, 562), (984, 562), (984, 562), (984, 562), (984, 562), (984, 562), (984, 562), (984, 562), (984, 562), (987, 562), (990, 559), (995, 553), (999, 548), (1007, 539), (1011, 536), (1019, 530), (1024, 525), (1036, 515), (1041, 510), (1046, 506), (1054, 500), (1066, 490), (1073, 484), (1079, 477), (1084, 471), (1096, 455), (1099, 451), (1103, 446), (1104, 445), (1107, 439), (1108, 438), (1108, 438), (1108, 438), (1108, 436), (1108, 435), (1108, 435), (1108, 433), (1108, 423), (1108, 414), (1108, 400), (1108, 382), (1108, 320), (1108, 279), (1108, 243), (1108, 215), (1114, 165)]",292.32632177694825,"[5, 3, 1, 9, 8, 2, 4, 6, 7]","(0, 0.25)",DOT005B,DOT,B,English,Mon Aug 20 12:02:18 2018,Mouse
1,3,2,0,78,4,8,0,-1159,699,460,135,0,500,200,8000,"[(960, 540), (960, 540), (960, 540), (960, 540), (960, 540), (960, 540), (960, 540), (960, 540), (960, 540), (960, 540), (960, 540), (960, 540), (960, 540), (960, 540), (960, 540), (960, 540), (960, 540), (960, 540), (960, 540), (960, 540), (960, 540), (960, 540), (960, 540), (960, 540), (960, 540), (960, 540), (960, 540), (960, 540), (960, 540), (960, 540), (960, 540), (960, 540), (960, 540), (960, 540), (960, 540), (960, 540), (960, 540), (960, 540), (960, 540), (960, 540), (960, 540), (960, 540), (960, 540), (960, 540), (960, 540), (960, 540), (960, 540), (960, 540), (960, 540), (960, 540), (960, 540), (960, 540), (960, 540), (960, 540), (960, 540), (960, 540), (960, 540), (960, 540), (960, 540), (960, 540), (960, 540), (960, 540), (960, 540), (960, 540), (960, 540), (960, 540), (960, 540), (960, 540), (960, 540), (960, 538), (960, 536), (960, 536), (960, 536), (960, 536), (960, 536), (960, 535), (960, 535), (960, 535), (960, 535), (960, 535), (960, 535), (960, 535), (959, 535), (949, 542), (943, 547), (934, 553), (928, 557), (913, 568), (904, 574), (896, 581), (886, 589), (873, 600), (864, 606), (860, 609), (855, 613), (848, 618), (843, 621), (838, 623), (832, 626), (823, 631), (817, 633), (810, 636), (803, 637), (794, 638), (790, 638), (784, 638), (779, 638), (758, 638), (747, 638), (735, 637), (717, 632), (673, 621), (646, 617), (618, 616), (588, 611), (535, 603)]",171.56814517828278,"[5, 3, 1, 9, 8, 2, 4, 6, 7]","(0, 0.25)",DOT005B,DOT,B,English,Mon Aug 20 12:02:18 2018,Mouse
1,3,2,0,79,5,5,1,651,461,190,136,0,500,200,8000,"[(960, 540), (960, 540), (960, 540), (960, 540), (960, 540), (960, 540), (960, 540), (960, 540), (960, 540), (960, 540), (960, 540), (960, 540), (960, 540), (960, 540), (960, 540), (960, 540), (960, 540), (960, 540), (960, 540), (960, 540), (960, 540), (960, 540), (960, 540), (960, 540), (960, 540), (960, 540), (960, 540), (960, 540), (960, 540), (960, 540), (960, 540), (960, 540), (960, 540), (960, 540), (960, 540), (960, 540), (960, 540), (960, 540), (960, 540), (960, 540), (960, 540), (960, 540), (960, 540), (960, 540), (960, 540), (960, 540), (962, 540), (975, 545), (988, 548), (1003, 551), (1023, 556), (1079, 573), (1104, 579), (1129, 587), (1154, 593), (1194, 607), (1210, 611), (1223, 615), (1233, 619), (1255, 626), (1265, 628), (1278, 631), (1290, 635), (1317, 643), (1331, 646), (1347, 651)]",16.004040485881607,"[5, 3, 1, 9, 8, 2, 4, 6, 7]","(0, 0.25)",DOT005B,DOT,B,English,Mon Aug 20 12:02:18 2018,Mouse
1,3,2,0,80,3,3,1,760,440,320,136,0,500,200,8000,"[(960, 540), (960, 540), (960, 540), (960, 540), (960, 540), (960, 540), (960, 540), (960, 540), (960, 540), (960, 540), (960, 540), (960, 540), (960, 540), (960, 540), (960, 540), (960, 540), (960, 540), (960, 540), (960, 540), (960, 540), (960, 540), (960, 540), (960, 540), (960, 540), (960, 540), (960, 540), (960, 540), (960, 540), (960, 540), (960, 540), (960, 540), (960, 540), (960, 540), (960, 540), (960, 540), (960, 540), (960, 540), (960, 540), (960, 540), (960, 540), (960, 540), (960, 540), (960, 540), (959, 540), (959, 540), (959, 540), (959, 540), (959, 540), (959, 540), (959, 540), (958, 540), (960, 546), (963, 549), (968, 556), (974, 564), (991, 584), (1001, 594), (1010, 606), (1018, 616), (1041, 647), (1050, 661), (1059, 675), (1068, 691), (1083, 719), (1090, 732), (1097, 740), (1100, 748), (1111, 768), (1117, 781), (1125, 792), (1134, 805), (1153, 838), (1159, 849), (1167, 862), (1172, 874), (1188, 899)]",57.580472059002076,"[5, 3, 1, 9, 8, 2, 4, 6, 7]","(0, 0.25)",DOT005B,DOT,B,English,Mon Aug 20 12:02:18 2018,Mouse
1,3,2,0,81,5,7,0,-1581,550,1031,135,0,500,200,8000,"[(960, 540), (960, 540), (960, 540), (960, 540), (960, 540), (960, 540), (960, 540), (960, 540), (960, 540), (960, 540), (960, 540), (960, 540), (960, 540), (960, 540), (960, 540), (960, 540), (960, 540), (960, 540), (960, 540), (960, 540), (960, 540), (960, 540), (960, 540), (960, 540), (960, 540), (960, 540), (960, 540), (960, 540), (960, 540), (960, 540), (960, 540), (960, 540), (960, 540), (960, 540), (960, 540), (960, 540), (960, 540), (960, 540), (960, 540), (960, 540), (960, 540), (960, 540), (960, 540), (960, 540), (960, 540), (960, 540), (960, 540), (960, 540), (960, 540), (960, 540), (960, 540), (960, 540), (960, 540), (960, 540), (959, 540), (959, 540), (959, 540), (959, 540), (959, 540), (959, 540), (959, 540), (959, 540), (959, 540), (959, 540), (959, 540), (959, 540), (959, 540), (959, 540), (959, 540), (959, 540), (959, 540), (959, 540), (959, 540), (959, 540), (959, 540), (959, 540), (959, 540), (959, 540), (959, 540), (959, 540), (959, 540), (959, 540), (959, 540), (959, 540), (959, 540), (959, 540), (959, 540), (959, 540), (959, 540), (959, 540), (959, 540), (959, 540), (959, 540), (959, 540), (959, 540), (959, 540), (959, 540), (959, 538), (957, 534), (957, 532), (957, 531), (957, 530), (957, 528), (957, 528), (957, 528), (957, 528), (957, 528), (957, 528), (957, 527), (957, 526), (958, 522), (960, 521), (961, 518), (963, 516), (965, 514), (967, 513), (968, 512), (970, 511), (970, 510), (971, 510), (971, 510), (971, 510), (971, 510), (971, 510), (971, 510), (971, 510), (971, 510), (971, 510), (971, 510), (971, 510), (971, 510), (971, 510), (971, 510), (971, 510), (971, 510), (971, 510), (971, 510), (971, 510), (972, 510), (973, 510), (973, 510), (974, 510), (983, 508), (992, 505), (1001, 503), (1010, 500), (1050, 487), (1081, 479), (1109, 471), (1144, 462), (1206, 452), (1235, 450), (1259, 445), (1285, 442), (1319, 437), (1333, 435), (1343, 433), (1351, 432)]",344.55905779870426,"[5, 3, 1, 9, 8, 2, 4, 6, 7]","(0, 0.25)",DOT005B,DOT,B,English,Mon Aug 20 12:02:18 2018,Mouse
1,3,2,0,82,5,5,1,381,91,290,136,0,500,200,8000,"[(960, 540), (960, 540), (960, 540), (960, 540), (960, 540), (960, 540), (960, 540), (960, 540), (960, 540), (960, 542), (963, 549), (968, 556), (982, 571), (989, 579), (996, 586), (1002, 594), (1016, 605), (1022, 611), (1027, 615), (1035, 619), (1047, 627), (1052, 631), (1058, 635), (1066, 641), (1081, 652), (1090, 659), (1102, 669), (1110, 674), (1131, 688), (1141, 693), (1151, 698), (1158, 701), (1179, 704), (1191, 706), (1209, 709), (1233, 713), (1276, 716), (1302, 718), (1322, 718)]",26.183931879056853,"[5, 3, 1, 9, 8, 2, 4, 6, 7]","(0, 0.25)",DOT005B,DOT,B,English,Mon Aug 20 12:02:18 2018,Mouse
1,3,2,0,83,3,3,1,551,171,380,136,0,500,200,8000,"[(960, 540), (960, 540), (960, 540), (960, 540), (960, 540), (960, 540), (960, 540), (960, 540), (960, 540), (960, 540), (960, 540), (960, 540), (960, 540), (960, 540), (960, 540), (960, 540), (960, 540), (959, 540), (959, 540), (959, 540), (959, 540), (959, 540), (959, 540), (959, 540), (959, 540), (959, 540), (959, 540), (958, 540), (957, 542), (957, 551), (958, 558), (961, 568), (966, 582), (982, 609), (991, 623), (1000, 637), (1009, 653), (1020, 675), (1031, 692), (1037, 707), (1043, 718), (1054, 746), (1060, 761), (1068, 779), (1074, 792), (1084, 815), (1090, 827), (1096, 836), (1101, 844), (1113, 860), (1118, 865), (1123, 871), (1127, 876), (1139, 887), (1145, 894), (1154, 901)]",61.74658828164922,"[5, 3, 1, 9, 8, 2, 4, 6, 7]","(0, 0.25)",DOT005B,DOT,B,English,Mon Aug 20 12:02:18 2018,Mouse
1,3,2,0,84,5,5,1,569,329,240,135,0,500,200,8000,"[(960, 540), (960, 540), (960, 540), (960, 540), (960, 540), (960, 540), (960, 540), (960, 540), (960, 540), (960, 540), (960, 540), (960, 540), (960, 540), (960, 540), (960, 540), (960, 540), (960, 540), (960, 540), (960, 540), (960, 540), (960, 540), (960, 540), (960, 540), (960, 540), (960, 540), (960, 540), (960, 540), (960, 540), (960, 540), (960, 540), (960, 540), (960, 540), (960, 539), (965, 539), (974, 539), (987, 540), (1002, 541), (1038, 547), (1061, 553), (1083, 561), (1103, 566), (1133, 574), (1144, 577), (1155, 579), (1166, 584), (1190, 589), (1203, 594), (1214, 597), (1228, 601), (1260, 610), (1275, 614), (1291, 618), (1302, 622), (1327, 631), (1338, 633), (1348, 637), (1354, 640)]",14.241358747447775,"[5, 3, 1, 9, 8, 2, 4, 6, 7]","(0, 0.25)",DOT005B,DOT,B,English,Mon Aug 20 12:02:18 2018,Mouse
1,3,2,0,85,3,3,1,520,320,200,134,0,500,200,8000,"[(960, 540), (960, 540), (960, 540), (960, 540), (960, 540), (960, 540), (960, 540), (960, 540), (960, 540), (960, 540), (960, 540), (960, 540), (960, 540), (960, 540), (960, 540), (960, 540), (960, 540), (960, 540), (960, 540), (960, 540), (960, 540), (960, 540), (960, 540), (960, 540), (960, 540), (960, 540), (960, 540), (960, 540), (960, 540), (960, 540), (960, 540), (959, 540), (962, 548), (970, 559), (980, 573), (1010, 608), (1024, 626), (1042, 646), (1059, 667), (1093, 706), (1105, 721), (1115, 731), (1124, 743), (1138, 761), (1148, 773), (1155, 781), (1164, 795), (1179, 812), (1186, 823), (1192, 831), (1199, 841), (1208, 858)]",52.05025025887314,"[5, 3, 1, 9, 8, 2, 4, 6, 7]","(0, 0.25)",DOT005B,DOT,B,English,Mon Aug 20 12:02:18 2018,Mouse
1,3,2,0,86,2,3,0,-409,159,250,133,0,500,200,8000,"[(960, 540), (960, 540), (960, 540), (960, 540), (960, 540), (960, 540), (960, 540), (960, 540), (960, 540), (960, 540), (960, 540), (960, 540), (960, 540), (960, 540), (960, 540), (960, 543), (960, 546), (966, 557), (970, 562), (974, 569), (978, 576), (982, 585), (991, 600), (997, 609), (1003, 619), (1013, 632), (1031, 658), (1040, 670), (1055, 688), (1067, 703), (1088, 729), (1102, 745), (1115, 764), (1135, 795), (1143, 804), (1151, 816), (1157, 824), (1169, 847), (1176, 859), (1181, 868), (1185, 879)]",56.42710159394514,"[5, 3, 1, 9, 8, 2, 4, 6, 7]","(0, 0.25)",DOT005B,DOT,B,English,Mon Aug 20 12:02:18 2018,Mouse
1,3,2,0,87,3,3,1,921,530,391,134,0,500,200,8000,"[(960, 540), (960, 540), (960, 540), (960, 540), (960, 540), (960, 540), (960, 540), (960, 540), (960, 540), (960, 540), (960, 540), (960, 540), (960, 540), (960, 540), (960, 540), (960, 540), (960, 540), (960, 540), (960, 540), (960, 540), (960, 540), (960, 540), (960, 540), (960, 540), (960, 540), (960, 540), (960, 540), (960, 540), (960, 540), (960, 540), (960, 540), (960, 540), (960, 540), (960, 540), (960, 540), (960, 540), (960, 540), (960, 540), (960, 540), (960, 540), (960, 540), (960, 540), (960, 540), (960, 540), (960, 540), (960, 540), (960, 540), (960, 540), (960, 540), (960, 540), (960, 540), (960, 540), (959, 541), (959, 543), (959, 547), (964, 558), (966, 562), (969, 566), (973, 572), (983, 585), (989, 591), (994, 599), (997, 604), (1008, 619), (1013, 626), (1017, 632), (1024, 641), (1035, 656), (1040, 664), (1048, 671), (1053, 680), (1064, 694), (1069, 702), (1073, 708), (1078, 715), (1087, 728), (1092, 734), (1096, 740), (1102, 749), (1113, 765), (1119, 774), (1125, 782), (1130, 789), (1141, 805), (1146, 812), (1151, 819), (1157, 828), (1168, 847), (1174, 857), (1177, 866), (1180, 873), (1186, 889)]",57.07434047987895,"[5, 3, 1, 9, 8, 2, 4, 6, 7]","(0, 0.25)",DOT005B,DOT,B,English,Mon Aug 20 12:02:18 2018,Mouse
1,3,2,0,88,2,2,1,319,19,300,134,0,500,200,8000,"[(955, 537), (950, 535), (935, 525), (927, 519), (917, 513), (905, 503), (874, 483), (857, 472), (843, 463), (832, 455), (816, 444), (809, 439), (803, 435), (799, 430), (790, 420), (786, 414), (778, 406), (775, 402), (767, 394), (761, 389), (756, 382), (751, 375), (739, 353), (730, 338), (720, 322), (714, 311), (701, 293), (696, 285), (689, 276), (687, 272), (680, 261), (674, 254)]",225.0,"[5, 3, 1, 9, 8, 2, 4, 6, 7]","(0, 0.25)",DOT005B,DOT,B,English,Mon Aug 20 12:02:18 2018,Mouse
