NativeLangNumber,LanuageNumber,SessionNumber,Block,TrialNum,ConditionNumber,Response,Accuracy,RT,MovementOnsetTime,TimeInMotion,SignalContrast,SignalContrastNumber,StimDisplayTime,MaskTime,MaxResponseTime,MousePositionXY,MouseAngle,WheelOrder,NoiseMuSigma,ParticipantID,LanuageTested,SessionTested,NativeLanuage,Date,ResponseDevice
2,3,3,0,1,3,3,1,880,830,50,153,0,500,200,8000,"[(512, 384), (512, 384), (512, 384), (512, 384), (512, 384), (512, 384), (512, 384), (512, 384), (512, 384), (512, 384), (512, 384), (512, 384), (512, 384), (512, 384), (512, 384), (512, 384), (512, 384), (512, 384), (512, 384), (512, 384), (512, 384), (512, 384), (512, 384), (512, 384), (512, 384), (512, 384), (512, 384), (512, 384), (512, 384), (512, 384), (512, 384), (512, 384), (512, 384), (512, 384), (512, 384), (512, 384), (512, 384), (512, 384), (512, 384), (512, 384), (512, 384), (512, 384), (512, 384), (512, 384), (512, 384), (512, 384), (512, 384), (512, 384), (512, 384), (512, 384), (512, 384), (512, 384), (512, 384), (512, 384), (512, 384), (512, 384), (512, 384), (512, 384), (512, 384), (512, 384), (512, 384), (512, 384), (512, 384), (512, 384), (512, 384), (512, 384), (512, 384), (512, 384), (512, 384), (512, 384), (512, 384), (512, 384), (512, 384), (512, 384), (512, 384), (512, 384), (512, 384), (512, 384), (512, 384), (512, 384), (512, 384), (512, 384), (518, 387), (534, 397), (565, 409), (659, 449), (707, 469), (749, 485)]",23.081779708080322,"[3, 9, 1, 8, 5, 7, 4, 2, 6]","(0, 0.25)",DOT004C,DOT,C,Chinese,Mon Oct  8 18:07:57 2018,Mouse
2,3,3,0,2,3,3,1,528,368,160,153,0,500,200,8000,"[(512, 384), (512, 384), (512, 384), (512, 384), (512, 384), (512, 384), (512, 384), (512, 384), (512, 384), (512, 384), (512, 384), (512, 384), (512, 384), (512, 384), (512, 384), (512, 384), (512, 384), (512, 384), (512, 384), (512, 384), (512, 384), (512, 384), (512, 384), (512, 384), (512, 384), (512, 384), (512, 384), (512, 384), (512, 384), (512, 384), (512, 384), (512, 384), (512, 384), (512, 384), (512, 384), (512, 384), (524, 392), (534, 397), (547, 404), (558, 410), (590, 421), (606, 425), (627, 426), (645, 429), (671, 432), (683, 432), (690, 435), (699, 436), (706, 438), (714, 441), (724, 447), (742, 454), (793, 469)]",16.830098967850024,"[3, 9, 1, 8, 5, 7, 4, 2, 6]","(0, 0.25)",DOT004C,DOT,C,Chinese,Mon Oct  8 18:07:57 2018,Mouse
2,3,3,0,3,7,7,1,920,860,60,152,0,500,200,8000,"[(512, 384), (512, 384), (512, 384), (512, 384), (512, 384), (512, 384), (512, 384), (512, 384), (512, 384), (512, 384), (512, 384), (512, 384), (512, 384), (512, 384), (512, 384), (512, 384), (512, 384), (512, 384), (512, 384), (512, 384), (512, 384), (512, 384), (512, 384), (512, 384), (512, 384), (512, 384), (512, 384), (512, 384), (512, 384), (512, 384), (512, 384), (512, 384), (512, 384), (512, 384), (512, 384), (512, 384), (512, 384), (512, 384), (512, 384), (512, 384), (512, 384), (512, 384), (512, 384), (512, 384), (512, 384), (512, 384), (512, 384), (512, 384), (512, 384), (512, 384), (512, 384), (512, 384), (512, 384), (512, 384), (512, 384), (512, 384), (512, 384), (512, 384), (512, 384), (512, 384), (512, 384), (512, 384), (512, 384), (512, 384), (512, 384), (512, 384), (512, 384), (512, 384), (512, 384), (512, 384), (512, 384), (512, 384), (512, 384), (512, 384), (512, 384), (512, 384), (512, 384), (512, 384), (512, 384), (512, 384), (512, 384), (512, 384), (512, 384), (512, 384), (512, 384), (508, 383), (472, 367), (445, 349), (410, 331), (370, 314), (294, 274), (257, 257)]",206.47510497229698,"[3, 9, 1, 8, 5, 7, 4, 2, 6]","(0, 0.25)",DOT004C,DOT,C,Chinese,Mon Oct  8 18:07:57 2018,Mouse
2,3,3,0,4,4,4,1,1048,728,320,151,0,500,200,8000,"[(512, 384), (512, 384), (512, 384), (512, 384), (512, 384), (512, 384), (512, 384), (512, 384), (512, 384), (512, 384), (512, 384), (512, 384), (512, 384), (512, 384), (512, 384), (512, 384), (512, 384), (512, 384), (512, 384), (512, 384), (512, 384), (512, 384), (512, 384), (512, 384), (512, 384), (512, 384), (512, 384), (512, 384), (512, 384), (512, 384), (512, 384), (512, 384), (512, 384), (512, 384), (512, 384), (512, 384), (512, 384), (512, 384), (512, 384), (512, 384), (512, 384), (512, 384), (512, 384), (512, 384), (512, 384), (512, 384), (512, 384), (512, 384), (512, 384), (512, 384), (512, 384), (512, 384), (512, 384), (512, 384), (512, 384), (512, 384), (512, 384), (512, 384), (512, 384), (512, 384), (512, 384), (512, 384), (512, 384), (512, 384), (512, 384), (512, 384), (512, 384), (512, 384), (512, 384), (512, 384), (512, 384), (512, 384), (514, 385), (514, 385), (514, 385), (514, 385), (514, 385), (514, 385), (514, 385), (514, 385), (514, 385), (514, 385), (514, 385), (514, 385), (514, 385), (514, 385), (514, 385), (514, 385), (514, 385), (514, 385), (515, 385), (515, 385), (515, 385), (515, 385), (515, 385), (515, 385), (515, 385), (515, 383), (515, 373), (515, 353), (515, 325), (514, 236), (510, 188), (507, 148), (498, 78)]",267.3804512046053,"[3, 9, 1, 8, 5, 7, 4, 2, 6]","(0, 0.25)",DOT004C,DOT,C,Chinese,Mon Oct  8 18:07:57 2018,Mouse
2,3,3,0,5,5,5,1,558,508,50,150,0,500,200,8000,"[(512, 384), (512, 384), (512, 384), (512, 384), (512, 384), (512, 384), (512, 384), (512, 384), (512, 384), (512, 384), (512, 384), (512, 384), (512, 384), (512, 384), (512, 384), (512, 384), (512, 384), (512, 384), (512, 384), (512, 384), (512, 384), (512, 384), (512, 384), (512, 384), (512, 384), (512, 384), (512, 384), (512, 384), (512, 384), (512, 384), (512, 384), (512, 384), (512, 384), (512, 384), (512, 384), (512, 384), (512, 384), (512, 384), (512, 384), (512, 384), (512, 384), (512, 384), (512, 384), (512, 384), (512, 384), (512, 384), (512, 384), (512, 384), (512, 384), (512, 384), (501, 389), (487, 393), (462, 400), (422, 405), (322, 417), (261, 421)]",171.61439976520285,"[3, 9, 1, 8, 5, 7, 4, 2, 6]","(0, 0.25)",DOT004C,DOT,C,Chinese,Mon Oct  8 18:07:57 2018,Mouse
2,3,3,0,6,6,6,1,1716,1666,50,149,0,500,200,8000,"[(512, 384), (512, 384), (512, 384), (512, 384), (512, 384), (512, 384), (512, 384), (512, 384), (512, 384), (512, 384), (512, 384), (512, 384), (512, 384), (512, 384), (512, 384), (512, 384), (512, 384), (512, 384), (512, 384), (512, 384), (512, 384), (512, 384), (512, 384), (512, 384), (512, 384), (512, 384), (512, 384), (512, 384), (512, 384), (512, 384), (512, 384), (512, 384), (512, 384), (512, 384), (512, 384), (512, 384), (512, 384), (512, 384), (512, 384), (512, 384), (512, 384), (512, 384), (512, 384), (512, 384), (512, 384), (512, 384), (512, 384), (512, 384), (512, 384), (512, 384), (512, 384), (512, 384), (512, 384), (512, 384), (512, 384), (512, 384), (512, 384), (512, 384), (512, 384), (512, 384), (512, 384), (512, 384), (512, 384), (512, 384), (512, 384), (512, 384), (512, 384), (512, 384), (512, 384), (512, 384), (512, 384), (512, 384), (512, 384), (512, 384), (512, 384), (512, 384), (512, 384), (512, 384), (512, 384), (512, 384), (512, 384), (512, 384), (512, 384), (512, 384), (512, 384), (512, 384), (512, 384), (512, 384), (512, 384), (512, 384), (512, 384), (512, 384), (512, 384), (512, 384), (512, 384), (512, 384), (512, 384), (512, 384), (512, 384), (512, 384), (512, 384), (512, 384), (512, 384), (512, 384), (512, 384), (512, 384), (512, 384), (512, 384), (512, 384), (512, 384), (512, 384), (512, 384), (512, 384), (512, 384), (512, 384), (512, 384), (512, 384), (512, 384), (512, 384), (512, 384), (512, 384), (512, 384), (512, 384), (512, 384), (512, 384), (512, 384), (512, 384), (512, 384), (512, 384), (512, 384), (512, 384), (512, 384), (512, 384), (512, 384), (512, 384), (512, 384), (512, 384), (512, 384), (512, 384), (512, 384), (512, 384), (512, 384), (512, 384), (512, 384), (512, 384), (512, 384), (512, 384), (512, 384), (512, 384), (512, 384), (512, 384), (512, 384), (512, 384), (512, 384), (512, 384), (512, 384), (512, 384), (512, 384), (512, 384), (512, 384), (512, 384), (512, 384), (512, 384), (512, 384), (512, 384), (512, 384), (525, 380), (551, 374), (593, 371), (646, 369), (753, 346), (810, 334)]",350.47533202821,"[3, 9, 1, 8, 5, 7, 4, 2, 6]","(0, 0.25)",DOT004C,DOT,C,Chinese,Mon Oct  8 18:07:57 2018,Mouse
2,3,3,0,7,8,8,1,818,438,380,148,0,500,200,8000,"[(512, 384), (512, 384), (512, 384), (512, 384), (512, 384), (512, 384), (512, 384), (512, 384), (512, 384), (512, 384), (512, 384), (512, 384), (512, 384), (512, 384), (512, 384), (512, 384), (512, 384), (512, 384), (512, 384), (512, 384), (512, 384), (512, 384), (512, 384), (512, 384), (512, 384), (512, 384), (512, 384), (512, 384), (512, 384), (512, 384), (512, 384), (512, 384), (512, 384), (512, 384), (512, 384), (512, 384), (512, 384), (512, 384), (512, 384), (512, 384), (512, 384), (512, 384), (512, 384), (511, 384), (511, 384), (508, 384), (508, 384), (507, 385), (506, 385), (504, 386), (503, 386), (503, 386), (503, 386), (501, 386), (501, 386), (501, 386), (501, 386), (501, 386), (501, 386), (501, 386), (501, 386), (501, 386), (501, 386), (501, 386), (501, 386), (501, 386), (501, 386), (501, 386), (501, 386), (501, 386), (501, 386), (501, 388), (501, 397), (503, 415), (503, 428), (496, 441), (480, 462), (438, 493), (413, 510), (390, 526), (367, 544), (328, 580)]",133.19126067750796,"[3, 9, 1, 8, 5, 7, 4, 2, 6]","(0, 0.25)",DOT004C,DOT,C,Chinese,Mon Oct  8 18:07:57 2018,Mouse
2,3,3,0,8,6,6,1,1988,938,1050,147,0,500,200,8000,"[(512, 384), (512, 384), (512, 384), (512, 384), (512, 384), (512, 384), (512, 384), (512, 384), (512, 384), (512, 384), (512, 384), (512, 384), (512, 384), (512, 384), (512, 384), (512, 384), (512, 384), (512, 384), (512, 384), (512, 384), (512, 384), (512, 384), (512, 384), (512, 384), (512, 384), (512, 384), (512, 384), (512, 384), (512, 384), (512, 384), (512, 384), (512, 384), (512, 384), (512, 384), (512, 384), (512, 384), (512, 384), (512, 384), (512, 384), (512, 384), (512, 384), (512, 384), (512, 384), (512, 384), (512, 384), (512, 384), (512, 384), (512, 384), (512, 384), (512, 384), (512, 384), (512, 384), (512, 384), (512, 384), (512, 384), (512, 384), (512, 384), (512, 384), (512, 384), (512, 384), (512, 384), (512, 384), (512, 384), (512, 384), (512, 384), (512, 384), (512, 384), (512, 384), (512, 384), (512, 384), (512, 384), (512, 384), (512, 384), (512, 384), (512, 384), (512, 384), (512, 384), (512, 384), (512, 384), (512, 384), (512, 384), (512, 384), (512, 384), (512, 384), (512, 384), (512, 384), (512, 384), (512, 384), (512, 384), (512, 384), (512, 384), (512, 384), (512, 384), (513, 384), (513, 384), (513, 384), (513, 384), (513, 384), (513, 384), (513, 384), (513, 384), (513, 384), (513, 384), (513, 384), (513, 384), (513, 384), (513, 384), (513, 384), (513, 384), (513, 384), (513, 384), (513, 384), (513, 384), (513, 384), (513, 384), (513, 384), (513, 384), (513, 384), (513, 384), (513, 384), (513, 384), (513, 384), (513, 384), (513, 384), (513, 384), (513, 384), (513, 384), (513, 384), (513, 384), (513, 384), (513, 384), (513, 384), (513, 384), (513, 384), (513, 384), (513, 384), (513, 384), (513, 384), (513, 384), (513, 384), (513, 384), (513, 384), (513, 384), (513, 384), (513, 384), (513, 384), (513, 384), (513, 384), (513, 384), (513, 384), (509, 382), (502, 379), (496, 374), (487, 367), (475, 358), (473, 356), (469, 355), (466, 353), (466, 353), (466, 352), (466, 352), (466, 352), (466, 352), (466, 352), (466, 352), (466, 352), (466, 352), (466, 352), (466, 352), (466, 352), (466, 352), (466, 352), (466, 352), (466, 352), (466, 352), (466, 352), (466, 352), (466, 352), (466, 352), (466, 352), (466, 352), (467, 352), (468, 352), (468, 353), (470, 353), (473, 354), (506, 357), (526, 359), (555, 360), (574, 360), (602, 359), (614, 356), (625, 351), (638, 348), (665, 337), (677, 331), (694, 324), (736, 304), (756, 297)]",340.3759322516646,"[3, 9, 1, 8, 5, 7, 4, 2, 6]","(0, 0.25)",DOT004C,DOT,C,Chinese,Mon Oct  8 18:07:57 2018,Mouse
2,3,3,0,9,3,3,1,848,778,70,146,0,500,200,8000,"[(512, 384), (512, 384), (512, 384), (512, 384), (512, 384), (512, 384), (512, 384), (512, 384), (512, 384), (512, 384), (512, 384), (512, 384), (512, 384), (512, 384), (512, 384), (512, 384), (512, 384), (512, 384), (512, 384), (512, 384), (512, 384), (512, 384), (512, 384), (512, 384), (512, 384), (512, 384), (512, 384), (512, 384), (512, 384), (512, 384), (512, 384), (512, 384), (512, 384), (512, 384), (512, 384), (512, 384), (512, 384), (512, 384), (512, 384), (512, 384), (512, 384), (512, 384), (512, 384), (512, 384), (512, 384), (512, 384), (512, 384), (512, 384), (512, 384), (512, 384), (512, 384), (512, 384), (512, 384), (512, 384), (512, 384), (512, 384), (512, 384), (512, 384), (512, 384), (512, 384), (512, 384), (512, 384), (512, 384), (512, 384), (512, 384), (512, 384), (512, 384), (512, 384), (512, 384), (512, 384), (512, 384), (512, 384), (512, 384), (512, 384), (512, 384), (512, 384), (512, 384), (515, 386), (525, 392), (538, 399), (570, 416), (652, 444), (702, 460), (743, 469), (778, 476)]",19.07869453709739,"[3, 9, 1, 8, 5, 7, 4, 2, 6]","(0, 0.25)",DOT004C,DOT,C,Chinese,Mon Oct  8 18:07:57 2018,Mouse
2,3,3,0,10,3,3,1,377,307,70,145,0,500,200,8000,"[(512, 384), (512, 384), (512, 384), (512, 384), (512, 384), (512, 384), (512, 384), (512, 384), (512, 384), (512, 384), (512, 384), (512, 384), (512, 384), (512, 384), (512, 384), (512, 384), (512, 384), (512, 384), (512, 384), (512, 384), (512, 384), (512, 384), (512, 384), (512, 384), (512, 384), (512, 384), (512, 384), (512, 384), (512, 384), (512, 384), (512, 385), (527, 393), (538, 399), (561, 409), (589, 419), (670, 445), (717, 459), (759, 470)]",19.19700010545581,"[3, 9, 1, 8, 5, 7, 4, 2, 6]","(0, 0.25)",DOT004C,DOT,C,Chinese,Mon Oct  8 18:07:57 2018,Mouse
2,3,3,0,11,1,1,1,618,258,360,144,0,500,200,8000,"[(512, 384), (512, 384), (512, 384), (512, 384), (512, 384), (512, 384), (512, 384), (512, 384), (512, 384), (512, 384), (512, 384), (512, 384), (512, 384), (512, 384), (512, 384), (512, 384), (512, 384), (512, 384), (512, 384), (512, 384), (512, 384), (512, 384), (512, 384), (512, 384), (512, 384), (512, 383), (515, 373), (528, 350), (565, 295), (576, 271), (582, 256), (584, 246), (587, 240), (587, 239), (587, 238), (587, 238), (588, 238), (588, 238), (588, 238), (588, 238), (588, 238), (588, 239), (588, 240), (588, 241), (588, 246), (586, 250), (585, 257), (583, 268), (582, 297), (579, 316), (574, 343), (571, 364), (562, 400), (556, 415), (550, 430), (542, 443), (529, 479), (523, 503), (513, 529), (508, 554), (493, 614), (488, 641)]",95.33510574065573,"[3, 9, 1, 8, 5, 7, 4, 2, 6]","(0, 0.25)",DOT004C,DOT,C,Chinese,Mon Oct  8 18:07:57 2018,Mouse
2,3,3,0,12,9,3,0,-510,470,40,143,0,500,200,8000,"[(512, 384), (512, 384), (512, 384), (512, 384), (512, 384), (512, 384), (512, 384), (512, 384), (512, 384), (512, 384), (512, 384), (512, 384), (512, 384), (512, 384), (512, 384), (512, 384), (512, 384), (512, 384), (512, 384), (512, 384), (512, 384), (512, 384), (512, 384), (512, 384), (512, 384), (512, 384), (512, 384), (512, 384), (512, 384), (512, 384), (512, 384), (512, 384), (512, 384), (512, 384), (512, 384), (512, 384), (512, 384), (512, 384), (512, 384), (512, 384), (512, 384), (512, 384), (512, 384), (512, 384), (512, 384), (512, 384), (516, 388), (540, 407), (579, 433), (632, 471), (742, 566)]",38.35472178972558,"[3, 9, 1, 8, 5, 7, 4, 2, 6]","(0, 0.25)",DOT004C,DOT,C,Chinese,Mon Oct  8 18:07:57 2018,Mouse
2,3,3,0,13,7,7,1,987,877,110,144,0,500,200,8000,"[(512, 384), (512, 384), (512, 384), (512, 384), (512, 384), (512, 384), (512, 384), (512, 384), (512, 384), (512, 384), (512, 384), (512, 384), (512, 384), (512, 384), (512, 384), (512, 384), (512, 384), (512, 384), (512, 384), (512, 384), (512, 384), (512, 384), (512, 384), (512, 384), (512, 384), (512, 384), (512, 384), (512, 384), (512, 384), (512, 384), (512, 384), (512, 384), (512, 384), (512, 384), (512, 384), (512, 384), (512, 384), (512, 384), (512, 384), (512, 384), (512, 384), (512, 384), (512, 384), (512, 384), (512, 384), (512, 384), (512, 384), (512, 384), (512, 384), (512, 384), (512, 384), (512, 384), (512, 384), (512, 384), (512, 384), (512, 384), (512, 384), (512, 384), (512, 384), (512, 384), (512, 384), (512, 384), (512, 384), (512, 384), (512, 384), (512, 384), (512, 384), (512, 384), (512, 384), (512, 384), (512, 384), (512, 384), (512, 384), (512, 384), (512, 384), (512, 384), (512, 384), (512, 384), (512, 384), (512, 384), (512, 384), (512, 384), (512, 384), (512, 384), (512, 384), (512, 384), (512, 384), (511, 384), (510, 383), (508, 383), (504, 379), (500, 377), (494, 373), (485, 365), (449, 336), (420, 314), (391, 289), (360, 265), (286, 205)]",218.380470263849,"[3, 9, 1, 8, 5, 7, 4, 2, 6]","(0, 0.25)",DOT004C,DOT,C,Chinese,Mon Oct  8 18:07:57 2018,Mouse
2,3,3,0,14,6,6,1,1509,29,1480,144,0,500,200,8000,"[(512, 384), (512, 384), (512, 385), (512, 385), (512, 386), (512, 388), (513, 389), (513, 389), (513, 390), (513, 390), (513, 390), (513, 390), (513, 390), (513, 390), (513, 390), (513, 390), (513, 390), (513, 390), (513, 390), (513, 390), (513, 390), (513, 390), (513, 391), (514, 392), (515, 395), (517, 398), (517, 400), (518, 401), (518, 402), (518, 402), (518, 402), (518, 402), (518, 402), (518, 402), (518, 402), (518, 402), (518, 402), (518, 402), (518, 402), (518, 402), (518, 402), (518, 402), (518, 402), (518, 402), (518, 402), (518, 402), (518, 402), (518, 402), (518, 402), (518, 402), (518, 402), (518, 402), (518, 402), (518, 402), (518, 402), (518, 402), (518, 402), (518, 402), (518, 402), (518, 402), (518, 402), (518, 402), (518, 402), (518, 402), (518, 402), (518, 402), (518, 402), (518, 402), (518, 402), (518, 402), (518, 402), (518, 402), (518, 402), (518, 402), (518, 402), (518, 402), (518, 402), (518, 402), (518, 402), (518, 402), (518, 402), (518, 402), (518, 402), (518, 402), (518, 402), (518, 402), (518, 402), (518, 402), (518, 401), (518, 400), (518, 400), (518, 400), (518, 399), (518, 398), (518, 398), (517, 398), (517, 398), (517, 397), (517, 397), (515, 397), (515, 397), (512, 397), (511, 397), (509, 396), (507, 396), (503, 396), (500, 395), (497, 394), (492, 393), (484, 391), (483, 390), (483, 390), (481, 389), (481, 389), (480, 389), (480, 389), (480, 389), (480, 389), (480, 389), (480, 389), (480, 389), (482, 389), (484, 389), (487, 389), (492, 389), (509, 383), (522, 378), (535, 372), (546, 368), (573, 360), (587, 355), (598, 351), (614, 348), (639, 347), (647, 347), (654, 346), (657, 346), (660, 346), (660, 346), (660, 346), (660, 346), (662, 346), (663, 346), (667, 345), (673, 343), (690, 336), (700, 332), (711, 327), (721, 323), (747, 311), (760, 305)]",342.3308057925853,"[3, 9, 1, 8, 5, 7, 4, 2, 6]","(0, 0.25)",DOT004C,DOT,C,Chinese,Mon Oct  8 18:07:57 2018,Mouse
2,3,3,0,15,1,1,1,537,257,280,143,0,500,200,8000,"[(512, 384), (512, 384), (512, 384), (512, 384), (512, 384), (512, 384), (512, 384), (512, 384), (512, 384), (512, 384), (512, 384), (512, 384), (512, 384), (512, 384), (512, 384), (512, 384), (512, 384), (512, 384), (512, 384), (512, 384), (512, 384), (512, 384), (512, 384), (512, 384), (512, 384), (512, 387), (514, 388), (515, 391), (517, 393), (520, 394), (522, 395), (522, 395), (522, 396), (522, 396), (522, 396), (522, 396), (522, 396), (522, 396), (522, 396), (522, 396), (522, 396), (522, 400), (520, 407), (514, 414), (512, 424), (500, 452), (492, 467), (485, 481), (476, 497), (456, 532), (449, 545), (438, 569), (424, 598), (390, 658)]",114.00128096561299,"[3, 9, 1, 8, 5, 7, 4, 2, 6]","(0, 0.25)",DOT004C,DOT,C,Chinese,Mon Oct  8 18:07:57 2018,Mouse
2,3,3,0,16,7,7,1,487,317,170,142,0,500,200,8000,"[(512, 384), (512, 384), (512, 384), (512, 384), (512, 384), (512, 384), (512, 384), (512, 384), (512, 384), (512, 384), (512, 384), (512, 384), (512, 384), (512, 384), (512, 384), (512, 384), (512, 384), (512, 384), (512, 384), (512, 384), (512, 384), (512, 384), (512, 384), (512, 384), (512, 384), (512, 384), (512, 384), (512, 384), (512, 384), (512, 384), (512, 384), (512, 383), (509, 380), (507, 379), (505, 378), (505, 378), (505, 378), (505, 378), (505, 377), (504, 377), (504, 377), (504, 377), (502, 374), (496, 368), (485, 354), (464, 328), (402, 257), (367, 224), (333, 191)]",227.15527562079149,"[3, 9, 1, 8, 5, 7, 4, 2, 6]","(0, 0.25)",DOT004C,DOT,C,Chinese,Mon Oct  8 18:07:57 2018,Mouse
2,3,3,0,17,5,5,1,2227,608,1619,141,0,500,200,8000,"[(512, 384), (512, 384), (512, 384), (512, 384), (512, 384), (512, 384), (512, 384), (512, 384), (512, 384), (512, 384), (512, 384), (512, 384), (512, 384), (512, 384), (512, 384), (512, 384), (512, 384), (512, 384), (512, 384), (512, 384), (512, 384), (512, 384), (512, 384), (512, 384), (512, 384), (512, 384), (512, 384), (512, 384), (512, 384), (512, 384), (512, 384), (512, 384), (512, 384), (512, 384), (512, 384), (512, 384), (512, 384), (512, 384), (512, 384), (512, 384), (512, 384), (512, 384), (512, 384), (512, 384), (512, 384), (512, 384), (512, 384), (512, 384), (512, 384), (512, 384), (512, 384), (512, 384), (512, 384), (512, 384), (512, 384), (512, 384), (512, 384), (512, 384), (512, 384), (512, 384), (512, 385), (510, 385), (508, 386), (505, 388), (500, 391), (494, 393), (491, 395), (490, 395), (490, 395), (490, 395), (490, 395), (490, 395), (490, 395), (490, 395), (490, 395), (490, 395), (490, 395), (490, 395), (490, 395), (490, 395), (490, 395), (490, 395), (490, 395), (490, 395), (490, 395), (490, 395), (490, 395), (490, 395), (490, 395), (490, 395), (490, 395), (490, 395), (490, 395), (490, 395), (490, 395), (490, 395), (490, 395), (490, 395), (490, 395), (490, 395), (490, 395), (490, 395), (490, 395), (490, 395), (490, 395), (490, 395), (490, 395), (490, 395), (490, 395), (490, 395), (490, 395), (490, 395), (490, 395), (490, 395), (490, 395), (490, 395), (490, 395), (490, 395), (490, 395), (490, 395), (490, 395), (490, 395), (490, 395), (490, 395), (490, 395), (490, 395), (490, 395), (490, 395), (490, 395), (490, 395), (490, 395), (490, 395), (490, 395), (490, 395), (490, 395), (490, 395), (490, 395), (490, 395), (490, 395), (490, 395), (490, 395), (490, 395), (490, 395), (490, 395), (490, 395), (490, 395), (490, 395), (490, 395), (490, 395), (490, 395), (490, 395), (490, 395), (490, 395), (490, 395), (490, 395), (490, 395), (490, 395), (490, 395), (490, 395), (490, 395), (490, 395), (490, 395), (490, 395), (490, 395), (490, 395), (490, 395), (490, 395), (490, 395), (490, 395), (490, 395), (490, 395), (490, 395), (490, 395), (490, 395), (490, 395), (490, 395), (490, 395), (490, 395), (490, 395), (490, 395), (490, 395), (490, 395), (490, 395), (490, 395), (490, 395), (490, 395), (490, 395), (490, 395), (490, 395), (490, 395), (490, 395), (490, 395), (490, 395), (490, 395), (490, 395), (490, 395), (490, 395), (490, 395), (490, 395), (490, 395), (490, 395), (490, 395), (490, 395), (490, 395), (490, 395), (490, 395), (490, 395), (490, 395), (490, 395), (490, 395), (490, 395), (490, 395), (489, 395), (487, 395), (485, 396), (482, 396), (478, 397), (461, 397), (449, 399), (428, 402), (397, 402), (310, 404), (261, 404)]",175.4442246712464,"[3, 9, 1, 8, 5, 7, 4, 2, 6]","(0, 0.25)",DOT004C,DOT,C,Chinese,Mon Oct  8 18:07:57 2018,Mouse
2,3,3,0,18,8,8,1,829,449,380,140,0,500,200,8000,"[(512, 384), (512, 384), (512, 384), (512, 384), (512, 384), (512, 384), (512, 384), (512, 384), (512, 384), (512, 384), (512, 384), (512, 384), (512, 384), (512, 384), (512, 384), (512, 384), (512, 384), (512, 384), (512, 384), (512, 384), (512, 384), (512, 384), (512, 384), (512, 384), (512, 384), (512, 384), (512, 384), (512, 384), (512, 384), (512, 384), (512, 384), (512, 384), (512, 384), (512, 384), (512, 384), (512, 384), (512, 384), (512, 384), (512, 384), (512, 384), (512, 384), (512, 384), (512, 384), (512, 384), (512, 385), (507, 397), (501, 408), (491, 424), (456, 459), (438, 472), (416, 488), (400, 497), (389, 506), (372, 523), (368, 531), (364, 537), (360, 549), (359, 551), (359, 552), (359, 552), (359, 552), (359, 552), (359, 552), (359, 552), (360, 552), (362, 550), (365, 547), (373, 539), (380, 532), (395, 511), (402, 500), (412, 488), (420, 472), (435, 451), (439, 443), (440, 438), (440, 438), (438, 438), (432, 438), (417, 444), (359, 484), (326, 508), (294, 534)]",145.46917425771142,"[3, 9, 1, 8, 5, 7, 4, 2, 6]","(0, 0.25)",DOT004C,DOT,C,Chinese,Mon Oct  8 18:07:57 2018,Mouse
2,3,3,0,19,3,3,1,489,429,60,139,0,500,200,8000,"[(512, 384), (512, 384), (512, 384), (512, 384), (512, 384), (512, 384), (512, 384), (512, 384), (512, 384), (512, 384), (512, 384), (512, 384), (512, 384), (512, 384), (512, 384), (512, 384), (512, 384), (512, 384), (512, 384), (512, 384), (512, 384), (512, 384), (512, 384), (512, 384), (512, 384), (512, 384), (512, 384), (512, 384), (512, 384), (512, 384), (512, 384), (512, 384), (512, 384), (512, 384), (512, 384), (512, 384), (512, 384), (512, 384), (512, 384), (512, 384), (512, 384), (512, 384), (512, 385), (520, 389), (552, 402), (585, 410), (623, 418), (660, 421), (758, 437)]",12.15836602064112,"[3, 9, 1, 8, 5, 7, 4, 2, 6]","(0, 0.25)",DOT004C,DOT,C,Chinese,Mon Oct  8 18:07:57 2018,Mouse
2,3,3,0,20,5,5,1,579,509,70,138,0,500,200,8000,"[(512, 384), (512, 384), (512, 384), (512, 384), (512, 384), (512, 384), (512, 384), (512, 384), (512, 384), (512, 384), (512, 384), (512, 384), (512, 384), (512, 384), (512, 384), (512, 384), (512, 384), (512, 384), (512, 384), (512, 384), (512, 384), (512, 384), (512, 384), (512, 384), (512, 384), (512, 384), (512, 384), (512, 384), (512, 384), (512, 384), (512, 384), (512, 384), (512, 384), (512, 384), (512, 384), (512, 384), (512, 384), (512, 384), (512, 384), (512, 384), (512, 384), (512, 384), (512, 384), (512, 384), (512, 384), (512, 384), (512, 384), (512, 384), (512, 384), (512, 384), (504, 385), (493, 385), (476, 385), (443, 385), (371, 394), (328, 398), (278, 400), (229, 406)]",175.55485117002675,"[3, 9, 1, 8, 5, 7, 4, 2, 6]","(0, 0.25)",DOT004C,DOT,C,Chinese,Mon Oct  8 18:07:57 2018,Mouse
2,3,3,0,21,3,5,0,-228,168,60,137,0,500,200,8000,"[(512, 384), (512, 384), (512, 384), (512, 384), (512, 384), (512, 384), (512, 384), (512, 384), (512, 384), (512, 384), (512, 384), (512, 384), (512, 384), (512, 384), (512, 384), (512, 384), (504, 384), (490, 384), (462, 380), (376, 369), (324, 361), (280, 359), (235, 359)]",185.15712697321786,"[3, 9, 1, 8, 5, 7, 4, 2, 6]","(0, 0.25)",DOT004C,DOT,C,Chinese,Mon Oct  8 18:07:57 2018,Mouse
2,3,3,0,22,2,2,1,397,327,70,138,0,500,200,8000,"[(512, 384), (512, 384), (512, 384), (512, 384), (512, 384), (512, 384), (512, 384), (512, 384), (512, 384), (512, 384), (512, 384), (512, 384), (512, 384), (512, 384), (512, 384), (512, 384), (512, 384), (512, 384), (512, 384), (512, 384), (512, 384), (512, 384), (512, 384), (512, 384), (512, 384), (512, 384), (512, 384), (512, 384), (512, 384), (512, 384), (512, 384), (512, 384), (512, 380), (518, 370), (523, 352), (542, 293), (549, 247), (557, 195), (571, 146), (614, 44)]",286.6992442339936,"[3, 9, 1, 8, 5, 7, 4, 2, 6]","(0, 0.25)",DOT004C,DOT,C,Chinese,Mon Oct  8 18:07:57 2018,Mouse
2,3,3,0,23,9,8,0,-450,370,80,138,0,500,200,8000,"[(512, 384), (512, 384), (512, 384), (512, 384), (512, 384), (512, 384), (512, 384), (512, 384), (512, 384), (512, 384), (512, 384), (512, 384), (512, 384), (512, 384), (512, 384), (512, 384), (512, 384), (512, 384), (512, 384), (512, 384), (512, 384), (512, 384), (512, 384), (512, 384), (512, 384), (512, 384), (512, 384), (512, 384), (512, 384), (512, 384), (512, 384), (512, 384), (512, 384), (512, 384), (512, 384), (512, 384), (512, 386), (510, 390), (507, 402), (494, 441), (482, 470), (460, 501), (435, 528), (375, 577), (344, 600)]",127.87498365109822,"[3, 9, 1, 8, 5, 7, 4, 2, 6]","(0, 0.25)",DOT004C,DOT,C,Chinese,Mon Oct  8 18:07:57 2018,Mouse
2,3,3,0,24,5,5,1,363,293,70,139,0,500,200,8000,"[(512, 384), (512, 384), (512, 384), (512, 384), (512, 384), (512, 384), (512, 384), (512, 384), (512, 384), (512, 384), (512, 384), (512, 384), (512, 384), (512, 384), (512, 384), (512, 384), (512, 384), (512, 384), (512, 384), (512, 384), (512, 384), (512, 384), (512, 384), (512, 384), (512, 384), (512, 384), (512, 384), (512, 384), (512, 384), (508, 384), (480, 385), (452, 385), (424, 385), (357, 385), (323, 384), (290, 384), (262, 384)]",180.0,"[3, 9, 1, 8, 5, 7, 4, 2, 6]","(0, 0.25)",DOT004C,DOT,C,Chinese,Mon Oct  8 18:07:57 2018,Mouse
2,3,3,0,25,8,8,1,518,408,110,139,0,500,200,8000,"[(512, 384), (512, 384), (512, 384), (512, 384), (512, 384), (512, 384), (512, 384), (512, 384), (512, 384), (512, 384), (512, 384), (512, 384), (512, 384), (512, 384), (512, 384), (512, 384), (512, 384), (512, 384), (512, 384), (512, 384), (512, 384), (512, 384), (512, 384), (512, 384), (512, 384), (512, 384), (512, 384), (512, 384), (512, 384), (512, 384), (512, 384), (512, 384), (512, 384), (512, 384), (512, 384), (512, 384), (512, 384), (512, 384), (512, 384), (512, 384), (510, 387), (504, 398), (497, 409), (476, 433), (464, 448), (446, 465), (431, 477), (400, 505), (383, 526), (369, 545), (355, 565), (336, 605)]",128.53311795859992,"[3, 9, 1, 8, 5, 7, 4, 2, 6]","(0, 0.25)",DOT004C,DOT,C,Chinese,Mon Oct  8 18:07:57 2018,Mouse
2,3,3,0,26,5,5,1,819,669,150,138,0,500,200,8000,"[(512, 384), (512, 384), (512, 384), (512, 384), (512, 384), (512, 384), (512, 384), (512, 384), (512, 384), (512, 384), (512, 384), (512, 384), (512, 384), (512, 384), (512, 384), (512, 384), (512, 384), (512, 384), (512, 384), (512, 384), (512, 384), (512, 384), (512, 384), (512, 384), (512, 384), (512, 384), (512, 384), (512, 384), (512, 384), (512, 384), (512, 384), (512, 384), (512, 384), (512, 384), (512, 384), (512, 384), (512, 384), (512, 384), (512, 384), (512, 384), (512, 384), (512, 384), (512, 384), (512, 384), (512, 384), (512, 384), (512, 384), (512, 384), (512, 384), (512, 384), (512, 384), (512, 384), (512, 384), (512, 384), (512, 384), (512, 384), (512, 384), (512, 384), (512, 384), (512, 384), (512, 384), (512, 384), (512, 384), (512, 384), (512, 384), (512, 384), (510, 384), (508, 384), (505, 384), (500, 384), (467, 385), (450, 385), (435, 385), (419, 385), (376, 385), (359, 385), (338, 387), (317, 390), (290, 392), (279, 394), (268, 396), (255, 400)]",176.43754541627985,"[3, 9, 1, 8, 5, 7, 4, 2, 6]","(0, 0.25)",DOT004C,DOT,C,Chinese,Mon Oct  8 18:07:57 2018,Mouse
2,3,3,0,27,9,9,1,378,278,100,137,0,500,200,8000,"[(512, 384), (512, 384), (512, 384), (512, 384), (512, 384), (512, 384), (512, 384), (512, 384), (512, 384), (512, 384), (512, 384), (512, 384), (512, 384), (512, 384), (512, 384), (512, 384), (512, 384), (512, 384), (512, 384), (512, 384), (512, 384), (512, 384), (512, 384), (512, 384), (512, 384), (512, 384), (512, 384), (513, 386), (516, 389), (524, 393), (534, 400), (575, 437), (601, 457), (623, 479), (641, 502), (665, 543), (674, 563), (679, 575)]",48.8353190971333,"[3, 9, 1, 8, 5, 7, 4, 2, 6]","(0, 0.25)",DOT004C,DOT,C,Chinese,Mon Oct  8 18:07:57 2018,Mouse
2,3,3,0,28,6,6,1,578,518,60,136,0,500,200,8000,"[(512, 384), (512, 384), (512, 384), (512, 384), (512, 384), (512, 384), (512, 384), (512, 384), (512, 384), (512, 384), (512, 384), (512, 384), (512, 384), (512, 384), (512, 384), (512, 384), (512, 384), (512, 384), (512, 384), (512, 384), (512, 384), (512, 384), (512, 384), (512, 384), (512, 384), (512, 384), (512, 384), (512, 384), (512, 384), (512, 384), (512, 384), (512, 384), (512, 384), (512, 384), (512, 384), (512, 384), (512, 384), (512, 384), (512, 384), (512, 384), (512, 384), (512, 384), (512, 384), (512, 384), (512, 384), (512, 384), (512, 384), (512, 384), (512, 384), (512, 384), (512, 384), (515, 383), (539, 370), (565, 358), (593, 341), (635, 313), (705, 262), (736, 238)]",326.90426571549176,"[3, 9, 1, 8, 5, 7, 4, 2, 6]","(0, 0.25)",DOT004C,DOT,C,Chinese,Mon Oct  8 18:07:57 2018,Mouse
2,3,3,0,29,8,4,0,-1266,1196,70,135,0,500,200,8000,"[(512, 384), (512, 384), (512, 384), (512, 384), (512, 384), (512, 384), (512, 384), (512, 384), (512, 384), (512, 384), (512, 384), (512, 384), (512, 384), (512, 384), (512, 384), (512, 384), (512, 384), (512, 384), (512, 384), (512, 384), (512, 384), (512, 384), (512, 384), (512, 384), (512, 384), (512, 384), (512, 384), (512, 384), (512, 384), (512, 384), (512, 384), (512, 384), (512, 384), (512, 384), (512, 384), (512, 384), (512, 384), (512, 384), (512, 384), (512, 384), (512, 384), (512, 384), (512, 384), (512, 384), (512, 384), (512, 384), (512, 384), (512, 384), (512, 384), (512, 384), (512, 384), (512, 384), (512, 384), (512, 384), (512, 384), (512, 384), (512, 384), (512, 384), (512, 384), (512, 384), (512, 384), (512, 384), (512, 384), (512, 384), (512, 384), (512, 384), (512, 384), (512, 384), (512, 384), (512, 384), (512, 384), (512, 384), (512, 384), (512, 384), (512, 384), (512, 384), (512, 384), (512, 384), (512, 384), (512, 384), (512, 384), (512, 384), (512, 384), (512, 384), (512, 384), (512, 384), (512, 384), (512, 384), (512, 384), (512, 384), (512, 384), (512, 384), (512, 384), (512, 384), (512, 384), (512, 384), (512, 384), (512, 384), (512, 384), (512, 384), (512, 384), (512, 384), (512, 384), (512, 384), (512, 384), (512, 384), (512, 384), (512, 384), (512, 384), (512, 384), (512, 384), (512, 384), (512, 384), (512, 384), (512, 384), (512, 384), (512, 384), (512, 384), (512, 384), (511, 384), (511, 383), (508, 376), (495, 332), (486, 293), (482, 251), (477, 202), (469, 117)]",260.85114701420616,"[3, 9, 1, 8, 5, 7, 4, 2, 6]","(0, 0.25)",DOT004C,DOT,C,Chinese,Mon Oct  8 18:07:57 2018,Mouse
2,3,3,0,30,3,3,1,381,301,80,136,0,500,200,8000,"[(512, 384), (512, 384), (512, 384), (512, 384), (512, 384), (512, 384), (512, 384), (512, 384), (512, 384), (512, 384), (512, 384), (512, 384), (512, 384), (512, 384), (512, 384), (512, 384), (512, 384), (512, 384), (512, 384), (512, 384), (512, 384), (512, 384), (512, 384), (512, 384), (512, 384), (512, 384), (512, 384), (512, 384), (512, 384), (512, 384), (525, 391), (535, 396), (553, 404), (575, 415), (637, 436), (668, 448), (694, 458), (714, 465), (754, 478)]",21.227651188635292,"[3, 9, 1, 8, 5, 7, 4, 2, 6]","(0, 0.25)",DOT004C,DOT,C,Chinese,Mon Oct  8 18:07:57 2018,Mouse
2,3,3,0,31,9,7,0,-1269,1229,40,136,0,500,200,8000,"[(512, 384), (512, 384), (512, 384), (512, 384), (512, 384), (512, 384), (512, 384), (512, 384), (512, 384), (512, 384), (512, 384), (512, 384), (512, 384), (512, 384), (512, 384), (512, 384), (512, 384), (512, 384), (512, 384), (512, 384), (512, 384), (512, 384), (512, 384), (512, 384), (512, 384), (512, 384), (512, 384), (512, 384), (512, 384), (512, 384), (512, 384), (512, 384), (512, 384), (512, 384), (512, 384), (512, 384), (512, 384), (512, 384), (512, 384), (512, 384), (512, 384), (512, 384), (512, 384), (512, 384), (512, 384), (512, 384), (512, 384), (512, 384), (512, 384), (512, 384), (512, 384), (512, 384), (512, 384), (512, 384), (512, 384), (512, 384), (512, 384), (512, 384), (512, 384), (512, 384), (512, 384), (512, 384), (512, 384), (512, 384), (512, 384), (512, 384), (512, 384), (512, 384), (512, 384), (512, 384), (512, 384), (512, 384), (512, 384), (512, 384), (512, 384), (512, 384), (512, 384), (512, 384), (512, 384), (512, 384), (512, 384), (512, 384), (512, 384), (512, 384), (512, 384), (512, 384), (512, 384), (512, 384), (512, 384), (512, 384), (512, 384), (512, 384), (512, 384), (512, 384), (512, 384), (512, 384), (512, 384), (512, 384), (512, 384), (512, 384), (512, 384), (512, 384), (512, 384), (512, 384), (512, 384), (512, 384), (512, 384), (512, 384), (512, 384), (512, 384), (512, 384), (512, 384), (512, 384), (512, 384), (512, 384), (512, 384), (512, 384), (512, 384), (512, 384), (512, 384), (512, 384), (512, 384), (501, 375), (481, 362), (447, 334), (408, 288), (315, 198)]",223.35488154826274,"[3, 9, 1, 8, 5, 7, 4, 2, 6]","(0, 0.25)",DOT004C,DOT,C,Chinese,Mon Oct  8 18:07:57 2018,Mouse
2,3,3,0,32,3,3,1,550,480,70,137,0,500,200,8000,"[(512, 384), (512, 384), (512, 384), (512, 384), (512, 384), (512, 384), (512, 384), (512, 384), (512, 384), (512, 384), (512, 384), (512, 384), (512, 384), (512, 384), (512, 384), (512, 384), (512, 384), (512, 384), (512, 384), (512, 384), (512, 384), (512, 384), (512, 384), (512, 384), (512, 384), (512, 384), (512, 384), (512, 384), (512, 384), (512, 384), (512, 384), (512, 384), (512, 384), (512, 384), (512, 384), (512, 384), (512, 384), (512, 384), (512, 384), (512, 384), (512, 384), (512, 384), (512, 384), (512, 384), (512, 384), (512, 384), (512, 384), (514, 384), (518, 387), (527, 391), (566, 410), (595, 420), (637, 433), (678, 445), (769, 470)]",18.50180501138074,"[3, 9, 1, 8, 5, 7, 4, 2, 6]","(0, 0.25)",DOT004C,DOT,C,Chinese,Mon Oct  8 18:07:57 2018,Mouse
2,3,3,0,33,3,3,1,68,18,50,137,0,500,200,8000,"[(512, 384), (516, 385), (551, 395), (578, 403), (620, 414), (658, 424), (757, 447)]",14.420773127510985,"[3, 9, 1, 8, 5, 7, 4, 2, 6]","(0, 0.25)",DOT004C,DOT,C,Chinese,Mon Oct  8 18:07:57 2018,Mouse
2,3,3,0,34,2,2,1,517,467,50,136,0,500,200,8000,"[(512, 384), (512, 384), (512, 384), (512, 384), (512, 384), (512, 384), (512, 384), (512, 384), (512, 384), (512, 384), (512, 384), (512, 384), (512, 384), (512, 384), (512, 384), (512, 384), (512, 384), (512, 384), (512, 384), (512, 384), (512, 384), (512, 384), (512, 384), (512, 384), (512, 384), (512, 384), (512, 384), (512, 384), (512, 384), (512, 384), (512, 384), (512, 384), (512, 384), (512, 384), (512, 384), (512, 384), (512, 384), (512, 384), (512, 384), (512, 384), (512, 384), (512, 384), (512, 384), (512, 384), (512, 384), (512, 384), (520, 369), (531, 350), (547, 320), (561, 283), (596, 174), (612, 127)]",291.2612632575725,"[3, 9, 1, 8, 5, 7, 4, 2, 6]","(0, 0.25)",DOT004C,DOT,C,Chinese,Mon Oct  8 18:07:57 2018,Mouse
2,3,3,0,35,1,1,1,580,420,160,135,0,500,200,8000,"[(512, 384), (512, 384), (512, 384), (512, 384), (512, 384), (512, 384), (512, 384), (512, 384), (512, 384), (512, 384), (512, 384), (512, 384), (512, 384), (512, 384), (512, 384), (512, 384), (512, 384), (512, 384), (512, 384), (512, 384), (512, 384), (512, 384), (512, 384), (512, 384), (512, 384), (512, 384), (512, 384), (512, 384), (512, 384), (512, 384), (512, 384), (512, 384), (512, 384), (512, 384), (512, 384), (512, 384), (512, 384), (512, 384), (512, 384), (512, 384), (512, 384), (513, 384), (516, 386), (517, 389), (517, 394), (516, 399), (516, 400), (514, 403), (512, 405), (504, 420), (498, 432), (492, 449), (489, 473), (489, 528), (489, 559), (489, 581), (487, 607), (482, 637)]",96.7623896749393,"[3, 9, 1, 8, 5, 7, 4, 2, 6]","(0, 0.25)",DOT004C,DOT,C,Chinese,Mon Oct  8 18:07:57 2018,Mouse
2,3,3,0,36,9,5,0,-427,347,80,134,0,500,200,8000,"[(512, 384), (512, 384), (512, 384), (512, 384), (512, 384), (512, 384), (512, 384), (512, 384), (512, 384), (512, 384), (512, 384), (512, 384), (512, 384), (512, 384), (512, 384), (512, 384), (512, 384), (512, 384), (512, 384), (512, 384), (512, 384), (512, 384), (512, 384), (512, 384), (512, 384), (512, 384), (512, 384), (512, 384), (512, 384), (512, 384), (512, 384), (512, 384), (512, 384), (512, 384), (502, 387), (488, 388), (465, 388), (437, 388), (382, 388), (356, 388), (331, 389), (294, 389), (191, 393)]",178.39399701071775,"[3, 9, 1, 8, 5, 7, 4, 2, 6]","(0, 0.25)",DOT004C,DOT,C,Chinese,Mon Oct  8 18:07:57 2018,Mouse
2,3,3,0,37,3,3,1,319,239,80,135,0,500,200,8000,"[(512, 384), (512, 384), (512, 384), (512, 384), (512, 384), (512, 384), (512, 384), (512, 384), (512, 384), (512, 384), (512, 384), (512, 384), (512, 384), (512, 384), (512, 384), (512, 384), (512, 384), (512, 384), (512, 384), (512, 384), (512, 384), (512, 384), (512, 384), (514, 386), (522, 391), (532, 396), (565, 413), (590, 428), (620, 444), (657, 461), (718, 489), (752, 499)]",25.60218755144178,"[3, 9, 1, 8, 5, 7, 4, 2, 6]","(0, 0.25)",DOT004C,DOT,C,Chinese,Mon Oct  8 18:07:57 2018,Mouse
2,3,3,0,38,2,6,0,-109,39,70,135,0,500,200,8000,"[(512, 384), (512, 384), (512, 384), (512, 383), (512, 379), (525, 370), (544, 358), (581, 343), (627, 325), (718, 286), (769, 261)]",334.42425955888507,"[3, 9, 1, 8, 5, 7, 4, 2, 6]","(0, 0.25)",DOT004C,DOT,C,Chinese,Mon Oct  8 18:07:57 2018,Mouse
2,3,3,0,39,8,8,1,568,478,90,136,0,500,200,8000,"[(512, 384), (512, 384), (512, 384), (512, 384), (512, 384), (512, 384), (512, 384), (512, 384), (512, 384), (512, 384), (512, 384), (512, 384), (512, 384), (512, 384), (512, 384), (512, 384), (512, 384), (512, 384), (512, 384), (512, 384), (512, 384), (512, 384), (512, 384), (512, 384), (512, 384), (512, 384), (512, 384), (512, 384), (512, 384), (512, 384), (512, 384), (512, 384), (512, 384), (512, 384), (512, 384), (512, 384), (512, 384), (512, 384), (512, 384), (512, 384), (512, 384), (512, 384), (512, 384), (512, 384), (512, 384), (512, 384), (512, 384), (510, 386), (507, 389), (484, 412), (469, 425), (449, 436), (434, 449), (382, 484), (356, 503), (338, 520), (317, 541)]",141.16147810367062,"[3, 9, 1, 8, 5, 7, 4, 2, 6]","(0, 0.25)",DOT004C,DOT,C,Chinese,Mon Oct  8 18:07:57 2018,Mouse
2,3,3,0,40,6,6,1,638,498,140,136,0,500,200,8000,"[(512, 384), (512, 384), (512, 384), (512, 384), (512, 384), (512, 384), (512, 384), (512, 384), (512, 384), (512, 384), (512, 384), (512, 384), (512, 384), (512, 384), (512, 384), (512, 384), (512, 384), (512, 384), (512, 384), (512, 384), (512, 384), (512, 384), (512, 384), (512, 384), (512, 384), (512, 384), (512, 384), (512, 384), (512, 384), (512, 384), (512, 384), (512, 384), (512, 384), (512, 384), (512, 384), (512, 384), (512, 384), (512, 384), (512, 384), (512, 384), (512, 384), (512, 384), (512, 384), (512, 384), (512, 384), (512, 384), (512, 384), (512, 384), (512, 384), (514, 384), (514, 383), (515, 382), (515, 382), (515, 382), (515, 382), (520, 380), (527, 379), (540, 378), (557, 377), (608, 374), (640, 369), (668, 363), (701, 354), (765, 333)]",348.60299194026265,"[3, 9, 1, 8, 5, 7, 4, 2, 6]","(0, 0.25)",DOT004C,DOT,C,Chinese,Mon Oct  8 18:07:57 2018,Mouse
2,3,3,0,41,5,5,1,478,388,90,135,0,500,200,8000,"[(512, 384), (512, 384), (512, 384), (512, 384), (512, 384), (512, 384), (512, 384), (512, 384), (512, 384), (512, 384), (512, 384), (512, 384), (512, 384), (512, 384), (512, 384), (512, 384), (512, 384), (512, 384), (512, 384), (512, 384), (512, 384), (512, 384), (512, 384), (512, 384), (512, 384), (512, 384), (512, 384), (512, 384), (512, 384), (512, 384), (512, 384), (512, 384), (512, 384), (512, 384), (512, 384), (512, 384), (512, 384), (512, 384), (511, 384), (511, 384), (511, 384), (509, 384), (505, 385), (494, 385), (478, 385), (444, 386), (328, 398), (255, 405)]",175.32862196465047,"[3, 9, 1, 8, 5, 7, 4, 2, 6]","(0, 0.25)",DOT004C,DOT,C,Chinese,Mon Oct  8 18:07:57 2018,Mouse
2,3,3,0,42,9,5,0,-87,17,70,134,0,500,200,8000,"[(511, 384), (495, 384), (486, 384), (467, 384), (444, 384), (375, 384), (333, 384), (288, 384), (247, 384)]",180.0,"[3, 9, 1, 8, 5, 7, 4, 2, 6]","(0, 0.25)",DOT004C,DOT,C,Chinese,Mon Oct  8 18:07:57 2018,Mouse
2,3,3,0,43,9,5,0,-1637,1557,80,135,0,500,200,8000,"[(512, 384), (512, 384), (512, 384), (512, 384), (512, 384), (512, 384), (512, 384), (512, 384), (512, 384), (512, 384), (512, 384), (512, 384), (512, 384), (512, 384), (512, 384), (512, 384), (512, 384), (512, 384), (512, 384), (512, 384), (512, 384), (512, 384), (512, 384), (512, 384), (512, 384), (512, 384), (512, 384), (512, 384), (512, 384), (512, 384), (512, 384), (512, 384), (512, 384), (512, 384), (512, 384), (512, 384), (512, 384), (512, 384), (512, 384), (512, 384), (512, 384), (512, 384), (512, 384), (512, 384), (512, 384), (512, 384), (512, 384), (512, 384), (512, 384), (512, 384), (512, 384), (512, 384), (512, 384), (512, 384), (512, 384), (512, 384), (512, 384), (512, 384), (512, 384), (512, 384), (512, 384), (512, 384), (512, 384), (512, 384), (512, 384), (512, 384), (512, 384), (512, 384), (512, 384), (512, 384), (512, 384), (512, 384), (512, 384), (512, 384), (512, 384), (512, 384), (512, 384), (512, 384), (512, 384), (512, 384), (512, 384), (512, 384), (512, 384), (512, 384), (512, 384), (512, 384), (512, 384), (512, 384), (512, 384), (512, 384), (512, 384), (512, 384), (512, 384), (512, 384), (512, 384), (512, 384), (512, 384), (512, 384), (512, 384), (512, 384), (512, 384), (512, 384), (512, 384), (512, 384), (512, 384), (512, 384), (512, 384), (512, 384), (512, 384), (512, 384), (512, 384), (512, 384), (512, 384), (512, 384), (512, 384), (512, 384), (512, 384), (512, 384), (512, 384), (512, 384), (512, 384), (512, 384), (512, 384), (512, 384), (512, 384), (512, 384), (512, 384), (512, 384), (512, 384), (512, 384), (512, 384), (512, 384), (512, 384), (512, 384), (512, 384), (512, 384), (512, 384), (512, 384), (512, 384), (512, 384), (512, 384), (512, 384), (512, 384), (512, 384), (512, 384), (512, 384), (512, 384), (512, 384), (512, 384), (512, 384), (512, 384), (512, 384), (512, 384), (512, 384), (512, 384), (510, 384), (507, 386), (501, 388), (489, 395), (433, 417), (393, 422), (347, 428), (299, 434), (193, 440)]",170.04325947975948,"[3, 9, 1, 8, 5, 7, 4, 2, 6]","(0, 0.25)",DOT004C,DOT,C,Chinese,Mon Oct  8 18:07:57 2018,Mouse
2,3,3,0,44,8,8,1,839,669,170,136,0,500,200,8000,"[(512, 384), (512, 384), (512, 384), (512, 384), (512, 384), (512, 384), (512, 384), (512, 384), (512, 384), (512, 384), (512, 384), (512, 384), (512, 384), (512, 384), (512, 384), (512, 384), (512, 384), (512, 384), (512, 384), (512, 384), (512, 384), (512, 384), (512, 384), (512, 384), (512, 384), (512, 384), (512, 384), (512, 384), (512, 384), (512, 384), (512, 384), (512, 384), (512, 384), (512, 384), (512, 384), (512, 384), (512, 384), (512, 384), (512, 384), (512, 384), (512, 384), (512, 384), (512, 384), (512, 384), (512, 384), (512, 384), (512, 384), (512, 384), (512, 384), (512, 384), (512, 384), (512, 384), (512, 384), (512, 384), (512, 384), (512, 384), (512, 384), (512, 384), (512, 384), (512, 384), (512, 384), (512, 384), (512, 384), (512, 384), (512, 384), (512, 384), (512, 385), (512, 386), (511, 387), (509, 389), (499, 397), (492, 402), (482, 405), (471, 409), (448, 426), (433, 432), (414, 444), (399, 454), (367, 479), (357, 489), (346, 500), (335, 512), (313, 535), (297, 551)]",142.1619337274998,"[3, 9, 1, 8, 5, 7, 4, 2, 6]","(0, 0.25)",DOT004C,DOT,C,Chinese,Mon Oct  8 18:07:57 2018,Mouse
2,3,3,0,45,6,5,0,-668,218,450,136,0,500,200,8000,"[(512, 384), (512, 384), (512, 384), (512, 384), (512, 384), (512, 384), (512, 384), (512, 384), (512, 384), (512, 384), (512, 384), (512, 384), (512, 384), (512, 384), (512, 384), (512, 384), (512, 384), (512, 384), (512, 384), (512, 384), (512, 384), (508, 385), (503, 386), (495, 387), (485, 388), (464, 393), (456, 394), (453, 394), (451, 394), (450, 394), (450, 394), (450, 394), (450, 394), (450, 394), (450, 394), (450, 394), (450, 394), (450, 394), (450, 394), (450, 394), (449, 394), (449, 394), (449, 394), (449, 394), (449, 394), (449, 394), (449, 394), (449, 394), (449, 394), (449, 394), (449, 394), (449, 394), (449, 394), (449, 394), (449, 394), (449, 394), (449, 394), (449, 394), (449, 394), (449, 394), (449, 394), (446, 394), (438, 394), (420, 393), (384, 393), (292, 394), (234, 396)]",177.5283352383666,"[3, 9, 1, 8, 5, 7, 4, 2, 6]","(0, 0.25)",DOT004C,DOT,C,Chinese,Mon Oct  8 18:07:57 2018,Mouse
2,3,3,0,46,6,4,0,-98,58,40,137,0,500,200,8000,"[(512, 384), (512, 384), (512, 384), (512, 384), (512, 384), (503, 359), (495, 326), (483, 274), (470, 213), (442, 77)]",257.1554075199806,"[3, 9, 1, 8, 5, 7, 4, 2, 6]","(0, 0.25)",DOT004C,DOT,C,Chinese,Mon Oct  8 18:07:57 2018,Mouse
2,3,3,0,47,7,5,0,-1128,958,170,138,0,500,200,8000,"[(512, 384), (512, 384), (512, 384), (512, 384), (512, 384), (512, 384), (512, 384), (512, 384), (512, 384), (512, 384), (512, 384), (512, 384), (512, 384), (512, 384), (512, 384), (512, 384), (512, 384), (512, 384), (512, 384), (512, 384), (512, 384), (512, 384), (512, 384), (512, 384), (512, 384), (512, 384), (512, 384), (512, 384), (512, 384), (512, 384), (512, 384), (512, 384), (512, 384), (512, 384), (512, 384), (512, 384), (512, 384), (512, 384), (512, 384), (512, 384), (512, 384), (512, 384), (512, 384), (512, 384), (512, 384), (512, 384), (512, 384), (512, 384), (512, 384), (512, 384), (512, 384), (512, 384), (512, 384), (512, 384), (512, 384), (512, 384), (512, 384), (512, 384), (512, 384), (512, 384), (512, 384), (512, 384), (512, 384), (512, 384), (512, 384), (512, 384), (512, 384), (512, 384), (512, 384), (512, 384), (512, 384), (512, 384), (512, 384), (512, 384), (512, 384), (512, 384), (512, 384), (512, 384), (512, 384), (512, 384), (512, 384), (512, 384), (512, 384), (512, 384), (512, 384), (512, 384), (512, 384), (512, 384), (512, 384), (512, 384), (512, 384), (512, 384), (512, 384), (512, 384), (512, 384), (511, 384), (509, 384), (507, 384), (502, 387), (500, 387), (498, 387), (498, 387), (498, 388), (498, 388), (498, 388), (497, 388), (494, 389), (485, 390), (472, 391), (448, 394), (362, 394), (309, 398), (252, 406)]",175.1634165542647,"[3, 9, 1, 8, 5, 7, 4, 2, 6]","(0, 0.25)",DOT004C,DOT,C,Chinese,Mon Oct  8 18:07:57 2018,Mouse
2,3,3,0,48,7,7,1,256,206,50,139,0,500,200,8000,"[(512, 384), (512, 384), (512, 384), (512, 384), (512, 384), (512, 384), (512, 384), (512, 384), (512, 384), (512, 384), (512, 384), (512, 384), (512, 384), (512, 384), (512, 384), (512, 384), (512, 384), (512, 384), (512, 384), (512, 384), (504, 379), (489, 370), (464, 355), (431, 331), (338, 261), (296, 229)]",215.66294164904983,"[3, 9, 1, 8, 5, 7, 4, 2, 6]","(0, 0.25)",DOT004C,DOT,C,Chinese,Mon Oct  8 18:07:57 2018,Mouse
2,3,3,0,49,1,5,0,-468,308,160,139,0,500,200,8000,"[(512, 384), (512, 384), (512, 384), (512, 384), (512, 384), (512, 384), (512, 384), (512, 384), (512, 384), (512, 384), (512, 384), (512, 384), (512, 384), (512, 384), (512, 384), (512, 384), (512, 384), (512, 384), (512, 384), (512, 384), (512, 384), (512, 384), (512, 384), (512, 384), (512, 384), (512, 384), (512, 384), (512, 384), (512, 384), (512, 384), (510, 384), (503, 384), (494, 383), (473, 381), (466, 381), (458, 380), (449, 381), (439, 383), (433, 384), (428, 385), (419, 386), (396, 390), (378, 393), (356, 393), (331, 393), (272, 394), (241, 394)]",177.8867234176087,"[3, 9, 1, 8, 5, 7, 4, 2, 6]","(0, 0.25)",DOT004C,DOT,C,Chinese,Mon Oct  8 18:07:57 2018,Mouse
2,3,3,0,50,6,6,1,819,579,240,140,0,500,200,8000,"[(512, 384), (512, 384), (512, 384), (512, 384), (512, 384), (512, 384), (512, 384), (512, 384), (512, 384), (512, 384), (512, 384), (512, 384), (512, 384), (512, 384), (512, 384), (512, 384), (512, 384), (512, 384), (512, 384), (512, 384), (512, 384), (512, 384), (512, 384), (512, 384), (512, 384), (512, 384), (512, 384), (512, 384), (512, 384), (512, 384), (512, 384), (512, 384), (512, 384), (512, 384), (512, 384), (512, 384), (512, 384), (512, 384), (512, 384), (512, 384), (512, 384), (512, 384), (512, 384), (512, 384), (512, 384), (512, 384), (512, 384), (512, 384), (512, 384), (512, 384), (512, 384), (512, 384), (512, 384), (512, 384), (512, 384), (512, 384), (512, 384), (512, 383), (511, 382), (510, 381), (509, 380), (508, 379), (508, 379), (508, 378), (507, 378), (507, 378), (507, 378), (507, 378), (507, 378), (507, 378), (507, 378), (507, 378), (507, 378), (507, 378), (507, 378), (513, 378), (528, 378), (601, 367), (653, 355), (707, 345), (754, 336), (845, 310)]",347.4711922908485,"[3, 9, 1, 8, 5, 7, 4, 2, 6]","(0, 0.25)",DOT004C,DOT,C,Chinese,Mon Oct  8 18:07:57 2018,Mouse
2,3,3,0,51,5,5,1,348,268,80,140,0,500,200,8000,"[(512, 384), (512, 384), (512, 384), (512, 384), (512, 384), (512, 384), (512, 384), (512, 384), (512, 384), (512, 384), (512, 384), (512, 384), (512, 384), (512, 384), (512, 384), (512, 384), (512, 384), (512, 384), (512, 384), (512, 384), (512, 384), (512, 384), (512, 384), (512, 384), (512, 384), (512, 384), (509, 385), (504, 385), (491, 385), (473, 385), (420, 385), (391, 384), (352, 382), (303, 389), (184, 404)]",176.5106750942036,"[3, 9, 1, 8, 5, 7, 4, 2, 6]","(0, 0.25)",DOT004C,DOT,C,Chinese,Mon Oct  8 18:07:57 2018,Mouse
2,3,3,0,52,4,5,0,-1129,1029,100,139,0,500,200,8000,"[(512, 384), (512, 384), (512, 384), (512, 384), (512, 384), (512, 384), (512, 384), (512, 384), (512, 384), (512, 384), (512, 384), (512, 384), (512, 384), (512, 384), (512, 384), (512, 384), (512, 384), (512, 384), (512, 384), (512, 384), (512, 384), (512, 384), (512, 384), (512, 384), (512, 384), (512, 384), (512, 384), (512, 384), (512, 384), (512, 384), (512, 384), (512, 384), (512, 384), (512, 384), (512, 384), (512, 384), (512, 384), (512, 384), (512, 384), (512, 384), (512, 384), (512, 384), (512, 384), (512, 384), (512, 384), (512, 384), (512, 384), (512, 384), (512, 384), (512, 384), (512, 384), (512, 384), (512, 384), (512, 384), (512, 384), (512, 384), (512, 384), (512, 384), (512, 384), (512, 384), (512, 384), (512, 384), (512, 384), (512, 384), (512, 384), (512, 384), (512, 384), (512, 384), (512, 384), (512, 384), (512, 384), (512, 384), (512, 384), (512, 384), (512, 384), (512, 384), (512, 384), (512, 384), (512, 384), (512, 384), (512, 384), (512, 384), (512, 384), (512, 384), (512, 384), (512, 384), (512, 384), (512, 384), (512, 384), (512, 384), (512, 384), (512, 384), (512, 384), (512, 384), (512, 384), (512, 384), (512, 384), (512, 384), (512, 384), (512, 384), (512, 384), (512, 384), (508, 384), (497, 384), (485, 382), (468, 381), (438, 381), (428, 381), (416, 381), (402, 381), (350, 381), (303, 379), (254, 374)]",182.2196555531979,"[3, 9, 1, 8, 5, 7, 4, 2, 6]","(0, 0.25)",DOT004C,DOT,C,Chinese,Mon Oct  8 18:07:57 2018,Mouse
2,3,3,0,53,1,4,0,-1248,728,520,140,0,500,200,8000,"[(512, 384), (512, 384), (512, 384), (512, 384), (512, 384), (512, 384), (512, 384), (512, 384), (512, 384), (512, 384), (512, 384), (512, 384), (512, 384), (512, 384), (512, 384), (512, 384), (512, 384), (512, 384), (512, 384), (512, 384), (512, 384), (512, 384), (512, 384), (512, 384), (512, 384), (512, 384), (512, 384), (512, 384), (512, 384), (512, 384), (512, 384), (512, 384), (512, 384), (512, 384), (512, 384), (512, 384), (512, 384), (512, 384), (512, 384), (512, 384), (512, 384), (512, 384), (512, 384), (512, 384), (512, 384), (512, 384), (512, 384), (512, 384), (512, 384), (512, 384), (512, 384), (512, 384), (512, 384), (512, 384), (512, 384), (512, 384), (512, 384), (512, 384), (512, 384), (512, 384), (512, 384), (512, 384), (512, 384), (512, 384), (512, 384), (512, 384), (512, 384), (512, 384), (512, 384), (512, 384), (512, 384), (512, 384), (506, 381), (498, 374), (493, 366), (488, 359), (476, 345), (472, 340), (470, 337), (469, 336), (466, 332), (462, 325), (459, 315), (455, 301), (448, 272), (447, 258), (442, 247), (439, 238), (437, 229), (436, 227), (436, 227), (436, 227), (436, 227), (436, 227), (436, 227), (436, 227), (436, 227), (436, 227), (436, 227), (436, 227), (436, 229), (436, 230), (436, 233), (437, 233), (438, 234), (438, 235), (438, 235), (439, 236), (440, 239), (441, 240), (442, 243), (443, 244), (447, 249), (449, 252), (451, 253), (451, 253), (451, 253), (451, 253), (451, 253), (451, 251), (451, 233), (451, 216), (451, 201), (451, 176), (451, 133)]",256.34034308714604,"[3, 9, 1, 8, 5, 7, 4, 2, 6]","(0, 0.25)",DOT004C,DOT,C,Chinese,Mon Oct  8 18:07:57 2018,Mouse
2,3,3,0,54,8,8,1,606,496,110,141,0,500,200,8000,"[(512, 384), (512, 384), (512, 384), (512, 384), (512, 384), (512, 384), (512, 384), (512, 384), (512, 384), (512, 384), (512, 384), (512, 384), (512, 384), (512, 384), (512, 384), (512, 384), (512, 384), (512, 384), (512, 384), (512, 384), (512, 384), (512, 384), (512, 384), (512, 384), (512, 384), (512, 384), (512, 384), (512, 384), (512, 384), (512, 384), (512, 384), (512, 384), (512, 384), (512, 384), (512, 384), (512, 384), (512, 384), (512, 384), (512, 384), (512, 384), (512, 384), (512, 384), (512, 384), (512, 384), (512, 384), (512, 384), (512, 384), (512, 384), (512, 384), (512, 386), (511, 394), (507, 403), (502, 411), (495, 422), (479, 440), (469, 446), (455, 458), (440, 472), (384, 512), (349, 543), (322, 570)]",135.6095065766752,"[3, 9, 1, 8, 5, 7, 4, 2, 6]","(0, 0.25)",DOT004C,DOT,C,Chinese,Mon Oct  8 18:07:57 2018,Mouse
2,3,3,0,55,7,7,1,1488,1438,50,141,0,500,200,8000,"[(512, 384), (512, 384), (512, 384), (512, 384), (512, 384), (512, 384), (512, 384), (512, 384), (512, 384), (512, 384), (512, 384), (512, 384), (512, 384), (512, 384), (512, 384), (512, 384), (512, 384), (512, 384), (512, 384), (512, 384), (512, 384), (512, 384), (512, 384), (512, 384), (512, 384), (512, 384), (512, 384), (512, 384), (512, 384), (512, 384), (512, 384), (512, 384), (512, 384), (512, 384), (512, 384), (512, 384), (512, 384), (512, 384), (512, 384), (512, 384), (512, 384), (512, 384), (512, 384), (512, 384), (512, 384), (512, 384), (512, 384), (512, 384), (512, 384), (512, 384), (512, 384), (512, 384), (512, 384), (512, 384), (512, 384), (512, 384), (512, 384), (512, 384), (512, 384), (512, 384), (512, 384), (512, 384), (512, 384), (512, 384), (512, 384), (512, 384), (512, 384), (512, 384), (512, 384), (512, 384), (512, 384), (512, 384), (512, 384), (512, 384), (512, 384), (512, 384), (512, 384), (512, 384), (512, 384), (512, 384), (512, 384), (512, 384), (512, 384), (512, 384), (512, 384), (512, 384), (512, 384), (512, 384), (512, 384), (512, 384), (512, 384), (512, 384), (512, 384), (512, 384), (512, 384), (512, 384), (512, 384), (512, 384), (512, 384), (512, 384), (512, 384), (512, 384), (512, 384), (512, 384), (512, 384), (512, 384), (512, 384), (512, 384), (512, 384), (512, 384), (512, 384), (512, 384), (512, 384), (512, 384), (512, 384), (512, 384), (512, 384), (512, 384), (512, 384), (512, 384), (512, 384), (512, 384), (512, 384), (512, 384), (512, 384), (512, 384), (512, 384), (512, 384), (512, 384), (512, 384), (512, 384), (512, 384), (512, 384), (512, 384), (512, 384), (512, 384), (512, 384), (512, 384), (512, 384), (512, 384), (512, 384), (512, 384), (512, 384), (512, 383), (484, 369), (452, 353), (416, 329), (373, 297), (300, 236)]",214.91940201245765,"[3, 9, 1, 8, 5, 7, 4, 2, 6]","(0, 0.25)",DOT004C,DOT,C,Chinese,Mon Oct  8 18:07:57 2018,Mouse
2,3,3,0,56,8,6,0,-449,389,60,140,0,500,200,8000,"[(512, 384), (512, 384), (512, 384), (512, 384), (512, 384), (512, 384), (512, 384), (512, 384), (512, 384), (512, 384), (512, 384), (512, 384), (512, 384), (512, 384), (512, 384), (512, 384), (512, 384), (512, 384), (512, 384), (512, 384), (512, 384), (512, 384), (512, 384), (512, 384), (512, 384), (512, 384), (512, 384), (512, 384), (512, 384), (512, 384), (512, 384), (512, 384), (512, 384), (512, 384), (512, 384), (512, 384), (512, 384), (512, 384), (523, 383), (535, 379), (552, 375), (585, 370), (675, 361), (737, 356), (801, 354)]",354.0735676182147,"[3, 9, 1, 8, 5, 7, 4, 2, 6]","(0, 0.25)",DOT004C,DOT,C,Chinese,Mon Oct  8 18:07:57 2018,Mouse
2,3,3,0,57,8,9,0,-368,258,110,141,0,500,200,8000,"[(512, 384), (512, 384), (512, 384), (512, 384), (512, 384), (512, 384), (512, 384), (512, 384), (512, 384), (512, 384), (512, 384), (512, 384), (512, 384), (512, 384), (512, 384), (512, 384), (512, 384), (512, 384), (512, 384), (512, 384), (512, 384), (512, 384), (512, 384), (512, 384), (512, 384), (517, 388), (526, 391), (536, 395), (558, 413), (571, 426), (587, 442), (602, 460), (632, 504), (644, 526), (657, 548), (664, 570), (669, 597)]",53.60647351978888,"[3, 9, 1, 8, 5, 7, 4, 2, 6]","(0, 0.25)",DOT004C,DOT,C,Chinese,Mon Oct  8 18:07:57 2018,Mouse
2,3,3,0,58,1,1,1,698,418,280,142,0,500,200,8000,"[(512, 384), (512, 384), (512, 384), (512, 384), (512, 384), (512, 384), (512, 384), (512, 384), (512, 384), (512, 384), (512, 384), (512, 384), (512, 384), (512, 384), (512, 384), (512, 384), (512, 384), (512, 384), (512, 384), (512, 384), (512, 384), (512, 384), (512, 384), (512, 384), (512, 384), (512, 384), (512, 384), (512, 384), (512, 384), (512, 384), (512, 384), (512, 384), (512, 384), (512, 384), (512, 384), (512, 384), (512, 384), (512, 384), (512, 384), (512, 384), (512, 384), (512, 383), (512, 381), (512, 381), (512, 379), (511, 378), (511, 376), (511, 375), (511, 375), (510, 374), (510, 374), (510, 374), (510, 374), (510, 374), (510, 374), (510, 374), (511, 374), (513, 375), (515, 378), (516, 380), (516, 383), (516, 390), (515, 405), (514, 419), (514, 439), (514, 464), (513, 529), (509, 563), (500, 605), (492, 645)]",94.38191784316619,"[3, 9, 1, 8, 5, 7, 4, 2, 6]","(0, 0.25)",DOT004C,DOT,C,Chinese,Mon Oct  8 18:07:57 2018,Mouse
2,3,3,0,59,4,4,1,1107,478,629,142,0,500,200,8000,"[(512, 384), (512, 384), (512, 384), (512, 384), (512, 384), (512, 384), (512, 384), (512, 384), (512, 384), (512, 384), (512, 384), (512, 384), (512, 384), (512, 384), (512, 384), (512, 384), (512, 384), (512, 384), (512, 384), (512, 384), (512, 384), (512, 384), (512, 384), (512, 384), (512, 384), (512, 384), (512, 384), (512, 384), (512, 384), (512, 384), (512, 384), (512, 384), (512, 384), (512, 384), (512, 384), (512, 384), (512, 384), (512, 384), (512, 384), (512, 384), (512, 384), (512, 384), (512, 384), (512, 384), (512, 384), (512, 384), (512, 384), (511, 384), (511, 384), (510, 384), (510, 383), (510, 383), (510, 383), (510, 383), (510, 383), (510, 383), (510, 383), (510, 383), (510, 383), (509, 383), (509, 383), (509, 383), (509, 383), (509, 383), (509, 383), (509, 383), (509, 383), (509, 383), (509, 383), (509, 383), (509, 383), (509, 383), (509, 383), (509, 383), (509, 383), (509, 383), (509, 383), (509, 383), (509, 383), (509, 383), (509, 383), (509, 383), (509, 383), (509, 383), (509, 383), (509, 383), (509, 383), (509, 383), (509, 383), (509, 383), (509, 383), (509, 383), (509, 383), (509, 383), (509, 383), (509, 383), (509, 383), (509, 383), (509, 383), (509, 383), (509, 383), (509, 383), (509, 383), (509, 383), (509, 383), (509, 380), (509, 366), (509, 285), (509, 230), (509, 158), (507, 89)]",269.0289780689208,"[3, 9, 1, 8, 5, 7, 4, 2, 6]","(0, 0.25)",DOT004C,DOT,C,Chinese,Mon Oct  8 18:07:57 2018,Mouse
2,3,3,0,60,7,5,0,-389,279,110,141,0,500,200,8000,"[(512, 384), (512, 384), (512, 384), (512, 384), (512, 384), (512, 384), (512, 384), (512, 384), (512, 384), (512, 384), (512, 384), (512, 384), (512, 384), (512, 384), (512, 384), (512, 384), (512, 384), (512, 384), (512, 384), (512, 384), (512, 384), (512, 384), (512, 384), (512, 384), (512, 384), (512, 384), (512, 384), (506, 385), (498, 385), (488, 385), (474, 385), (428, 384), (410, 383), (391, 383), (367, 381), (321, 379), (296, 379), (277, 379), (258, 376)]",181.80399511620058,"[3, 9, 1, 8, 5, 7, 4, 2, 6]","(0, 0.25)",DOT004C,DOT,C,Chinese,Mon Oct  8 18:07:57 2018,Mouse
2,3,3,0,61,2,2,1,578,468,110,142,0,500,200,8000,"[(512, 384), (512, 384), (512, 384), (512, 384), (512, 384), (512, 384), (512, 384), (512, 384), (512, 384), (512, 384), (512, 384), (512, 384), (512, 384), (512, 384), (512, 384), (512, 384), (512, 384), (512, 384), (512, 384), (512, 384), (512, 384), (512, 384), (512, 384), (512, 384), (512, 384), (512, 384), (512, 384), (512, 384), (512, 384), (512, 384), (512, 384), (512, 384), (512, 384), (512, 384), (512, 384), (512, 384), (512, 384), (512, 384), (512, 384), (512, 384), (512, 384), (512, 384), (512, 384), (512, 384), (512, 384), (512, 384), (513, 384), (517, 380), (522, 377), (528, 375), (534, 373), (546, 367), (556, 363), (567, 355), (585, 343), (630, 290), (659, 238), (681, 187)]",310.62523771904455,"[3, 9, 1, 8, 5, 7, 4, 2, 6]","(0, 0.25)",DOT004C,DOT,C,Chinese,Mon Oct  8 18:07:57 2018,Mouse
2,3,3,0,62,2,2,1,199,149,50,142,0,500,200,8000,"[(512, 384), (512, 384), (512, 384), (512, 384), (512, 384), (512, 384), (512, 384), (512, 384), (512, 384), (512, 384), (512, 384), (512, 384), (512, 384), (512, 384), (512, 383), (517, 374), (551, 318), (583, 258), (624, 184), (672, 102)]",299.5695313332678,"[3, 9, 1, 8, 5, 7, 4, 2, 6]","(0, 0.25)",DOT004C,DOT,C,Chinese,Mon Oct  8 18:07:57 2018,Mouse
2,3,3,0,63,7,7,1,517,337,180,141,0,500,200,8000,"[(512, 384), (512, 384), (512, 384), (512, 384), (512, 384), (512, 384), (512, 384), (512, 384), (512, 384), (512, 384), (512, 384), (512, 384), (512, 384), (512, 384), (512, 384), (512, 384), (512, 384), (512, 384), (512, 384), (512, 384), (512, 384), (512, 384), (512, 384), (512, 384), (512, 384), (512, 384), (512, 384), (512, 384), (512, 384), (512, 384), (512, 384), (512, 384), (512, 384), (511, 384), (510, 384), (509, 384), (509, 384), (509, 384), (509, 384), (508, 384), (508, 384), (508, 384), (508, 384), (508, 384), (508, 384), (508, 384), (508, 384), (497, 379), (480, 370), (443, 341), (401, 307), (303, 232)]",216.0273733851036,"[3, 9, 1, 8, 5, 7, 4, 2, 6]","(0, 0.25)",DOT004C,DOT,C,Chinese,Mon Oct  8 18:07:57 2018,Mouse
2,3,3,0,64,4,5,0,-667,597,70,140,0,500,200,8000,"[(512, 384), (512, 384), (512, 384), (512, 384), (512, 384), (512, 384), (512, 384), (512, 384), (512, 384), (512, 384), (512, 384), (512, 384), (512, 384), (512, 384), (512, 384), (512, 384), (512, 384), (512, 384), (512, 384), (512, 384), (512, 384), (512, 384), (512, 384), (512, 384), (512, 384), (512, 384), (512, 384), (512, 384), (512, 384), (512, 384), (512, 384), (512, 384), (512, 384), (512, 384), (512, 384), (512, 384), (512, 384), (512, 384), (512, 384), (512, 384), (512, 384), (512, 384), (512, 384), (512, 384), (512, 384), (512, 384), (512, 384), (512, 384), (512, 384), (512, 384), (512, 384), (512, 384), (512, 384), (512, 384), (512, 384), (512, 384), (512, 384), (512, 384), (512, 384), (511, 385), (506, 386), (495, 387), (450, 388), (408, 388), (358, 388), (314, 388), (236, 387)]",179.3772443127937,"[3, 9, 1, 8, 5, 7, 4, 2, 6]","(0, 0.25)",DOT004C,DOT,C,Chinese,Mon Oct  8 18:07:57 2018,Mouse
2,3,3,0,65,6,6,1,978,818,160,141,0,500,200,8000,"[(512, 384), (512, 384), (512, 384), (512, 384), (512, 384), (512, 384), (512, 384), (512, 384), (512, 384), (512, 384), (512, 384), (512, 384), (512, 384), (512, 384), (512, 384), (512, 384), (512, 384), (512, 384), (512, 384), (512, 384), (512, 384), (512, 384), (512, 384), (512, 384), (512, 384), (512, 384), (512, 384), (512, 384), (512, 384), (512, 384), (512, 384), (512, 384), (512, 384), (512, 384), (512, 384), (512, 384), (512, 384), (512, 384), (512, 384), (512, 384), (512, 384), (512, 384), (512, 384), (512, 384), (512, 384), (512, 384), (512, 384), (512, 384), (512, 384), (512, 384), (512, 384), (512, 384), (512, 384), (512, 384), (512, 384), (512, 384), (512, 384), (512, 384), (512, 384), (512, 384), (512, 384), (512, 384), (512, 384), (512, 384), (512, 384), (512, 384), (512, 384), (512, 384), (512, 384), (512, 384), (512, 384), (512, 384), (512, 384), (512, 384), (512, 384), (512, 384), (512, 384), (512, 384), (512, 384), (512, 384), (512, 384), (514, 384), (528, 378), (538, 374), (551, 369), (563, 366), (598, 357), (614, 354), (628, 349), (642, 346), (677, 341), (694, 337), (706, 333), (717, 329), (738, 318), (745, 313), (749, 309), (753, 305)]",341.8508132939545,"[3, 9, 1, 8, 5, 7, 4, 2, 6]","(0, 0.25)",DOT004C,DOT,C,Chinese,Mon Oct  8 18:07:57 2018,Mouse
2,3,3,0,66,1,1,1,257,47,210,141,0,500,200,8000,"[(512, 384), (512, 384), (512, 384), (512, 384), (511, 386), (511, 388), (509, 394), (501, 415), (496, 425), (490, 436), (485, 445), (477, 459), (473, 466), (470, 471), (466, 480), (459, 497), (457, 503), (457, 507), (456, 510), (455, 517), (454, 522), (453, 532), (453, 543), (453, 577), (453, 602), (453, 633)]",103.33026485333698,"[3, 9, 1, 8, 5, 7, 4, 2, 6]","(0, 0.25)",DOT004C,DOT,C,Chinese,Mon Oct  8 18:07:57 2018,Mouse
2,3,3,0,67,6,6,1,878,538,340,140,0,500,200,8000,"[(512, 384), (512, 384), (512, 384), (512, 384), (512, 384), (512, 384), (512, 384), (512, 384), (512, 384), (512, 384), (512, 384), (512, 384), (512, 384), (512, 384), (512, 384), (512, 384), (512, 384), (512, 384), (512, 384), (512, 384), (512, 384), (512, 384), (512, 384), (512, 384), (512, 384), (512, 384), (512, 384), (512, 384), (512, 384), (512, 384), (512, 384), (512, 384), (512, 384), (512, 384), (512, 384), (512, 384), (512, 384), (512, 384), (512, 384), (512, 384), (512, 384), (512, 384), (512, 384), (512, 384), (512, 384), (512, 384), (512, 384), (512, 384), (512, 384), (512, 384), (512, 384), (512, 384), (512, 384), (513, 384), (513, 384), (513, 384), (513, 384), (513, 384), (514, 384), (515, 384), (524, 388), (534, 390), (543, 392), (555, 395), (576, 401), (585, 403), (598, 405), (609, 409), (630, 411), (635, 411), (641, 412), (643, 412), (649, 412), (652, 412), (652, 412), (653, 412), (653, 412), (653, 412), (653, 412), (653, 412), (653, 411), (653, 410), (653, 407), (659, 400), (690, 377), (720, 359), (753, 341), (788, 320)]",346.9447527762034,"[3, 9, 1, 8, 5, 7, 4, 2, 6]","(0, 0.25)",DOT004C,DOT,C,Chinese,Mon Oct  8 18:07:57 2018,Mouse
2,3,3,0,68,7,7,1,839,759,80,139,0,500,200,8000,"[(512, 384), (512, 384), (512, 384), (512, 384), (512, 384), (512, 384), (512, 384), (512, 384), (512, 384), (512, 384), (512, 384), (512, 384), (512, 384), (512, 384), (512, 384), (512, 384), (512, 384), (512, 384), (512, 384), (512, 384), (512, 384), (512, 384), (512, 384), (512, 384), (512, 384), (512, 384), (512, 384), (512, 384), (512, 384), (512, 384), (512, 384), (512, 384), (512, 384), (512, 384), (512, 384), (512, 384), (512, 384), (512, 384), (512, 384), (512, 384), (512, 384), (512, 384), (512, 384), (512, 384), (512, 384), (512, 384), (512, 384), (512, 384), (512, 384), (512, 384), (512, 384), (512, 384), (512, 384), (512, 384), (512, 384), (512, 384), (512, 384), (512, 384), (512, 384), (512, 384), (512, 384), (512, 384), (512, 384), (512, 384), (512, 384), (512, 384), (512, 384), (512, 384), (512, 384), (512, 384), (512, 384), (512, 384), (512, 384), (512, 384), (512, 384), (511, 384), (509, 381), (503, 376), (491, 368), (451, 342), (424, 325), (390, 303), (354, 278), (293, 237)]",213.8708107103888,"[3, 9, 1, 8, 5, 7, 4, 2, 6]","(0, 0.25)",DOT004C,DOT,C,Chinese,Mon Oct  8 18:07:57 2018,Mouse
2,3,3,0,69,4,4,1,829,749,80,138,0,500,200,8000,"[(512, 384), (512, 384), (512, 384), (512, 384), (512, 384), (512, 384), (512, 384), (512, 384), (512, 384), (512, 384), (512, 384), (512, 384), (512, 384), (512, 384), (512, 384), (512, 384), (512, 384), (512, 384), (512, 384), (512, 384), (512, 384), (512, 384), (512, 384), (512, 384), (512, 384), (512, 384), (512, 384), (512, 384), (512, 384), (512, 384), (512, 384), (512, 384), (512, 384), (512, 384), (512, 384), (512, 384), (512, 384), (512, 384), (512, 384), (512, 384), (512, 384), (512, 384), (512, 384), (512, 384), (512, 384), (512, 384), (512, 384), (512, 384), (512, 384), (512, 384), (512, 384), (512, 384), (512, 384), (512, 384), (512, 384), (512, 384), (512, 384), (512, 384), (512, 384), (512, 384), (512, 384), (512, 384), (512, 384), (512, 384), (512, 384), (512, 384), (512, 384), (512, 384), (512, 384), (512, 384), (512, 384), (512, 384), (512, 384), (512, 384), (510, 383), (506, 380), (501, 375), (497, 367), (490, 336), (487, 309), (483, 272), (477, 221), (475, 118)]",262.08109756162276,"[3, 9, 1, 8, 5, 7, 4, 2, 6]","(0, 0.25)",DOT004C,DOT,C,Chinese,Mon Oct  8 18:07:57 2018,Mouse
2,3,3,0,70,9,9,1,358,288,70,137,0,500,200,8000,"[(512, 384), (512, 384), (512, 384), (512, 384), (512, 384), (512, 384), (512, 384), (512, 384), (512, 384), (512, 384), (512, 384), (512, 384), (512, 384), (512, 384), (512, 384), (512, 384), (512, 384), (512, 384), (512, 384), (512, 384), (512, 384), (512, 384), (512, 384), (512, 384), (512, 384), (512, 384), (512, 384), (512, 384), (514, 385), (520, 390), (548, 417), (568, 442), (591, 471), (618, 508), (651, 565), (663, 591)]",53.890423257363885,"[3, 9, 1, 8, 5, 7, 4, 2, 6]","(0, 0.25)",DOT004C,DOT,C,Chinese,Mon Oct  8 18:07:57 2018,Mouse
2,3,3,0,71,2,2,1,378,338,40,136,0,500,200,8000,"[(512, 384), (512, 384), (512, 384), (512, 384), (512, 384), (512, 384), (512, 384), (512, 384), (512, 384), (512, 384), (512, 384), (512, 384), (512, 384), (512, 384), (512, 384), (512, 384), (512, 384), (512, 384), (512, 384), (512, 384), (512, 384), (512, 384), (512, 384), (512, 384), (512, 384), (512, 384), (512, 384), (512, 384), (512, 384), (512, 384), (512, 384), (512, 384), (512, 384), (519, 373), (531, 355), (553, 322), (581, 280), (644, 171)]",301.7872531216648,"[3, 9, 1, 8, 5, 7, 4, 2, 6]","(0, 0.25)",DOT004C,DOT,C,Chinese,Mon Oct  8 18:07:57 2018,Mouse
2,3,3,0,72,4,4,1,1227,787,440,135,0,500,200,8000,"[(512, 384), (512, 384), (512, 384), (512, 384), (512, 384), (512, 384), (512, 384), (512, 384), (512, 384), (512, 384), (512, 384), (512, 384), (512, 384), (512, 384), (512, 384), (512, 384), (512, 384), (512, 384), (512, 384), (512, 384), (512, 384), (512, 384), (512, 384), (512, 384), (512, 384), (512, 384), (512, 384), (512, 384), (512, 384), (512, 384), (512, 384), (512, 384), (512, 384), (512, 384), (512, 384), (512, 384), (512, 384), (512, 384), (512, 384), (512, 384), (512, 384), (512, 384), (512, 384), (512, 384), (512, 384), (512, 384), (512, 384), (512, 384), (512, 384), (512, 384), (512, 384), (512, 384), (512, 384), (512, 384), (512, 384), (512, 384), (512, 384), (512, 384), (512, 384), (512, 384), (512, 384), (512, 384), (512, 384), (512, 384), (512, 384), (512, 384), (512, 384), (512, 384), (512, 384), (512, 384), (512, 384), (512, 384), (512, 384), (512, 384), (512, 384), (512, 384), (512, 384), (512, 384), (507, 384), (504, 383), (500, 383), (492, 383), (480, 383), (476, 383), (474, 384), (472, 384), (469, 385), (469, 385), (468, 385), (468, 385), (468, 385), (468, 385), (468, 385), (468, 385), (468, 385), (468, 385), (468, 385), (468, 385), (468, 385), (468, 385), (468, 385), (468, 385), (468, 385), (468, 385), (468, 385), (468, 385), (468, 385), (468, 385), (468, 385), (468, 385), (468, 385), (468, 385), (468, 385), (468, 385), (468, 385), (468, 385), (468, 385), (467, 381), (467, 355), (464, 324), (462, 279), (458, 222), (444, 115)]",255.8135057064393,"[3, 9, 1, 8, 5, 7, 4, 2, 6]","(0, 0.25)",DOT004C,DOT,C,Chinese,Mon Oct  8 18:07:57 2018,Mouse
2,3,3,0,73,1,9,0,-508,48,460,134,0,500,200,8000,"[(512, 384), (512, 384), (512, 384), (512, 384), (513, 383), (514, 382), (520, 380), (526, 376), (531, 375), (533, 374), (534, 374), (534, 374), (534, 374), (534, 374), (534, 374), (534, 374), (534, 374), (534, 374), (535, 374), (535, 374), (536, 374), (537, 374), (541, 374), (543, 374), (544, 374), (544, 374), (544, 374), (544, 374), (545, 374), (545, 374), (545, 374), (545, 374), (545, 374), (545, 375), (546, 375), (546, 375), (547, 376), (547, 378), (549, 380), (549, 380), (549, 381), (552, 385), (564, 408), (582, 441), (598, 478), (612, 505), (623, 551), (623, 565), (623, 576), (620, 587), (599, 626)]",70.2262791156192,"[3, 9, 1, 8, 5, 7, 4, 2, 6]","(0, 0.25)",DOT004C,DOT,C,Chinese,Mon Oct  8 18:07:57 2018,Mouse
2,3,3,0,74,3,1,0,-269,19,250,135,0,500,200,8000,"[(512, 386), (512, 389), (512, 400), (510, 412), (508, 421), (505, 433), (498, 452), (495, 463), (490, 475), (486, 488), (476, 512), (471, 523), (466, 533), (459, 545), (443, 564), (439, 571), (437, 576), (437, 582), (434, 591), (433, 594), (431, 597), (429, 601), (427, 604), (429, 607), (430, 610), (433, 615), (437, 623)]",107.42225010950858,"[3, 9, 1, 8, 5, 7, 4, 2, 6]","(0, 0.25)",DOT004C,DOT,C,Chinese,Mon Oct  8 18:07:57 2018,Mouse
2,3,3,0,75,6,6,1,1127,1047,80,136,0,500,200,8000,"[(512, 384), (512, 384), (512, 384), (512, 384), (512, 384), (512, 384), (512, 384), (512, 384), (512, 384), (512, 384), (512, 384), (512, 384), (512, 384), (512, 384), (512, 384), (512, 384), (512, 384), (512, 384), (512, 384), (512, 384), (512, 384), (512, 384), (512, 384), (512, 384), (512, 384), (512, 384), (512, 384), (512, 384), (512, 384), (512, 384), (512, 384), (512, 384), (512, 384), (512, 384), (512, 384), (512, 384), (512, 384), (512, 384), (512, 384), (512, 384), (512, 384), (512, 384), (512, 384), (512, 384), (512, 384), (512, 384), (512, 384), (512, 384), (512, 384), (512, 384), (512, 384), (512, 384), (512, 384), (512, 384), (512, 384), (512, 384), (512, 384), (512, 384), (512, 384), (512, 384), (512, 384), (512, 384), (512, 384), (512, 384), (512, 384), (512, 384), (512, 384), (512, 384), (512, 384), (512, 384), (512, 384), (512, 384), (512, 384), (512, 384), (512, 384), (512, 384), (512, 384), (512, 384), (512, 384), (512, 384), (512, 384), (512, 384), (512, 384), (512, 384), (512, 384), (512, 384), (512, 384), (512, 384), (512, 384), (512, 384), (512, 384), (512, 384), (512, 384), (512, 384), (512, 384), (512, 384), (512, 384), (512, 384), (512, 384), (512, 384), (512, 384), (512, 384), (512, 384), (512, 384), (513, 383), (521, 380), (548, 368), (567, 360), (588, 349), (615, 334), (689, 292), (732, 269), (776, 243)]",331.89373017919814,"[3, 9, 1, 8, 5, 7, 4, 2, 6]","(0, 0.25)",DOT004C,DOT,C,Chinese,Mon Oct  8 18:07:57 2018,Mouse
2,3,3,0,76,7,1,0,-478,328,150,136,0,500,200,8000,"[(512, 384), (512, 384), (512, 384), (512, 384), (512, 384), (512, 384), (512, 384), (512, 384), (512, 384), (512, 384), (512, 384), (512, 384), (512, 384), (512, 384), (512, 384), (512, 384), (512, 384), (512, 384), (512, 384), (512, 384), (512, 384), (512, 384), (512, 384), (512, 384), (512, 384), (512, 384), (512, 384), (512, 384), (512, 384), (512, 384), (512, 384), (512, 384), (512, 385), (517, 387), (521, 389), (523, 391), (525, 404), (528, 409), (529, 413), (530, 416), (535, 426), (536, 439), (537, 454), (537, 470), (520, 521), (499, 559), (475, 605), (453, 639)]",103.02743224051227,"[3, 9, 1, 8, 5, 7, 4, 2, 6]","(0, 0.25)",DOT004C,DOT,C,Chinese,Mon Oct  8 18:07:57 2018,Mouse
2,3,3,0,77,7,5,0,-567,477,90,137,0,500,200,8000,"[(512, 384), (512, 384), (512, 384), (512, 384), (512, 384), (512, 384), (512, 384), (512, 384), (512, 384), (512, 384), (512, 384), (512, 384), (512, 384), (512, 384), (512, 384), (512, 384), (512, 384), (512, 384), (512, 384), (512, 384), (512, 384), (512, 384), (512, 384), (512, 384), (512, 384), (512, 384), (512, 384), (512, 384), (512, 384), (512, 384), (512, 384), (512, 384), (512, 384), (512, 384), (512, 384), (512, 384), (512, 384), (512, 384), (512, 384), (512, 384), (512, 384), (512, 384), (512, 384), (512, 384), (512, 384), (512, 384), (512, 384), (511, 384), (508, 384), (505, 385), (496, 388), (468, 391), (451, 391), (423, 390), (395, 390), (302, 384), (254, 381)]",180.66619997018313,"[3, 9, 1, 8, 5, 7, 4, 2, 6]","(0, 0.25)",DOT004C,DOT,C,Chinese,Mon Oct  8 18:07:57 2018,Mouse
2,3,3,0,78,2,2,1,296,216,80,138,0,500,200,8000,"[(512, 384), (512, 384), (512, 384), (512, 384), (512, 384), (512, 384), (512, 384), (512, 384), (512, 384), (512, 384), (512, 384), (512, 384), (512, 384), (512, 384), (512, 384), (512, 384), (512, 384), (512, 384), (512, 384), (512, 384), (512, 384), (515, 379), (519, 371), (523, 359), (530, 342), (556, 291), (578, 258), (605, 224), (636, 185), (704, 107)]",304.72740861105774,"[3, 9, 1, 8, 5, 7, 4, 2, 6]","(0, 0.25)",DOT004C,DOT,C,Chinese,Mon Oct  8 18:07:57 2018,Mouse
2,3,3,0,79,5,5,1,548,208,340,138,0,500,200,8000,"[(512, 384), (512, 384), (512, 384), (512, 384), (512, 384), (512, 384), (512, 384), (512, 384), (512, 384), (512, 384), (512, 384), (512, 384), (512, 384), (512, 384), (512, 384), (512, 384), (512, 384), (512, 384), (512, 384), (512, 384), (511, 384), (510, 384), (509, 384), (509, 384), (508, 383), (508, 383), (508, 383), (508, 383), (508, 383), (508, 383), (508, 383), (508, 383), (508, 383), (507, 383), (507, 383), (507, 383), (507, 383), (507, 383), (507, 383), (507, 383), (507, 383), (506, 383), (505, 382), (505, 382), (504, 382), (503, 382), (497, 383), (489, 386), (476, 389), (457, 392), (398, 392), (362, 392), (325, 389), (281, 389), (204, 382)]",180.3720452872033,"[3, 9, 1, 8, 5, 7, 4, 2, 6]","(0, 0.25)",DOT004C,DOT,C,Chinese,Mon Oct  8 18:07:57 2018,Mouse
2,3,3,0,80,7,5,0,-309,229,80,137,0,500,200,8000,"[(512, 384), (512, 384), (512, 384), (512, 384), (512, 384), (512, 384), (512, 384), (512, 384), (512, 384), (512, 384), (512, 384), (512, 384), (512, 384), (512, 384), (512, 384), (512, 384), (512, 384), (512, 384), (512, 384), (512, 384), (512, 384), (512, 384), (495, 386), (480, 386), (457, 385), (435, 380), (375, 367), (350, 361), (325, 354), (304, 352), (264, 352)]",187.35237935989235,"[3, 9, 1, 8, 5, 7, 4, 2, 6]","(0, 0.25)",DOT004C,DOT,C,Chinese,Mon Oct  8 18:07:57 2018,Mouse
2,3,3,0,81,5,5,1,1107,1007,100,138,0,500,200,8000,"[(512, 384), (512, 384), (512, 384), (512, 384), (512, 384), (512, 384), (512, 384), (512, 384), (512, 384), (512, 384), (512, 384), (512, 384), (512, 384), (512, 384), (512, 384), (512, 384), (512, 384), (512, 384), (512, 384), (512, 384), (512, 384), (512, 384), (512, 384), (512, 384), (512, 384), (512, 384), (512, 384), (512, 384), (512, 384), (512, 384), (512, 384), (512, 384), (512, 384), (512, 384), (512, 384), (512, 384), (512, 384), (512, 384), (512, 384), (512, 384), (512, 384), (512, 384), (512, 384), (512, 384), (512, 384), (512, 384), (512, 384), (512, 384), (512, 384), (512, 384), (512, 384), (512, 384), (512, 384), (512, 384), (512, 384), (512, 384), (512, 384), (512, 384), (512, 384), (512, 384), (512, 384), (512, 384), (512, 384), (512, 384), (512, 384), (512, 384), (512, 384), (512, 384), (512, 384), (512, 384), (512, 384), (512, 384), (512, 384), (512, 384), (512, 384), (512, 384), (512, 384), (512, 384), (512, 384), (512, 384), (512, 384), (512, 384), (512, 384), (512, 384), (512, 384), (512, 384), (512, 384), (512, 384), (512, 384), (512, 384), (512, 384), (512, 384), (512, 384), (512, 384), (512, 384), (512, 384), (512, 384), (512, 384), (512, 384), (512, 384), (510, 384), (505, 384), (471, 384), (448, 382), (422, 377), (399, 377), (367, 380), (339, 380), (319, 380), (293, 381), (243, 383)]",180.2129944817114,"[3, 9, 1, 8, 5, 7, 4, 2, 6]","(0, 0.25)",DOT004C,DOT,C,Chinese,Mon Oct  8 18:07:57 2018,Mouse
2,3,3,0,82,2,2,1,308,248,60,138,0,500,200,8000,"[(512, 384), (512, 384), (512, 384), (512, 384), (512, 384), (512, 384), (512, 384), (512, 384), (512, 384), (512, 384), (512, 384), (512, 384), (512, 384), (512, 384), (512, 384), (512, 384), (512, 384), (512, 384), (512, 384), (512, 384), (512, 384), (512, 384), (512, 384), (512, 384), (513, 383), (517, 376), (535, 344), (555, 311), (576, 270), (599, 229), (651, 147)]",300.39153306607113,"[3, 9, 1, 8, 5, 7, 4, 2, 6]","(0, 0.25)",DOT004C,DOT,C,Chinese,Mon Oct  8 18:07:57 2018,Mouse
2,3,3,0,83,4,4,1,561,341,220,137,0,500,200,8000,"[(512, 384), (512, 384), (512, 384), (512, 384), (512, 384), (512, 384), (512, 384), (512, 384), (512, 384), (512, 384), (512, 384), (512, 384), (512, 384), (512, 384), (512, 384), (512, 384), (512, 384), (512, 384), (512, 384), (512, 384), (512, 384), (512, 384), (512, 384), (512, 384), (512, 384), (512, 384), (512, 384), (512, 384), (512, 384), (512, 384), (512, 384), (512, 384), (512, 384), (512, 384), (511, 384), (509, 383), (509, 383), (508, 383), (508, 383), (508, 383), (508, 383), (508, 383), (508, 383), (508, 383), (508, 383), (508, 383), (508, 383), (507, 383), (506, 383), (506, 383), (506, 382), (497, 368), (484, 346), (469, 309), (449, 264), (413, 160), (402, 119)]",247.4569389999421,"[3, 9, 1, 8, 5, 7, 4, 2, 6]","(0, 0.25)",DOT004C,DOT,C,Chinese,Mon Oct  8 18:07:57 2018,Mouse
2,3,3,0,84,5,1,0,-296,196,100,136,0,500,200,8000,"[(512, 384), (512, 384), (512, 384), (512, 384), (512, 384), (512, 384), (512, 384), (512, 384), (512, 384), (512, 384), (512, 384), (512, 384), (512, 384), (512, 384), (512, 384), (512, 384), (512, 384), (512, 384), (512, 384), (514, 385), (518, 387), (523, 394), (525, 399), (526, 411), (530, 425), (535, 475), (537, 504), (536, 535), (531, 570), (516, 636)]",89.09061955080087,"[3, 9, 1, 8, 5, 7, 4, 2, 6]","(0, 0.25)",DOT004C,DOT,C,Chinese,Mon Oct  8 18:07:57 2018,Mouse
2,3,3,0,85,6,6,1,738,678,60,137,0,500,200,8000,"[(512, 384), (512, 384), (512, 384), (512, 384), (512, 384), (512, 384), (512, 384), (512, 384), (512, 384), (512, 384), (512, 384), (512, 384), (512, 384), (512, 384), (512, 384), (512, 384), (512, 384), (512, 384), (512, 384), (512, 384), (512, 384), (512, 384), (512, 384), (512, 384), (512, 384), (512, 384), (512, 384), (512, 384), (512, 384), (512, 384), (512, 384), (512, 384), (512, 384), (512, 384), (512, 384), (512, 384), (512, 384), (512, 384), (512, 384), (512, 384), (512, 384), (512, 384), (512, 384), (512, 384), (512, 384), (512, 384), (512, 384), (512, 384), (512, 384), (512, 384), (512, 384), (512, 384), (512, 384), (512, 384), (512, 384), (512, 384), (512, 384), (512, 384), (512, 384), (512, 384), (512, 384), (512, 384), (512, 384), (512, 384), (512, 384), (512, 384), (512, 384), (515, 384), (526, 384), (550, 381), (621, 365), (671, 351), (716, 332), (756, 315)]",344.2097927215063,"[3, 9, 1, 8, 5, 7, 4, 2, 6]","(0, 0.25)",DOT004C,DOT,C,Chinese,Mon Oct  8 18:07:57 2018,Mouse
2,3,3,0,86,5,5,1,558,488,70,137,0,500,200,8000,"[(512, 384), (512, 384), (512, 384), (512, 384), (512, 384), (512, 384), (512, 384), (512, 384), (512, 384), (512, 384), (512, 384), (512, 384), (512, 384), (512, 384), (512, 384), (512, 384), (512, 384), (512, 384), (512, 384), (512, 384), (512, 384), (512, 384), (512, 384), (512, 384), (512, 384), (512, 384), (512, 384), (512, 384), (512, 384), (512, 384), (512, 384), (512, 384), (512, 384), (512, 384), (512, 384), (512, 384), (512, 384), (512, 384), (512, 384), (512, 384), (512, 384), (512, 384), (512, 384), (512, 384), (512, 384), (512, 384), (512, 384), (512, 384), (505, 386), (496, 386), (482, 389), (435, 399), (404, 399), (371, 399), (326, 401), (242, 401)]",176.39724377789562,"[3, 9, 1, 8, 5, 7, 4, 2, 6]","(0, 0.25)",DOT004C,DOT,C,Chinese,Mon Oct  8 18:07:57 2018,Mouse
2,3,3,0,87,2,2,1,868,218,650,136,0,500,200,8000,"[(512, 384), (512, 384), (512, 384), (512, 384), (512, 384), (512, 384), (512, 384), (512, 384), (512, 384), (512, 384), (512, 384), (512, 384), (512, 384), (512, 384), (512, 384), (512, 384), (512, 384), (512, 384), (512, 384), (512, 384), (512, 384), (513, 384), (513, 384), (514, 384), (514, 384), (514, 384), (514, 384), (514, 384), (514, 384), (514, 384), (514, 384), (514, 384), (514, 384), (514, 384), (514, 384), (514, 384), (514, 384), (513, 384), (510, 383), (509, 381), (507, 379), (507, 378), (506, 375), (504, 372), (503, 370), (503, 369), (503, 368), (502, 368), (502, 368), (502, 368), (502, 368), (502, 368), (502, 368), (502, 368), (502, 368), (502, 368), (502, 368), (502, 368), (502, 368), (501, 364), (496, 344), (491, 309), (473, 243), (465, 215), (458, 192), (454, 176), (451, 161), (451, 160), (451, 160), (451, 160), (451, 160), (451, 160), (453, 161), (458, 163), (474, 175), (483, 181), (494, 189), (503, 194), (523, 204), (532, 208), (539, 209), (543, 209), (549, 207), (553, 200), (561, 188), (569, 172), (586, 130)]",286.2428791026976,"[3, 9, 1, 8, 5, 7, 4, 2, 6]","(0, 0.25)",DOT004C,DOT,C,Chinese,Mon Oct  8 18:07:57 2018,Mouse
2,3,3,0,88,6,6,1,426,16,410,135,0,500,200,8000,"[(512, 385), (512, 387), (512, 396), (512, 400), (512, 405), (516, 411), (519, 418), (520, 421), (522, 425), (523, 427), (525, 430), (525, 431), (525, 432), (525, 432), (525, 432), (525, 432), (525, 432), (525, 432), (525, 432), (525, 432), (525, 432), (525, 433), (525, 433), (525, 434), (525, 435), (525, 435), (526, 438), (527, 441), (527, 443), (528, 444), (529, 445), (529, 445), (531, 445), (534, 443), (547, 434), (556, 425), (566, 411), (579, 391), (614, 358), (638, 343), (665, 332), (698, 323), (784, 312)]",345.17352002964435,"[3, 9, 1, 8, 5, 7, 4, 2, 6]","(0, 0.25)",DOT004C,DOT,C,Chinese,Mon Oct  8 18:07:57 2018,Mouse
2,3,3,0,89,9,9,1,538,448,90,134,0,500,200,8000,"[(512, 384), (512, 384), (512, 384), (512, 384), (512, 384), (512, 384), (512, 384), (512, 384), (512, 384), (512, 384), (512, 384), (512, 384), (512, 384), (512, 384), (512, 384), (512, 384), (512, 384), (512, 384), (512, 384), (512, 384), (512, 384), (512, 384), (512, 384), (512, 384), (512, 384), (512, 384), (512, 384), (512, 384), (512, 384), (512, 384), (512, 384), (512, 384), (512, 384), (512, 384), (512, 384), (512, 384), (512, 384), (512, 384), (512, 384), (512, 384), (512, 384), (512, 384), (512, 384), (512, 384), (515, 386), (538, 395), (557, 405), (587, 425), (610, 443), (646, 478), (662, 501), (678, 523), (694, 553), (721, 609)]",47.111330625576024,"[3, 9, 1, 8, 5, 7, 4, 2, 6]","(0, 0.25)",DOT004C,DOT,C,Chinese,Mon Oct  8 18:07:57 2018,Mouse
2,3,3,0,90,1,1,1,317,207,110,133,0,500,200,8000,"[(512, 384), (512, 384), (512, 384), (512, 384), (512, 384), (512, 384), (512, 384), (512, 384), (512, 384), (512, 384), (512, 384), (512, 384), (512, 384), (512, 384), (512, 384), (512, 384), (512, 384), (512, 384), (512, 384), (512, 384), (512, 386), (511, 388), (509, 392), (498, 421), (491, 434), (484, 447), (474, 464), (453, 508), (448, 538), (448, 574), (446, 619), (442, 701)]",102.45223471162254,"[3, 9, 1, 8, 5, 7, 4, 2, 6]","(0, 0.25)",DOT004C,DOT,C,Chinese,Mon Oct  8 18:07:57 2018,Mouse
2,3,3,0,91,9,6,0,-678,258,420,132,0,500,200,8000,"[(512, 384), (512, 384), (512, 384), (512, 384), (512, 384), (512, 384), (512, 384), (512, 384), (512, 384), (512, 384), (512, 384), (512, 384), (512, 384), (512, 384), (512, 384), (512, 384), (512, 384), (512, 384), (512, 384), (512, 384), (512, 384), (512, 384), (512, 384), (512, 384), (512, 384), (511, 384), (510, 384), (510, 384), (508, 383), (507, 382), (506, 382), (505, 382), (505, 382), (505, 382), (503, 381), (502, 381), (500, 381), (499, 380), (495, 378), (494, 377), (492, 375), (492, 374), (489, 365), (488, 362), (487, 356), (486, 352), (485, 343), (485, 342), (485, 342), (485, 342), (485, 342), (485, 342), (485, 342), (485, 342), (485, 342), (485, 342), (485, 342), (485, 342), (485, 342), (485, 341), (493, 341), (506, 341), (554, 341), (590, 342), (624, 341), (662, 334), (737, 300), (773, 273)]",336.96056402009646,"[3, 9, 1, 8, 5, 7, 4, 2, 6]","(0, 0.25)",DOT004C,DOT,C,Chinese,Mon Oct  8 18:07:57 2018,Mouse
2,3,3,0,92,8,4,0,-1078,728,350,133,0,500,200,8000,"[(512, 384), (512, 384), (512, 384), (512, 384), (512, 384), (512, 384), (512, 384), (512, 384), (512, 384), (512, 384), (512, 384), (512, 384), (512, 384), (512, 384), (512, 384), (512, 384), (512, 384), (512, 384), (512, 384), (512, 384), (512, 384), (512, 384), (512, 384), (512, 384), (512, 384), (512, 384), (512, 384), (512, 384), (512, 384), (512, 384), (512, 384), (512, 384), (512, 384), (512, 384), (512, 384), (512, 384), (512, 384), (512, 384), (512, 384), (512, 384), (512, 384), (512, 384), (512, 384), (512, 384), (512, 384), (512, 384), (512, 384), (512, 384), (512, 384), (512, 384), (512, 384), (512, 384), (512, 384), (512, 384), (512, 384), (512, 384), (512, 384), (512, 384), (512, 384), (512, 384), (512, 384), (512, 384), (512, 384), (512, 384), (512, 384), (512, 384), (512, 384), (512, 384), (512, 384), (512, 384), (512, 384), (512, 384), (511, 384), (510, 384), (510, 384), (510, 384), (509, 384), (509, 383), (508, 383), (508, 383), (508, 383), (508, 383), (508, 383), (508, 383), (508, 383), (508, 383), (508, 383), (508, 382), (508, 382), (507, 382), (507, 382), (507, 381), (506, 381), (505, 380), (505, 379), (504, 379), (504, 378), (503, 378), (503, 378), (503, 376), (500, 376), (498, 373), (495, 367), (486, 352), (472, 320), (438, 219), (424, 170), (411, 128)]",248.46921633956148,"[3, 9, 1, 8, 5, 7, 4, 2, 6]","(0, 0.25)",DOT004C,DOT,C,Chinese,Mon Oct  8 18:07:57 2018,Mouse
2,3,3,0,93,6,4,0,-279,219,60,134,0,500,200,8000,"[(512, 384), (512, 384), (512, 384), (512, 384), (512, 384), (512, 384), (512, 384), (512, 384), (512, 384), (512, 384), (512, 384), (512, 384), (512, 384), (512, 384), (512, 384), (512, 384), (512, 384), (512, 384), (512, 384), (512, 384), (512, 384), (512, 381), (513, 373), (515, 356), (517, 275), (517, 222), (519, 172), (521, 127)]",272.0056473713886,"[3, 9, 1, 8, 5, 7, 4, 2, 6]","(0, 0.25)",DOT004C,DOT,C,Chinese,Mon Oct  8 18:07:57 2018,Mouse
2,3,3,0,94,2,2,1,318,238,80,135,0,500,200,8000,"[(512, 384), (512, 384), (512, 384), (512, 384), (512, 384), (512, 384), (512, 384), (512, 384), (512, 384), (512, 384), (512, 384), (512, 384), (512, 384), (512, 384), (512, 384), (512, 384), (512, 384), (512, 384), (512, 384), (512, 384), (512, 384), (512, 384), (512, 384), (513, 382), (514, 382), (514, 381), (515, 378), (527, 356), (540, 329), (558, 294), (584, 255), (655, 168)]",303.50603460582056,"[3, 9, 1, 8, 5, 7, 4, 2, 6]","(0, 0.25)",DOT004C,DOT,C,Chinese,Mon Oct  8 18:07:57 2018,Mouse
2,3,3,0,95,7,7,1,858,388,470,135,0,500,200,8000,"[(512, 384), (512, 384), (512, 384), (512, 384), (512, 384), (512, 384), (512, 384), (512, 384), (512, 384), (512, 384), (512, 384), (512, 384), (512, 384), (512, 384), (512, 384), (512, 384), (512, 384), (512, 384), (512, 384), (512, 384), (512, 384), (512, 384), (512, 384), (512, 384), (512, 384), (512, 384), (512, 384), (512, 384), (512, 384), (512, 384), (512, 384), (512, 384), (512, 384), (512, 384), (512, 384), (512, 384), (512, 384), (512, 384), (510, 384), (508, 384), (503, 385), (489, 388), (481, 388), (473, 389), (462, 389), (448, 389), (442, 390), (439, 390), (437, 390), (437, 390), (437, 390), (437, 390), (436, 390), (436, 390), (436, 390), (436, 390), (436, 390), (436, 390), (436, 390), (436, 391), (437, 391), (437, 391), (437, 391), (437, 391), (438, 391), (438, 391), (438, 391), (438, 391), (438, 391), (438, 391), (438, 391), (438, 391), (438, 391), (437, 391), (433, 390), (428, 388), (417, 381), (393, 366), (380, 358), (367, 348), (353, 336), (323, 311), (312, 302), (302, 293), (292, 284), (274, 268)]",205.9843705911853,"[3, 9, 1, 8, 5, 7, 4, 2, 6]","(0, 0.25)",DOT004C,DOT,C,Chinese,Mon Oct  8 18:07:57 2018,Mouse
2,3,3,0,96,1,8,0,-517,417,100,134,0,500,200,8000,"[(512, 384), (512, 384), (512, 384), (512, 384), (512, 384), (512, 384), (512, 384), (512, 384), (512, 384), (512, 384), (512, 384), (512, 384), (512, 384), (512, 384), (512, 384), (512, 384), (512, 384), (512, 384), (512, 384), (512, 384), (512, 384), (512, 384), (512, 384), (512, 384), (512, 384), (512, 384), (512, 384), (512, 384), (512, 384), (512, 384), (512, 384), (512, 384), (512, 384), (512, 384), (512, 384), (512, 384), (512, 384), (512, 384), (512, 384), (512, 384), (512, 384), (512, 386), (512, 388), (509, 395), (503, 405), (496, 418), (485, 435), (454, 479), (435, 507), (417, 533), (393, 564), (354, 615)]",124.37145200631375,"[3, 9, 1, 8, 5, 7, 4, 2, 6]","(0, 0.25)",DOT004C,DOT,C,Chinese,Mon Oct  8 18:07:57 2018,Mouse
2,3,3,0,97,9,5,0,-349,249,100,135,0,500,200,8000,"[(512, 384), (512, 384), (512, 384), (512, 384), (512, 384), (512, 384), (512, 384), (512, 384), (512, 384), (512, 384), (512, 384), (512, 384), (512, 384), (512, 384), (512, 384), (512, 384), (512, 384), (512, 384), (512, 384), (512, 384), (512, 384), (512, 384), (512, 384), (512, 384), (506, 382), (502, 381), (483, 378), (474, 377), (458, 375), (443, 374), (398, 368), (366, 363), (331, 358), (297, 354), (237, 350)]",187.0480748828248,"[3, 9, 1, 8, 5, 7, 4, 2, 6]","(0, 0.25)",DOT004C,DOT,C,Chinese,Mon Oct  8 18:07:57 2018,Mouse
2,3,3,0,98,8,8,1,777,357,420,136,0,500,200,8000,"[(512, 384), (512, 384), (512, 384), (512, 384), (512, 384), (512, 384), (512, 384), (512, 384), (512, 384), (512, 384), (512, 384), (512, 384), (512, 384), (512, 384), (512, 384), (512, 384), (512, 384), (512, 384), (512, 384), (512, 384), (512, 384), (512, 384), (512, 384), (512, 384), (512, 384), (512, 384), (512, 384), (512, 384), (512, 384), (512, 384), (512, 384), (512, 384), (512, 384), (512, 384), (512, 384), (512, 385), (514, 388), (515, 388), (517, 392), (519, 393), (519, 393), (519, 394), (520, 394), (520, 394), (520, 394), (520, 394), (520, 394), (520, 394), (520, 394), (520, 394), (520, 394), (520, 394), (520, 394), (520, 394), (520, 394), (518, 394), (518, 394), (517, 394), (515, 395), (515, 396), (515, 396), (515, 397), (513, 400), (511, 402), (508, 408), (502, 417), (491, 432), (487, 437), (483, 443), (480, 447), (468, 458), (458, 466), (446, 476), (429, 489), (389, 518), (368, 535), (346, 550), (325, 560)]",136.7357045889284,"[3, 9, 1, 8, 5, 7, 4, 2, 6]","(0, 0.25)",DOT004C,DOT,C,Chinese,Mon Oct  8 18:07:57 2018,Mouse
2,3,3,0,99,9,9,1,429,319,110,136,0,500,200,8000,"[(512, 384), (512, 384), (512, 384), (512, 384), (512, 384), (512, 384), (512, 384), (512, 384), (512, 384), (512, 384), (512, 384), (512, 384), (512, 384), (512, 384), (512, 384), (512, 384), (512, 384), (512, 384), (512, 384), (512, 384), (512, 384), (512, 384), (512, 384), (512, 384), (512, 384), (512, 384), (512, 384), (512, 384), (512, 384), (512, 384), (512, 384), (513, 387), (520, 392), (528, 396), (538, 403), (559, 414), (569, 426), (587, 447), (605, 470), (642, 521), (656, 548), (663, 573), (666, 597)]",54.132894111623195,"[3, 9, 1, 8, 5, 7, 4, 2, 6]","(0, 0.25)",DOT004C,DOT,C,Chinese,Mon Oct  8 18:07:57 2018,Mouse
2,3,3,0,100,9,9,1,257,167,90,135,0,500,200,8000,"[(512, 384), (512, 384), (512, 384), (512, 384), (512, 384), (512, 384), (512, 384), (512, 384), (512, 384), (512, 384), (512, 384), (512, 384), (512, 384), (512, 384), (512, 384), (512, 384), (514, 389), (521, 398), (537, 424), (549, 455), (559, 483), (567, 514), (573, 539), (584, 588), (592, 613), (598, 633)]",70.94603322745611,"[3, 9, 1, 8, 5, 7, 4, 2, 6]","(0, 0.25)",DOT004C,DOT,C,Chinese,Mon Oct  8 18:07:57 2018,Mouse
2,3,3,0,101,3,2,0,-518,358,160,134,0,500,200,8000,"[(512, 384), (512, 384), (512, 384), (512, 384), (512, 384), (512, 384), (512, 384), (512, 384), (512, 384), (512, 384), (512, 384), (512, 384), (512, 384), (512, 384), (512, 384), (512, 384), (512, 384), (512, 384), (512, 384), (512, 384), (512, 384), (512, 384), (512, 384), (512, 384), (512, 384), (512, 384), (512, 384), (512, 384), (512, 384), (512, 384), (512, 384), (512, 384), (512, 384), (512, 384), (512, 384), (512, 383), (512, 382), (512, 381), (512, 381), (511, 380), (511, 378), (511, 376), (511, 371), (513, 363), (515, 355), (517, 348), (520, 340), (527, 313), (533, 288), (539, 250), (546, 210), (572, 113)]",282.48402789840736,"[3, 9, 1, 8, 5, 7, 4, 2, 6]","(0, 0.25)",DOT004C,DOT,C,Chinese,Mon Oct  8 18:07:57 2018,Mouse
2,3,3,0,102,8,4,0,-678,198,480,135,0,500,200,8000,"[(512, 384), (512, 384), (512, 384), (512, 384), (512, 384), (512, 384), (512, 384), (512, 384), (512, 384), (512, 384), (512, 384), (512, 384), (512, 384), (512, 384), (512, 384), (512, 384), (512, 384), (512, 384), (512, 384), (510, 384), (510, 384), (510, 384), (509, 384), (509, 384), (509, 384), (509, 384), (508, 383), (507, 383), (507, 383), (505, 383), (505, 382), (504, 382), (504, 382), (504, 382), (504, 382), (504, 382), (504, 382), (504, 382), (504, 382), (504, 382), (504, 382), (504, 382), (504, 382), (504, 382), (504, 382), (504, 382), (504, 382), (503, 382), (503, 382), (503, 382), (503, 382), (503, 382), (503, 382), (503, 382), (503, 382), (503, 382), (503, 382), (503, 382), (503, 382), (503, 382), (503, 382), (502, 378), (495, 359), (487, 343), (474, 316), (455, 281), (418, 195), (405, 153)]",245.1462644468392,"[3, 9, 1, 8, 5, 7, 4, 2, 6]","(0, 0.25)",DOT004C,DOT,C,Chinese,Mon Oct  8 18:07:57 2018,Mouse
2,3,3,0,103,4,4,1,237,17,220,136,0,500,200,8000,"[(512, 384), (511, 384), (511, 384), (511, 384), (511, 384), (511, 384), (511, 383), (511, 382), (511, 381), (511, 379), (509, 374), (507, 368), (503, 358), (499, 346), (489, 322), (484, 310), (481, 298), (477, 285), (471, 257), (469, 236), (464, 215), (461, 191), (458, 145), (458, 128)]",258.0887845680284,"[3, 9, 1, 8, 5, 7, 4, 2, 6]","(0, 0.25)",DOT004C,DOT,C,Chinese,Mon Oct  8 18:07:57 2018,Mouse
2,3,3,0,104,2,2,1,378,258,120,136,0,500,200,8000,"[(512, 384), (512, 384), (512, 384), (512, 384), (512, 384), (512, 384), (512, 384), (512, 384), (512, 384), (512, 384), (512, 384), (512, 384), (512, 384), (512, 384), (512, 384), (512, 384), (512, 384), (512, 384), (512, 384), (512, 384), (512, 384), (512, 384), (512, 384), (512, 384), (512, 384), (511, 384), (511, 384), (511, 384), (511, 384), (511, 379), (515, 376), (518, 370), (522, 360), (543, 320), (562, 283), (584, 247), (605, 211), (650, 159)]",301.5221772467587,"[3, 9, 1, 8, 5, 7, 4, 2, 6]","(0, 0.25)",DOT004C,DOT,C,Chinese,Mon Oct  8 18:07:57 2018,Mouse
