NativeLangNumber,LanuageNumber,SessionNumber,Block,TrialNum,ConditionNumber,Response,Accuracy,RT,MovementOnsetTime,TimeInMotion,SignalContrast,SignalContrastNumber,StimDisplayTime,MaskTime,MaxResponseTime,MousePositionXY,MouseAngle,WheelOrder,NoiseMuSigma,ParticipantID,LanuageTested,SessionTested,NativeLanuage,Date,ResponseDevice
1,3,3,0,1,9,9,1,533,13,520,153,0,500,200,8000,"[(960, 540), (961, 544), (962, 545), (963, 546), (964, 547), (964, 548), (965, 548), (965, 549), (967, 551), (967, 553), (969, 557), (972, 562), (974, 569), (983, 592), (988, 607), (992, 623), (997, 643), (1011, 681), (1018, 701), (1031, 725), (1042, 746), (1069, 793), (1081, 812), (1088, 825), (1095, 835), (1105, 851), (1108, 859), (1110, 862), (1112, 867), (1114, 871), (1115, 873), (1116, 873), (1116, 873), (1116, 873), (1116, 873), (1117, 874), (1118, 874), (1122, 854), (1124, 836), (1124, 817), (1124, 789), (1124, 752), (1124, 739), (1124, 729), (1124, 718), (1124, 700), (1123, 693), (1122, 686), (1120, 682), (1120, 680), (1120, 680), (1120, 687), (1120, 738), (1151, 948)]",64.91395515201431,"[2, 9, 7, 8, 1, 5, 4, 3, 6]","(0, 0.25)",DOT002C,DOT,C,English,Thu Aug 09 15:02:45 2018,Mouse
1,3,3,0,2,6,6,1,1239,839,400,153,0,500,200,8000,"[(960, 540), (960, 540), (960, 540), (960, 540), (960, 540), (960, 540), (960, 540), (960, 540), (960, 540), (960, 540), (960, 540), (960, 540), (960, 540), (960, 540), (960, 540), (960, 540), (960, 540), (960, 540), (960, 540), (960, 540), (960, 540), (960, 540), (960, 540), (960, 540), (960, 540), (960, 540), (960, 540), (960, 540), (960, 540), (960, 540), (960, 540), (960, 540), (960, 540), (960, 540), (960, 540), (960, 540), (960, 540), (960, 540), (960, 540), (960, 540), (960, 540), (960, 540), (960, 540), (960, 540), (960, 540), (960, 540), (960, 540), (960, 540), (960, 540), (960, 540), (960, 540), (960, 540), (960, 540), (960, 540), (960, 540), (960, 540), (960, 540), (960, 540), (960, 540), (960, 540), (960, 540), (960, 540), (960, 540), (960, 540), (960, 540), (960, 540), (960, 540), (960, 540), (960, 540), (960, 540), (960, 540), (960, 540), (960, 540), (960, 540), (960, 540), (960, 540), (960, 540), (960, 540), (960, 540), (960, 540), (960, 540), (960, 540), (960, 540), (960, 541), (960, 542), (960, 542), (960, 542), (960, 542), (960, 542), (960, 542), (960, 542), (960, 542), (960, 542), (960, 542), (960, 542), (960, 542), (960, 542), (960, 542), (960, 542), (960, 542), (960, 542), (960, 542), (960, 542), (960, 542), (960, 542), (962, 542), (964, 542), (965, 542), (966, 542), (967, 542), (970, 541), (972, 540), (972, 540), (975, 540), (986, 536), (993, 532), (1005, 526), (1018, 518), (1056, 496), (1086, 478), (1130, 452), (1181, 432), (1305, 396), (1369, 375)]",338.02971923144446,"[2, 9, 7, 8, 1, 5, 4, 3, 6]","(0, 0.25)",DOT002C,DOT,C,English,Thu Aug 09 15:02:45 2018,Mouse
1,3,3,0,3,1,1,1,339,279,60,152,0,500,200,8000,"[(960, 540), (960, 540), (960, 540), (960, 540), (960, 540), (960, 540), (960, 540), (960, 540), (960, 540), (960, 540), (960, 540), (960, 540), (960, 540), (960, 540), (960, 540), (960, 540), (960, 540), (960, 540), (960, 540), (960, 540), (960, 540), (960, 540), (960, 540), (960, 540), (960, 540), (960, 540), (960, 540), (952, 542), (933, 547), (858, 558), (805, 564), (744, 564), (677, 564), (542, 564)]",176.71389802092472,"[2, 9, 7, 8, 1, 5, 4, 3, 6]","(0, 0.25)",DOT002C,DOT,C,English,Thu Aug 09 15:02:45 2018,Mouse
1,3,3,0,4,2,2,1,218,158,60,151,0,500,200,8000,"[(960, 540), (960, 540), (960, 540), (960, 540), (960, 540), (960, 540), (960, 540), (960, 540), (960, 540), (960, 540), (960, 540), (960, 540), (960, 540), (960, 540), (960, 540), (963, 540), (975, 540), (1005, 544), (1156, 553), (1241, 553), (1341, 555), (1440, 555)]",1.7899106082460694,"[2, 9, 7, 8, 1, 5, 4, 3, 6]","(0, 0.25)",DOT002C,DOT,C,English,Thu Aug 09 15:02:45 2018,Mouse
1,3,3,0,5,6,6,1,841,721,120,150,0,500,200,8000,"[(960, 540), (960, 540), (960, 540), (960, 540), (960, 540), (960, 540), (960, 540), (960, 540), (960, 540), (960, 540), (960, 540), (960, 540), (960, 540), (960, 540), (960, 540), (960, 540), (960, 540), (960, 540), (960, 540), (960, 540), (960, 540), (960, 540), (960, 540), (960, 540), (960, 540), (960, 540), (960, 540), (960, 540), (960, 540), (960, 540), (960, 540), (960, 540), (960, 540), (960, 540), (960, 540), (960, 540), (960, 540), (960, 540), (960, 540), (960, 540), (960, 540), (960, 540), (960, 540), (960, 540), (960, 540), (960, 540), (960, 540), (960, 540), (960, 540), (960, 540), (960, 540), (960, 540), (960, 540), (960, 540), (960, 540), (960, 540), (960, 540), (960, 540), (960, 540), (960, 540), (960, 540), (960, 540), (960, 540), (960, 540), (960, 540), (960, 540), (960, 540), (960, 540), (960, 540), (960, 540), (960, 540), (959, 539), (960, 538), (967, 535), (975, 533), (999, 526), (1016, 522), (1039, 515), (1078, 504), (1151, 478), (1189, 462), (1221, 443), (1262, 422), (1336, 381)]",337.07784243077253,"[2, 9, 7, 8, 1, 5, 4, 3, 6]","(0, 0.25)",DOT002C,DOT,C,English,Thu Aug 09 15:02:45 2018,Mouse
1,3,3,0,6,8,8,1,310,220,90,149,0,500,200,8000,"[(960, 540), (960, 540), (960, 540), (960, 540), (960, 540), (960, 540), (960, 540), (960, 540), (960, 540), (960, 540), (960, 540), (960, 540), (960, 540), (960, 540), (960, 540), (960, 540), (960, 540), (960, 540), (960, 540), (960, 540), (960, 540), (957, 544), (949, 560), (942, 575), (932, 598), (915, 635), (860, 731), (831, 770), (799, 810), (765, 840), (700, 891)]",126.52885536698517,"[2, 9, 7, 8, 1, 5, 4, 3, 6]","(0, 0.25)",DOT002C,DOT,C,English,Thu Aug 09 15:02:45 2018,Mouse
1,3,3,0,7,3,3,1,518,458,60,148,0,500,200,8000,"[(960, 540), (960, 540), (960, 540), (960, 540), (960, 540), (960, 540), (960, 540), (960, 540), (960, 540), (960, 540), (960, 540), (960, 540), (960, 540), (960, 540), (960, 540), (960, 540), (960, 540), (960, 540), (960, 540), (960, 540), (960, 540), (960, 540), (960, 540), (960, 540), (960, 540), (960, 540), (960, 540), (960, 540), (960, 540), (960, 540), (960, 540), (960, 540), (960, 540), (960, 540), (960, 540), (960, 540), (960, 540), (960, 540), (960, 540), (960, 540), (960, 540), (960, 540), (960, 540), (960, 540), (960, 540), (962, 533), (985, 505), (1009, 477), (1036, 438), (1072, 380), (1150, 243), (1190, 167)]",301.6588962640211,"[2, 9, 7, 8, 1, 5, 4, 3, 6]","(0, 0.25)",DOT002C,DOT,C,English,Thu Aug 09 15:02:45 2018,Mouse
1,3,3,0,8,9,9,1,238,138,100,147,0,500,200,8000,"[(960, 540), (960, 540), (960, 540), (960, 540), (960, 540), (960, 540), (960, 540), (960, 540), (960, 540), (960, 540), (960, 540), (960, 540), (960, 540), (960, 542), (960, 544), (960, 548), (960, 552), (967, 572), (972, 585), (979, 607), (990, 651), (1031, 784), (1051, 859), (1077, 926)]",73.13748160475134,"[2, 9, 7, 8, 1, 5, 4, 3, 6]","(0, 0.25)",DOT002C,DOT,C,English,Thu Aug 09 15:02:45 2018,Mouse
1,3,3,0,9,6,6,1,210,160,50,146,0,500,200,8000,"[(960, 540), (960, 540), (960, 540), (960, 540), (960, 540), (960, 540), (960, 540), (960, 540), (960, 540), (960, 540), (960, 540), (960, 540), (960, 540), (960, 540), (960, 540), (959, 540), (1028, 521), (1100, 496), (1183, 472), (1274, 447), (1456, 401)]",344.344900231219,"[2, 9, 7, 8, 1, 5, 4, 3, 6]","(0, 0.25)",DOT002C,DOT,C,English,Thu Aug 09 15:02:45 2018,Mouse
1,3,3,0,10,2,2,1,349,279,70,145,0,500,200,8000,"[(960, 540), (960, 540), (960, 540), (960, 540), (960, 540), (960, 540), (960, 540), (960, 540), (960, 540), (960, 540), (960, 540), (960, 540), (960, 540), (960, 540), (960, 540), (960, 540), (960, 540), (960, 540), (960, 540), (960, 540), (960, 540), (960, 540), (960, 540), (960, 540), (960, 540), (960, 540), (960, 540), (960, 541), (966, 546), (978, 551), (1041, 571), (1094, 587), (1147, 601), (1221, 616), (1391, 661)]",15.681685982566627,"[2, 9, 7, 8, 1, 5, 4, 3, 6]","(0, 0.25)",DOT002C,DOT,C,English,Thu Aug 09 15:02:45 2018,Mouse
1,3,3,0,11,8,8,1,548,468,80,144,0,500,200,8000,"[(960, 540), (960, 540), (960, 540), (960, 540), (960, 540), (960, 540), (960, 540), (960, 540), (960, 540), (960, 540), (960, 540), (960, 540), (960, 540), (960, 540), (960, 540), (960, 540), (960, 540), (960, 540), (960, 540), (960, 540), (960, 540), (960, 540), (960, 540), (960, 540), (960, 540), (960, 540), (960, 540), (960, 540), (960, 540), (960, 540), (960, 540), (960, 540), (960, 540), (960, 540), (960, 540), (960, 540), (960, 540), (960, 540), (960, 540), (960, 540), (960, 540), (960, 540), (960, 540), (960, 540), (960, 540), (960, 540), (950, 550), (937, 562), (916, 584), (887, 611), (814, 691), (779, 729), (749, 758), (720, 788), (657, 838)]",135.4766593817531,"[2, 9, 7, 8, 1, 5, 4, 3, 6]","(0, 0.25)",DOT002C,DOT,C,English,Thu Aug 09 15:02:45 2018,Mouse
1,3,3,0,12,3,3,1,331,271,60,143,0,500,200,8000,"[(960, 540), (960, 540), (960, 540), (960, 540), (960, 540), (960, 540), (960, 540), (960, 540), (960, 540), (960, 540), (960, 540), (960, 540), (960, 540), (960, 540), (960, 540), (960, 540), (960, 540), (960, 540), (960, 540), (960, 540), (960, 540), (960, 540), (960, 540), (960, 540), (960, 540), (960, 540), (960, 540), (961, 527), (977, 500), (999, 451), (1019, 403), (1063, 280), (1084, 222), (1112, 160)]",291.8014094863518,"[2, 9, 7, 8, 1, 5, 4, 3, 6]","(0, 0.25)",DOT002C,DOT,C,English,Thu Aug 09 15:02:45 2018,Mouse
1,3,3,0,13,7,7,1,999,919,80,142,0,500,200,8000,"[(960, 540), (960, 540), (960, 540), (960, 540), (960, 540), (960, 540), (960, 540), (960, 540), (960, 540), (960, 540), (960, 540), (960, 540), (960, 540), (960, 540), (960, 540), (960, 540), (960, 540), (960, 540), (960, 540), (960, 540), (960, 540), (960, 540), (960, 540), (960, 540), (960, 540), (960, 540), (960, 540), (960, 540), (960, 540), (960, 540), (960, 540), (960, 540), (960, 540), (960, 540), (960, 540), (960, 540), (960, 540), (960, 540), (960, 540), (960, 540), (960, 540), (960, 540), (960, 540), (960, 540), (960, 540), (960, 540), (960, 540), (960, 540), (960, 540), (960, 540), (960, 540), (960, 540), (960, 540), (960, 540), (960, 540), (960, 540), (960, 540), (960, 540), (960, 540), (960, 540), (960, 540), (960, 540), (960, 540), (960, 540), (960, 540), (960, 540), (960, 540), (960, 540), (960, 540), (960, 540), (960, 540), (960, 540), (960, 540), (960, 540), (960, 540), (960, 540), (960, 540), (960, 540), (960, 540), (960, 540), (960, 540), (960, 540), (960, 540), (960, 540), (960, 540), (960, 540), (960, 540), (960, 540), (960, 540), (960, 540), (960, 540), (959, 540), (959, 553), (959, 577), (959, 624), (950, 684), (931, 814), (923, 874), (917, 930), (909, 979)]",96.62652509189945,"[2, 9, 7, 8, 1, 5, 4, 3, 6]","(0, 0.25)",DOT002C,DOT,C,English,Thu Aug 09 15:02:45 2018,Mouse
1,3,3,0,14,1,1,1,229,179,50,141,0,500,200,8000,"[(960, 540), (960, 540), (960, 540), (960, 540), (960, 540), (960, 540), (960, 540), (960, 540), (960, 540), (960, 540), (960, 540), (960, 540), (960, 540), (960, 540), (960, 540), (960, 540), (960, 540), (959, 539), (941, 539), (819, 542), (727, 542), (617, 542), (501, 542)]",179.7503467672751,"[2, 9, 7, 8, 1, 5, 4, 3, 6]","(0, 0.25)",DOT002C,DOT,C,English,Thu Aug 09 15:02:45 2018,Mouse
1,3,3,0,15,1,1,1,160,80,80,140,0,500,200,8000,"[(960, 540), (960, 540), (960, 540), (960, 540), (960, 540), (960, 540), (960, 540), (959, 541), (957, 541), (953, 542), (943, 543), (896, 547), (838, 547), (766, 547), (678, 547), (512, 547)]",179.10482628978895,"[2, 9, 7, 8, 1, 5, 4, 3, 6]","(0, 0.25)",DOT002C,DOT,C,English,Thu Aug 09 15:02:45 2018,Mouse
1,3,3,0,16,3,3,1,520,200,320,139,0,500,200,8000,"[(960, 540), (960, 540), (960, 540), (960, 540), (960, 540), (960, 540), (960, 540), (960, 540), (960, 540), (960, 540), (960, 540), (960, 540), (960, 540), (960, 540), (960, 540), (960, 540), (960, 540), (960, 540), (960, 540), (961, 540), (963, 540), (964, 540), (970, 540), (974, 542), (979, 543), (988, 545), (1005, 549), (1014, 549), (1019, 550), (1023, 550), (1028, 550), (1028, 550), (1028, 550), (1028, 550), (1029, 550), (1029, 549), (1029, 544), (1029, 540), (1029, 526), (1029, 517), (1029, 503), (1029, 491), (1029, 471), (1029, 460), (1029, 448), (1029, 433), (1029, 403), (1029, 375), (1035, 332), (1049, 287), (1089, 191), (1118, 142)]",291.65233147190895,"[2, 9, 7, 8, 1, 5, 4, 3, 6]","(0, 0.25)",DOT002C,DOT,C,English,Thu Aug 09 15:02:45 2018,Mouse
1,3,3,0,17,9,9,1,428,119,309,138,0,500,200,8000,"[(960, 540), (960, 540), (960, 540), (960, 540), (960, 540), (960, 540), (960, 540), (960, 540), (960, 540), (960, 540), (960, 540), (960, 543), (960, 545), (960, 548), (960, 550), (960, 550), (960, 551), (960, 553), (960, 554), (961, 556), (963, 559), (967, 564), (969, 566), (971, 568), (972, 569), (974, 570), (974, 570), (974, 570), (974, 570), (974, 570), (975, 572), (975, 572), (975, 572), (978, 576), (981, 580), (984, 586), (988, 598), (1007, 656), (1016, 700), (1034, 748), (1055, 804), (1098, 906), (1118, 951)]",68.97183118540572,"[2, 9, 7, 8, 1, 5, 4, 3, 6]","(0, 0.25)",DOT002C,DOT,C,English,Thu Aug 09 15:02:45 2018,Mouse
1,3,3,0,18,5,5,1,550,49,501,137,0,500,200,8000,"[(960, 540), (960, 540), (960, 540), (960, 540), (959, 540), (958, 540), (958, 540), (958, 540), (958, 540), (958, 540), (957, 540), (957, 540), (957, 540), (957, 540), (957, 540), (956, 540), (956, 540), (956, 540), (956, 540), (956, 540), (956, 540), (956, 540), (956, 540), (956, 540), (956, 540), (956, 540), (956, 540), (956, 540), (956, 540), (956, 540), (956, 540), (956, 540), (956, 540), (956, 540), (956, 540), (956, 540), (956, 540), (956, 540), (956, 540), (956, 540), (956, 540), (956, 540), (956, 540), (956, 540), (956, 540), (955, 540), (953, 540), (948, 540), (933, 534), (878, 504), (830, 482), (778, 450), (720, 416), (612, 344), (563, 311)]",209.97747452335886,"[2, 9, 7, 8, 1, 5, 4, 3, 6]","(0, 0.25)",DOT002C,DOT,C,English,Thu Aug 09 15:02:45 2018,Mouse
1,3,3,0,19,7,7,1,540,80,460,136,0,500,200,8000,"[(960, 540), (960, 540), (960, 540), (960, 540), (960, 540), (960, 540), (960, 540), (960, 539), (959, 539), (958, 538), (958, 538), (958, 538), (958, 538), (958, 538), (958, 538), (958, 538), (958, 538), (958, 538), (958, 538), (958, 538), (958, 538), (958, 538), (958, 538), (958, 538), (958, 538), (956, 538), (953, 541), (951, 553), (948, 572), (937, 658), (929, 718), (921, 775), (912, 819), (896, 864), (895, 871), (895, 873), (895, 874), (895, 874), (895, 874), (895, 874), (895, 874), (894, 875), (894, 875), (893, 876), (893, 876), (893, 878), (893, 881), (893, 882), (892, 885), (892, 892), (892, 899), (892, 910), (892, 928), (892, 981)]",98.7656871483263,"[2, 9, 7, 8, 1, 5, 4, 3, 6]","(0, 0.25)",DOT002C,DOT,C,English,Thu Aug 09 15:02:45 2018,Mouse
1,3,3,0,20,3,2,0,-309,269,40,135,0,500,200,8000,"[(960, 540), (960, 540), (960, 540), (960, 540), (960, 540), (960, 540), (960, 540), (960, 540), (960, 540), (960, 540), (960, 540), (960, 540), (960, 540), (960, 540), (960, 540), (960, 540), (960, 540), (960, 540), (960, 540), (960, 540), (960, 540), (960, 540), (960, 540), (960, 540), (960, 540), (960, 540), (994, 541), (1042, 547), (1110, 557), (1191, 568), (1374, 591)]",7.022793835573201,"[2, 9, 7, 8, 1, 5, 4, 3, 6]","(0, 0.25)",DOT002C,DOT,C,English,Thu Aug 09 15:02:45 2018,Mouse
1,3,3,0,21,9,9,1,479,389,90,136,0,500,200,8000,"[(960, 540), (960, 540), (960, 540), (960, 540), (960, 540), (960, 540), (960, 540), (960, 540), (960, 540), (960, 540), (960, 540), (960, 540), (960, 540), (960, 540), (960, 540), (960, 540), (960, 540), (960, 540), (960, 540), (960, 540), (960, 540), (960, 540), (960, 540), (960, 540), (960, 540), (960, 540), (960, 540), (960, 540), (960, 540), (960, 540), (960, 540), (960, 540), (960, 540), (960, 540), (960, 540), (960, 540), (960, 540), (960, 540), (960, 541), (962, 542), (966, 544), (970, 549), (988, 591), (1002, 623), (1021, 669), (1058, 729), (1135, 837), (1178, 883)]",57.561245399314714,"[2, 9, 7, 8, 1, 5, 4, 3, 6]","(0, 0.25)",DOT002C,DOT,C,English,Thu Aug 09 15:02:45 2018,Mouse
1,3,3,0,22,3,3,1,450,390,60,136,0,500,200,8000,"[(960, 540), (960, 540), (960, 540), (960, 540), (960, 540), (960, 540), (960, 540), (960, 540), (960, 540), (960, 540), (960, 540), (960, 540), (960, 540), (960, 540), (960, 540), (960, 540), (960, 540), (960, 540), (960, 540), (960, 540), (960, 540), (960, 540), (960, 540), (960, 540), (960, 540), (960, 540), (960, 540), (960, 540), (960, 540), (960, 540), (960, 540), (960, 540), (960, 540), (960, 540), (960, 540), (960, 540), (960, 540), (960, 540), (961, 536), (967, 521), (987, 470), (1046, 333), (1075, 260), (1106, 184), (1132, 125)]",292.5119449430222,"[2, 9, 7, 8, 1, 5, 4, 3, 6]","(0, 0.25)",DOT002C,DOT,C,English,Thu Aug 09 15:02:45 2018,Mouse
1,3,3,0,23,5,5,1,320,240,80,135,0,500,200,8000,"[(960, 540), (960, 540), (960, 540), (960, 540), (960, 540), (960, 540), (960, 540), (960, 540), (960, 540), (960, 540), (960, 540), (960, 540), (960, 540), (960, 540), (960, 540), (960, 540), (960, 540), (960, 540), (960, 540), (960, 540), (960, 540), (960, 540), (960, 540), (956, 535), (951, 528), (941, 514), (919, 486), (852, 406), (803, 360), (747, 317), (691, 276), (589, 205)]",222.0809304159013,"[2, 9, 7, 8, 1, 5, 4, 3, 6]","(0, 0.25)",DOT002C,DOT,C,English,Thu Aug 09 15:02:45 2018,Mouse
1,3,3,0,24,3,2,0,-268,208,60,134,0,500,200,8000,"[(960, 540), (960, 540), (960, 540), (960, 540), (960, 540), (960, 540), (960, 540), (960, 540), (960, 540), (960, 540), (960, 540), (960, 540), (960, 540), (960, 540), (960, 540), (960, 540), (960, 540), (960, 540), (960, 540), (960, 540), (963, 544), (975, 552), (1047, 588), (1114, 605), (1218, 628), (1341, 652), (1593, 692)]",13.502579881649057,"[2, 9, 7, 8, 1, 5, 4, 3, 6]","(0, 0.25)",DOT002C,DOT,C,English,Thu Aug 09 15:02:45 2018,Mouse
1,3,3,0,25,8,7,0,-460,150,310,135,0,500,200,8000,"[(960, 540), (960, 540), (960, 540), (960, 540), (960, 540), (960, 540), (960, 540), (960, 540), (960, 540), (960, 540), (960, 540), (960, 540), (960, 540), (960, 540), (960, 541), (960, 541), (960, 542), (960, 542), (960, 542), (960, 542), (960, 542), (960, 542), (960, 542), (960, 542), (960, 542), (960, 542), (960, 542), (960, 542), (960, 542), (960, 542), (960, 542), (960, 542), (960, 542), (960, 542), (960, 542), (960, 542), (960, 543), (960, 545), (960, 556), (960, 573), (955, 605), (955, 661), (946, 792), (931, 866), (918, 931), (902, 987)]",97.39304638373481,"[2, 9, 7, 8, 1, 5, 4, 3, 6]","(0, 0.25)",DOT002C,DOT,C,English,Thu Aug 09 15:02:45 2018,Mouse
1,3,3,0,26,2,2,1,519,479,40,136,0,500,200,8000,"[(960, 540), (960, 540), (960, 540), (960, 540), (960, 540), (960, 540), (960, 540), (960, 540), (960, 540), (960, 540), (960, 540), (960, 540), (960, 540), (960, 540), (960, 540), (960, 540), (960, 540), (960, 540), (960, 540), (960, 540), (960, 540), (960, 540), (960, 540), (960, 540), (960, 540), (960, 540), (960, 540), (960, 540), (960, 540), (960, 540), (960, 540), (960, 540), (960, 540), (960, 540), (960, 540), (960, 540), (960, 540), (960, 540), (960, 540), (960, 540), (960, 540), (960, 540), (960, 540), (960, 540), (960, 540), (960, 540), (960, 540), (989, 554), (1025, 575), (1089, 598), (1162, 627), (1343, 696)]",22.161593746161273,"[2, 9, 7, 8, 1, 5, 4, 3, 6]","(0, 0.25)",DOT002C,DOT,C,English,Thu Aug 09 15:02:45 2018,Mouse
1,3,3,0,27,8,8,1,739,399,340,136,0,500,200,8000,"[(960, 540), (960, 540), (960, 540), (960, 540), (960, 540), (960, 540), (960, 540), (960, 540), (960, 540), (960, 540), (960, 540), (960, 540), (960, 540), (960, 540), (960, 540), (960, 540), (960, 540), (960, 540), (960, 540), (960, 540), (960, 540), (960, 540), (960, 540), (960, 540), (960, 540), (960, 540), (960, 540), (960, 540), (960, 540), (960, 540), (960, 540), (960, 540), (960, 540), (960, 540), (960, 540), (960, 540), (960, 540), (960, 540), (960, 540), (960, 541), (960, 544), (960, 546), (959, 553), (959, 557), (958, 560), (958, 562), (956, 563), (956, 563), (956, 563), (956, 563), (956, 563), (956, 563), (956, 563), (956, 563), (956, 563), (956, 563), (956, 563), (956, 563), (956, 563), (956, 563), (956, 563), (956, 563), (956, 563), (956, 566), (954, 570), (950, 577), (930, 607), (911, 637), (882, 674), (842, 708), (758, 768), (715, 792), (675, 809), (640, 823)]",138.51125917586083,"[2, 9, 7, 8, 1, 5, 4, 3, 6]","(0, 0.25)",DOT002C,DOT,C,English,Thu Aug 09 15:02:45 2018,Mouse
1,3,3,0,28,1,1,1,308,188,120,135,0,500,200,8000,"[(960, 540), (960, 540), (960, 540), (960, 540), (960, 540), (960, 540), (960, 540), (960, 540), (960, 540), (960, 540), (960, 540), (960, 540), (960, 540), (960, 540), (960, 540), (960, 540), (960, 540), (960, 540), (959, 540), (958, 540), (957, 540), (957, 540), (955, 539), (951, 538), (941, 536), (920, 535), (874, 527), (746, 525), (672, 525), (583, 525), (511, 525)]",181.91340128575186,"[2, 9, 7, 8, 1, 5, 4, 3, 6]","(0, 0.25)",DOT002C,DOT,C,English,Thu Aug 09 15:02:45 2018,Mouse
1,3,3,0,29,2,3,0,-349,249,100,134,0,500,200,8000,"[(960, 540), (960, 540), (960, 540), (960, 540), (960, 540), (960, 540), (960, 540), (960, 540), (960, 540), (960, 540), (960, 540), (960, 540), (960, 540), (960, 540), (960, 540), (960, 540), (960, 540), (960, 540), (960, 540), (960, 540), (960, 540), (960, 540), (960, 540), (960, 540), (964, 540), (970, 538), (978, 533), (1002, 516), (1029, 491), (1066, 455), (1101, 422), (1164, 346), (1196, 306), (1223, 267), (1249, 236)]",313.55100596687964,"[2, 9, 7, 8, 1, 5, 4, 3, 6]","(0, 0.25)",DOT002C,DOT,C,English,Thu Aug 09 15:02:45 2018,Mouse
1,3,3,0,30,1,1,1,79,19,60,135,0,500,200,8000,"[(958, 540), (951, 540), (940, 540), (885, 546), (833, 546), (772, 548), (699, 550), (544, 550)]",178.62296280622726,"[2, 9, 7, 8, 1, 5, 4, 3, 6]","(0, 0.25)",DOT002C,DOT,C,English,Thu Aug 09 15:02:45 2018,Mouse
1,3,3,0,31,4,4,1,428,378,50,135,0,500,200,8000,"[(960, 540), (960, 540), (960, 540), (960, 540), (960, 540), (960, 540), (960, 540), (960, 540), (960, 540), (960, 540), (960, 540), (960, 540), (960, 540), (960, 540), (960, 540), (960, 540), (960, 540), (960, 540), (960, 540), (960, 540), (960, 540), (960, 540), (960, 540), (960, 540), (960, 540), (960, 540), (960, 540), (960, 540), (960, 540), (960, 540), (960, 540), (960, 540), (960, 540), (960, 540), (960, 540), (960, 540), (960, 540), (960, 531), (954, 466), (946, 409), (940, 344), (929, 271), (908, 129)]",262.78921159015107,"[2, 9, 7, 8, 1, 5, 4, 3, 6]","(0, 0.25)",DOT002C,DOT,C,English,Thu Aug 09 15:02:45 2018,Mouse
1,3,3,0,32,3,2,0,-789,709,80,134,0,500,200,8000,"[(960, 540), (960, 540), (960, 540), (960, 540), (960, 540), (960, 540), (960, 540), (960, 540), (960, 540), (960, 540), (960, 540), (960, 540), (960, 540), (960, 540), (960, 540), (960, 540), (960, 540), (960, 540), (960, 540), (960, 540), (960, 540), (960, 540), (960, 540), (960, 540), (960, 540), (960, 540), (960, 540), (960, 540), (960, 540), (960, 540), (960, 540), (960, 540), (960, 540), (960, 540), (960, 540), (960, 540), (960, 540), (960, 540), (960, 540), (960, 540), (960, 540), (960, 540), (960, 540), (960, 540), (960, 540), (960, 540), (960, 540), (960, 540), (960, 540), (960, 540), (960, 540), (960, 540), (960, 540), (960, 540), (960, 540), (960, 540), (960, 540), (960, 540), (960, 540), (960, 540), (960, 540), (960, 540), (960, 540), (960, 540), (960, 540), (960, 540), (960, 540), (960, 540), (960, 540), (960, 540), (971, 542), (976, 544), (987, 548), (1006, 556), (1072, 585), (1123, 606), (1182, 633), (1253, 664), (1398, 726)]",23.008870082822874,"[2, 9, 7, 8, 1, 5, 4, 3, 6]","(0, 0.25)",DOT002C,DOT,C,English,Thu Aug 09 15:02:45 2018,Mouse
1,3,3,0,33,7,7,1,710,630,80,135,0,500,200,8000,"[(960, 540), (960, 540), (960, 540), (960, 540), (960, 540), (960, 540), (960, 540), (960, 540), (960, 540), (960, 540), (960, 540), (960, 540), (960, 540), (960, 540), (960, 540), (960, 540), (960, 540), (960, 540), (960, 540), (960, 540), (960, 540), (960, 540), (960, 540), (960, 540), (960, 540), (960, 540), (960, 540), (960, 540), (960, 540), (960, 540), (960, 540), (960, 540), (960, 540), (960, 540), (960, 540), (960, 540), (960, 540), (960, 540), (960, 540), (960, 540), (960, 540), (960, 540), (960, 540), (960, 540), (960, 540), (960, 540), (960, 540), (960, 540), (960, 540), (960, 540), (960, 540), (960, 540), (960, 540), (960, 540), (960, 540), (960, 540), (960, 540), (960, 540), (960, 540), (960, 540), (960, 540), (960, 540), (956, 547), (949, 573), (940, 609), (925, 672), (900, 790), (890, 842), (883, 885), (879, 920), (869, 981)]",101.659292653523,"[2, 9, 7, 8, 1, 5, 4, 3, 6]","(0, 0.25)",DOT002C,DOT,C,English,Thu Aug 09 15:02:45 2018,Mouse
1,3,3,0,34,8,8,1,1249,1049,200,135,0,500,200,8000,"[(960, 540), (960, 540), (960, 540), (960, 540), (960, 540), (960, 540), (960, 540), (960, 540), (960, 540), (960, 540), (960, 540), (960, 540), (960, 540), (960, 540), (960, 540), (960, 540), (960, 540), (960, 540), (960, 540), (960, 540), (960, 540), (960, 540), (960, 540), (960, 540), (960, 540), (960, 540), (960, 540), (960, 540), (960, 540), (960, 540), (960, 540), (960, 540), (960, 540), (960, 540), (960, 540), (960, 540), (960, 540), (960, 540), (960, 540), (960, 540), (960, 540), (960, 540), (960, 540), (960, 540), (960, 540), (960, 540), (960, 540), (960, 540), (960, 540), (960, 540), (960, 540), (960, 540), (960, 540), (960, 540), (960, 540), (960, 540), (960, 540), (960, 540), (960, 540), (960, 540), (960, 540), (960, 540), (960, 540), (960, 540), (960, 540), (960, 540), (960, 540), (960, 540), (960, 540), (960, 540), (960, 540), (960, 540), (960, 540), (960, 540), (960, 540), (960, 540), (960, 540), (960, 540), (960, 540), (960, 540), (960, 540), (960, 540), (960, 540), (960, 540), (960, 540), (960, 540), (960, 540), (960, 540), (960, 540), (960, 540), (960, 540), (960, 540), (960, 540), (960, 540), (960, 540), (960, 540), (960, 540), (960, 540), (960, 540), (960, 540), (960, 540), (960, 540), (960, 540), (960, 540), (959, 540), (955, 541), (952, 542), (951, 543), (949, 544), (946, 545), (944, 546), (944, 546), (941, 546), (940, 546), (936, 547), (931, 549), (928, 551), (922, 554), (897, 567), (876, 578), (847, 593), (802, 621), (706, 685), (653, 723), (608, 760)]",147.9946167919165,"[2, 9, 7, 8, 1, 5, 4, 3, 6]","(0, 0.25)",DOT002C,DOT,C,English,Thu Aug 09 15:02:45 2018,Mouse
1,3,3,0,35,9,5,0,-649,519,130,134,0,500,200,8000,"[(960, 540), (960, 540), (960, 540), (960, 540), (960, 540), (960, 540), (960, 540), (960, 540), (960, 540), (960, 540), (960, 540), (960, 540), (960, 540), (960, 540), (960, 540), (960, 540), (960, 540), (960, 540), (960, 540), (960, 540), (960, 540), (960, 540), (960, 540), (960, 540), (960, 540), (960, 540), (960, 540), (960, 540), (960, 540), (960, 540), (960, 540), (960, 540), (960, 540), (960, 540), (960, 540), (960, 540), (960, 540), (960, 540), (960, 540), (960, 540), (960, 540), (960, 540), (960, 540), (960, 540), (960, 540), (960, 540), (960, 540), (960, 540), (960, 540), (960, 540), (960, 540), (959, 534), (930, 496), (910, 473), (889, 453), (868, 436), (820, 403), (800, 388), (775, 371), (755, 354), (707, 319), (684, 303), (667, 290), (658, 284), (652, 279)]",220.27802795975478,"[2, 9, 7, 8, 1, 5, 4, 3, 6]","(0, 0.25)",DOT002C,DOT,C,English,Thu Aug 09 15:02:45 2018,Mouse
1,3,3,0,36,6,6,1,370,121,249,135,0,500,200,8000,"[(960, 540), (960, 540), (960, 540), (960, 540), (960, 540), (960, 540), (960, 540), (960, 540), (960, 540), (960, 540), (960, 540), (960, 540), (960, 541), (960, 541), (960, 541), (963, 542), (963, 542), (963, 542), (963, 542), (964, 543), (964, 543), (964, 543), (964, 543), (964, 543), (964, 543), (964, 543), (964, 544), (965, 544), (966, 544), (967, 544), (974, 544), (982, 544), (996, 543), (1025, 540), (1175, 534), (1278, 534), (1391, 534)]",359.2024304591335,"[2, 9, 7, 8, 1, 5, 4, 3, 6]","(0, 0.25)",DOT002C,DOT,C,English,Thu Aug 09 15:02:45 2018,Mouse
1,3,3,0,37,8,8,1,379,279,100,135,0,500,200,8000,"[(960, 540), (960, 540), (960, 540), (960, 540), (960, 540), (960, 540), (960, 540), (960, 540), (960, 540), (960, 540), (960, 540), (960, 540), (960, 540), (960, 540), (960, 540), (960, 540), (960, 540), (960, 540), (960, 540), (960, 540), (960, 540), (960, 540), (960, 540), (960, 540), (960, 540), (960, 540), (960, 540), (956, 540), (946, 545), (937, 551), (929, 557), (917, 568), (874, 618), (839, 651), (807, 683), (767, 717), (681, 775), (640, 803)]",140.5840696241729,"[2, 9, 7, 8, 1, 5, 4, 3, 6]","(0, 0.25)",DOT002C,DOT,C,English,Thu Aug 09 15:02:45 2018,Mouse
1,3,3,0,38,4,4,1,421,361,60,134,0,500,200,8000,"[(960, 540), (960, 540), (960, 540), (960, 540), (960, 540), (960, 540), (960, 540), (960, 540), (960, 540), (960, 540), (960, 540), (960, 540), (960, 540), (960, 540), (960, 540), (960, 540), (960, 540), (960, 540), (960, 540), (960, 540), (960, 540), (960, 540), (960, 540), (960, 540), (960, 540), (960, 540), (960, 540), (960, 540), (960, 540), (960, 540), (960, 540), (960, 540), (960, 540), (960, 540), (960, 540), (960, 540), (961, 540), (963, 533), (970, 486), (978, 426), (980, 357), (980, 276), (986, 121)]",273.5507939103385,"[2, 9, 7, 8, 1, 5, 4, 3, 6]","(0, 0.25)",DOT002C,DOT,C,English,Thu Aug 09 15:02:45 2018,Mouse
1,3,3,0,39,7,6,0,-349,299,50,133,0,500,200,8000,"[(960, 540), (960, 540), (960, 540), (960, 540), (960, 540), (960, 540), (960, 540), (960, 540), (960, 540), (960, 540), (960, 540), (960, 540), (960, 540), (960, 540), (960, 540), (960, 540), (960, 540), (960, 540), (960, 540), (960, 540), (960, 540), (960, 540), (960, 540), (960, 540), (960, 540), (960, 540), (960, 540), (960, 540), (960, 540), (966, 537), (1010, 523), (1063, 506), (1135, 485), (1212, 463), (1387, 410)]",343.06714765905235,"[2, 9, 7, 8, 1, 5, 4, 3, 6]","(0, 0.25)",DOT002C,DOT,C,English,Thu Aug 09 15:02:45 2018,Mouse
1,3,3,0,40,6,6,1,159,89,70,134,0,500,200,8000,"[(960, 540), (960, 540), (960, 540), (960, 540), (960, 540), (960, 540), (960, 540), (960, 540), (964, 537), (972, 534), (1021, 513), (1064, 498), (1121, 483), (1182, 465), (1326, 403), (1394, 365)]",338.03943597990354,"[2, 9, 7, 8, 1, 5, 4, 3, 6]","(0, 0.25)",DOT002C,DOT,C,English,Thu Aug 09 15:02:45 2018,Mouse
1,3,3,0,41,6,6,1,169,99,70,134,0,500,200,8000,"[(960, 540), (960, 540), (960, 540), (960, 540), (960, 540), (960, 540), (960, 540), (960, 540), (960, 540), (961, 539), (970, 536), (990, 531), (1026, 520), (1128, 496), (1201, 485), (1289, 467), (1377, 440)]",346.5146605112921,"[2, 9, 7, 8, 1, 5, 4, 3, 6]","(0, 0.25)",DOT002C,DOT,C,English,Thu Aug 09 15:02:45 2018,Mouse
1,3,3,0,42,4,4,1,269,199,70,133,0,500,200,8000,"[(960, 540), (960, 540), (960, 540), (960, 540), (960, 540), (960, 540), (960, 540), (960, 540), (960, 540), (960, 540), (960, 540), (960, 540), (960, 540), (960, 540), (960, 540), (960, 540), (960, 540), (960, 540), (960, 540), (960, 508), (964, 443), (964, 382), (964, 322), (964, 233), (964, 205), (964, 171), (966, 127)]",270.8323256528892,"[2, 9, 7, 8, 1, 5, 4, 3, 6]","(0, 0.25)",DOT002C,DOT,C,English,Thu Aug 09 15:02:45 2018,Mouse
1,3,3,0,43,3,1,0,-759,709,50,132,0,500,200,8000,"[(960, 540), (960, 540), (960, 540), (960, 540), (960, 540), (960, 540), (960, 540), (960, 540), (960, 540), (960, 540), (960, 540), (960, 540), (960, 540), (960, 540), (960, 540), (960, 540), (960, 540), (960, 540), (960, 540), (960, 540), (960, 540), (960, 540), (960, 540), (960, 540), (960, 540), (960, 540), (960, 540), (960, 540), (960, 540), (960, 540), (960, 540), (960, 540), (960, 540), (960, 540), (960, 540), (960, 540), (960, 540), (960, 540), (960, 540), (960, 540), (960, 540), (960, 540), (960, 540), (960, 540), (960, 540), (960, 540), (960, 540), (960, 540), (960, 540), (960, 540), (960, 540), (960, 540), (960, 540), (960, 540), (960, 540), (960, 540), (960, 540), (960, 540), (960, 540), (960, 540), (960, 540), (960, 540), (960, 540), (960, 540), (960, 540), (960, 540), (960, 540), (960, 540), (960, 540), (960, 540), (960, 541), (890, 554), (831, 560), (738, 576), (632, 583), (401, 583)]",175.6012946450045,"[2, 9, 7, 8, 1, 5, 4, 3, 6]","(0, 0.25)",DOT002C,DOT,C,English,Thu Aug 09 15:02:45 2018,Mouse
1,3,3,0,44,5,5,1,1010,230,780,133,0,500,200,8000,"[(960, 540), (960, 540), (960, 540), (960, 540), (960, 540), (960, 540), (960, 540), (960, 540), (960, 540), (960, 540), (960, 540), (960, 540), (960, 540), (960, 540), (960, 540), (960, 540), (960, 540), (960, 540), (960, 540), (960, 540), (960, 540), (960, 540), (961, 528), (959, 500), (949, 449), (940, 408), (918, 350), (908, 332), (906, 326), (905, 322), (902, 318), (902, 317), (901, 316), (901, 315), (901, 315), (901, 315), (901, 315), (901, 315), (901, 315), (901, 315), (901, 315), (901, 315), (901, 315), (901, 315), (901, 315), (901, 315), (901, 315), (901, 315), (901, 315), (901, 315), (901, 315), (901, 315), (901, 315), (901, 315), (901, 315), (901, 315), (901, 315), (901, 314), (899, 314), (899, 314), (899, 314), (898, 314), (898, 314), (898, 314), (898, 314), (898, 314), (898, 314), (898, 314), (898, 314), (898, 314), (898, 315), (898, 315), (898, 315), (898, 315), (898, 315), (898, 315), (898, 315), (898, 315), (898, 315), (898, 315), (898, 315), (898, 315), (898, 315), (898, 315), (897, 316), (897, 316), (897, 316), (897, 316), (897, 316), (897, 316), (897, 316), (896, 317), (896, 318), (895, 319), (890, 323), (885, 325), (873, 327), (854, 328), (738, 328), (653, 309), (562, 282)]",212.95296950879484,"[2, 9, 7, 8, 1, 5, 4, 3, 6]","(0, 0.25)",DOT002C,DOT,C,English,Thu Aug 09 15:02:45 2018,Mouse
1,3,3,0,45,7,6,0,-399,279,120,133,0,500,200,8000,"[(960, 540), (960, 540), (960, 540), (960, 540), (960, 540), (960, 540), (960, 540), (960, 540), (960, 540), (960, 540), (960, 540), (960, 540), (960, 540), (960, 540), (960, 540), (960, 540), (960, 540), (960, 540), (960, 540), (960, 540), (960, 540), (960, 540), (960, 540), (960, 540), (960, 540), (960, 540), (960, 540), (963, 543), (966, 543), (968, 543), (972, 543), (976, 543), (992, 543), (1006, 543), (1028, 537), (1075, 525), (1196, 498), (1257, 479), (1320, 465), (1369, 453)]",347.99137314299634,"[2, 9, 7, 8, 1, 5, 4, 3, 6]","(0, 0.25)",DOT002C,DOT,C,English,Thu Aug 09 15:02:45 2018,Mouse
1,3,3,0,46,5,5,1,2037,1997,40,134,0,500,200,8000,"[(960, 540), (960, 540), (960, 540), (960, 540), (960, 540), (960, 540), (960, 540), (960, 540), (960, 540), (960, 540), (960, 540), (960, 540), (960, 540), (960, 540), (960, 540), (960, 540), (960, 540), (960, 540), (960, 540), (960, 540), (960, 540), (960, 540), (960, 540), (960, 540), (960, 540), (960, 540), (960, 540), (960, 540), (960, 540), (960, 540), (960, 540), (960, 540), (960, 540), (960, 540), (960, 540), (960, 540), (960, 540), (960, 540), (960, 540), (960, 540), (960, 540), (960, 540), (960, 540), (960, 540), (960, 540), (960, 540), (960, 540), (960, 540), (960, 540), (960, 540), (960, 540), (960, 540), (960, 540), (960, 540), (960, 540), (960, 540), (960, 540), (960, 540), (960, 540), (960, 540), (960, 540), (960, 540), (960, 540), (960, 540), (960, 540), (960, 540), (960, 540), (960, 540), (960, 540), (960, 540), (960, 540), (960, 540), (960, 540), (960, 540), (960, 540), (960, 540), (960, 540), (960, 540), (960, 540), (960, 540), (960, 540), (960, 540), (960, 540), (960, 540), (960, 540), (960, 540), (960, 540), (960, 540), (960, 540), (960, 540), (960, 540), (960, 540), (960, 540), (960, 540), (960, 540), (960, 540), (960, 540), (960, 540), (960, 540), (960, 540), (960, 540), (960, 540), (960, 540), (960, 540), (960, 540), (960, 540), (960, 540), (960, 540), (960, 540), (960, 540), (960, 540), (960, 540), (960, 540), (960, 540), (960, 540), (960, 540), (960, 540), (960, 540), (960, 540), (960, 540), (960, 540), (960, 540), (960, 540), (960, 540), (960, 540), (960, 540), (960, 540), (960, 540), (960, 540), (960, 540), (960, 540), (960, 540), (960, 540), (960, 540), (960, 540), (960, 540), (960, 540), (960, 540), (960, 540), (960, 540), (960, 540), (960, 540), (960, 540), (960, 540), (960, 540), (960, 540), (960, 540), (960, 540), (960, 540), (960, 540), (960, 540), (960, 540), (960, 540), (960, 540), (960, 540), (960, 540), (960, 540), (960, 540), (960, 540), (960, 540), (960, 540), (960, 540), (960, 540), (960, 540), (960, 540), (960, 540), (960, 540), (960, 540), (960, 540), (960, 540), (960, 540), (960, 540), (960, 540), (960, 540), (960, 540), (960, 540), (960, 540), (960, 540), (960, 540), (960, 540), (960, 540), (960, 540), (960, 540), (960, 540), (960, 540), (960, 540), (960, 540), (960, 540), (960, 540), (960, 540), (960, 540), (960, 540), (960, 540), (960, 540), (960, 540), (960, 540), (960, 540), (960, 540), (960, 540), (938, 530), (894, 504), (838, 463), (774, 417), (622, 308)]",214.46533522234537,"[2, 9, 7, 8, 1, 5, 4, 3, 6]","(0, 0.25)",DOT002C,DOT,C,English,Thu Aug 09 15:02:45 2018,Mouse
1,3,3,0,47,7,4,0,-369,319,50,134,0,500,200,8000,"[(960, 540), (960, 540), (960, 540), (960, 540), (960, 540), (960, 540), (960, 540), (960, 540), (960, 540), (960, 540), (960, 540), (960, 540), (960, 540), (960, 540), (960, 540), (960, 540), (960, 540), (960, 540), (960, 540), (960, 540), (960, 540), (960, 540), (960, 540), (960, 540), (960, 540), (960, 540), (960, 540), (960, 540), (960, 540), (960, 540), (960, 540), (957, 533), (949, 487), (934, 421), (908, 263), (897, 195), (891, 141)]",260.18874313200394,"[2, 9, 7, 8, 1, 5, 4, 3, 6]","(0, 0.25)",DOT002C,DOT,C,English,Thu Aug 09 15:02:45 2018,Mouse
1,3,3,0,48,1,1,1,290,210,80,135,0,500,200,8000,"[(960, 540), (960, 540), (960, 540), (960, 540), (960, 540), (960, 540), (960, 540), (960, 540), (960, 540), (960, 540), (960, 540), (960, 540), (960, 540), (960, 540), (960, 540), (960, 540), (960, 540), (960, 540), (960, 540), (960, 540), (959, 540), (957, 540), (949, 540), (937, 540), (903, 540), (868, 545), (800, 555), (717, 558), (558, 567)]",176.15754687208513,"[2, 9, 7, 8, 1, 5, 4, 3, 6]","(0, 0.25)",DOT002C,DOT,C,English,Thu Aug 09 15:02:45 2018,Mouse
1,3,3,0,49,8,8,1,378,298,80,135,0,500,200,8000,"[(960, 540), (960, 540), (960, 540), (960, 540), (960, 540), (960, 540), (960, 540), (960, 540), (960, 540), (960, 540), (960, 540), (960, 540), (960, 540), (960, 540), (960, 540), (960, 540), (960, 540), (960, 540), (960, 540), (960, 540), (960, 540), (960, 540), (960, 540), (960, 540), (960, 540), (960, 540), (960, 540), (960, 540), (960, 540), (959, 540), (941, 547), (927, 560), (906, 580), (873, 612), (787, 706), (731, 754), (670, 802), (617, 838)]",139.01573616547935,"[2, 9, 7, 8, 1, 5, 4, 3, 6]","(0, 0.25)",DOT002C,DOT,C,English,Thu Aug 09 15:02:45 2018,Mouse
1,3,3,0,50,4,4,1,340,280,60,134,0,500,200,8000,"[(960, 540), (960, 540), (960, 540), (960, 540), (960, 540), (960, 540), (960, 540), (960, 540), (960, 540), (960, 540), (960, 540), (960, 540), (960, 540), (960, 540), (960, 540), (960, 540), (960, 540), (960, 540), (960, 540), (960, 540), (960, 540), (960, 540), (960, 540), (960, 540), (960, 540), (960, 540), (960, 540), (959, 536), (954, 518), (947, 474), (931, 398), (894, 252), (872, 182), (860, 125)]",256.4520610119995,"[2, 9, 7, 8, 1, 5, 4, 3, 6]","(0, 0.25)",DOT002C,DOT,C,English,Thu Aug 09 15:02:45 2018,Mouse
1,3,3,0,51,3,1,0,-289,239,50,133,0,500,200,8000,"[(960, 540), (960, 540), (960, 540), (960, 540), (960, 540), (960, 540), (960, 540), (960, 540), (960, 540), (960, 540), (960, 540), (960, 540), (960, 540), (960, 540), (960, 540), (960, 540), (960, 540), (960, 540), (960, 540), (960, 540), (960, 540), (960, 540), (960, 540), (950, 541), (870, 541), (808, 540), (730, 536), (638, 525), (488, 501)]",184.7234552834895,"[2, 9, 7, 8, 1, 5, 4, 3, 6]","(0, 0.25)",DOT002C,DOT,C,English,Thu Aug 09 15:02:45 2018,Mouse
1,3,3,0,52,9,9,1,638,468,170,134,0,500,200,8000,"[(960, 540), (960, 540), (960, 540), (960, 540), (960, 540), (960, 540), (960, 540), (960, 540), (960, 540), (960, 540), (960, 540), (960, 540), (960, 540), (960, 540), (960, 540), (960, 540), (960, 540), (960, 540), (960, 540), (960, 540), (960, 540), (960, 540), (960, 540), (960, 540), (960, 540), (960, 540), (960, 540), (960, 540), (960, 540), (960, 540), (960, 540), (960, 540), (960, 540), (960, 540), (960, 540), (960, 540), (960, 540), (960, 540), (960, 540), (960, 540), (960, 540), (960, 540), (960, 540), (960, 540), (960, 540), (960, 540), (960, 542), (960, 544), (960, 545), (960, 545), (960, 546), (960, 546), (960, 549), (961, 553), (972, 567), (980, 578), (992, 596), (1010, 629), (1049, 697), (1070, 735), (1097, 771), (1121, 802), (1171, 860), (1198, 885)]",55.39995028585103,"[2, 9, 7, 8, 1, 5, 4, 3, 6]","(0, 0.25)",DOT002C,DOT,C,English,Thu Aug 09 15:02:45 2018,Mouse
1,3,3,0,53,3,5,0,-609,539,70,134,0,500,200,8000,"[(960, 540), (960, 540), (960, 540), (960, 540), (960, 540), (960, 540), (960, 540), (960, 540), (960, 540), (960, 540), (960, 540), (960, 540), (960, 540), (960, 540), (960, 540), (960, 540), (960, 540), (960, 540), (960, 540), (960, 540), (960, 540), (960, 540), (960, 540), (960, 540), (960, 540), (960, 540), (960, 540), (960, 540), (960, 540), (960, 540), (960, 540), (960, 540), (960, 540), (960, 540), (960, 540), (960, 540), (960, 540), (960, 540), (960, 540), (960, 540), (960, 540), (960, 540), (960, 540), (960, 540), (960, 540), (960, 540), (960, 540), (960, 540), (960, 540), (960, 540), (960, 540), (960, 540), (960, 540), (946, 535), (929, 528), (900, 512), (861, 501), (747, 448), (693, 417), (638, 385), (592, 361)]",205.93889272354278,"[2, 9, 7, 8, 1, 5, 4, 3, 6]","(0, 0.25)",DOT002C,DOT,C,English,Thu Aug 09 15:02:45 2018,Mouse
1,3,3,0,54,8,9,0,-359,259,100,135,0,500,200,8000,"[(960, 540), (960, 540), (960, 540), (960, 540), (960, 540), (960, 540), (960, 540), (960, 540), (960, 540), (960, 540), (960, 540), (960, 540), (960, 540), (960, 540), (960, 540), (960, 540), (960, 540), (960, 540), (960, 540), (960, 540), (960, 540), (960, 540), (960, 540), (960, 540), (960, 540), (963, 540), (971, 551), (979, 576), (985, 591), (995, 617), (1009, 646), (1054, 730), (1084, 769), (1116, 811), (1149, 849), (1213, 909)]",55.564028323231994,"[2, 9, 7, 8, 1, 5, 4, 3, 6]","(0, 0.25)",DOT002C,DOT,C,English,Thu Aug 09 15:02:45 2018,Mouse
1,3,3,0,55,3,1,0,-229,159,70,136,0,500,200,8000,"[(960, 540), (960, 540), (960, 540), (960, 540), (960, 540), (960, 540), (960, 540), (960, 540), (960, 540), (960, 540), (960, 540), (960, 540), (960, 540), (960, 540), (960, 540), (956, 539), (941, 538), (927, 535), (860, 535), (799, 535), (735, 535), (666, 535), (525, 535)]",180.6585431775636,"[2, 9, 7, 8, 1, 5, 4, 3, 6]","(0, 0.25)",DOT002C,DOT,C,English,Thu Aug 09 15:02:45 2018,Mouse
1,3,3,0,56,5,5,1,439,359,80,137,0,500,200,8000,"[(960, 540), (960, 540), (960, 540), (960, 540), (960, 540), (960, 540), (960, 540), (960, 540), (960, 540), (960, 540), (960, 540), (960, 540), (960, 540), (960, 540), (960, 540), (960, 540), (960, 540), (960, 540), (960, 540), (960, 540), (960, 540), (960, 540), (960, 540), (960, 540), (960, 540), (960, 540), (960, 540), (960, 540), (960, 540), (960, 540), (960, 540), (960, 540), (960, 540), (960, 540), (960, 540), (960, 538), (960, 533), (951, 524), (918, 493), (876, 463), (824, 427), (773, 389), (664, 326), (617, 298)]",215.20447430110355,"[2, 9, 7, 8, 1, 5, 4, 3, 6]","(0, 0.25)",DOT002C,DOT,C,English,Thu Aug 09 15:02:45 2018,Mouse
1,3,3,0,57,9,9,1,241,101,140,137,0,500,200,8000,"[(960, 540), (960, 540), (960, 540), (960, 540), (960, 540), (960, 540), (960, 540), (960, 540), (960, 540), (960, 540), (961, 540), (961, 540), (963, 540), (966, 542), (972, 546), (976, 552), (985, 561), (994, 573), (1016, 611), (1031, 636), (1048, 666), (1069, 704), (1122, 797), (1150, 844), (1183, 893)]",57.71824934637343,"[2, 9, 7, 8, 1, 5, 4, 3, 6]","(0, 0.25)",DOT002C,DOT,C,English,Thu Aug 09 15:02:45 2018,Mouse
1,3,3,0,58,9,7,0,-1009,609,400,136,0,500,200,8000,"[(960, 540), (960, 540), (960, 540), (960, 540), (960, 540), (960, 540), (960, 540), (960, 540), (960, 540), (960, 540), (960, 540), (960, 540), (960, 540), (960, 540), (960, 540), (960, 540), (960, 540), (960, 540), (960, 540), (960, 540), (960, 540), (960, 540), (960, 540), (960, 540), (960, 540), (960, 540), (960, 540), (960, 540), (960, 540), (960, 540), (960, 540), (960, 540), (960, 540), (960, 540), (960, 540), (960, 540), (960, 540), (960, 540), (960, 540), (960, 540), (960, 540), (960, 540), (960, 540), (960, 540), (960, 540), (960, 540), (960, 540), (960, 540), (960, 540), (960, 540), (960, 540), (960, 540), (960, 540), (960, 540), (960, 540), (960, 540), (960, 540), (960, 540), (960, 540), (960, 540), (960, 546), (960, 550), (962, 557), (964, 562), (969, 574), (972, 579), (974, 583), (976, 587), (978, 592), (979, 596), (979, 596), (980, 597), (981, 599), (981, 599), (981, 599), (981, 599), (981, 599), (981, 599), (981, 599), (981, 599), (981, 599), (981, 599), (981, 599), (981, 599), (981, 599), (981, 599), (981, 599), (981, 599), (981, 599), (981, 599), (981, 599), (981, 599), (981, 599), (981, 599), (981, 599), (981, 602), (979, 626), (974, 664), (966, 729), (955, 799), (923, 971)]",94.90663335654932,"[2, 9, 7, 8, 1, 5, 4, 3, 6]","(0, 0.25)",DOT002C,DOT,C,English,Thu Aug 09 15:02:45 2018,Mouse
1,3,3,0,59,1,1,1,209,139,70,137,0,500,200,8000,"[(960, 540), (960, 540), (960, 540), (960, 540), (960, 540), (960, 540), (960, 540), (960, 540), (960, 540), (960, 540), (960, 540), (960, 540), (960, 540), (959, 539), (939, 539), (910, 539), (858, 539), (800, 539), (656, 539), (589, 539), (520, 539)]",180.13021745650826,"[2, 9, 7, 8, 1, 5, 4, 3, 6]","(0, 0.25)",DOT002C,DOT,C,English,Thu Aug 09 15:02:45 2018,Mouse
1,3,3,0,60,7,7,1,829,209,620,137,0,500,200,8000,"[(960, 540), (960, 540), (960, 540), (960, 540), (960, 540), (960, 540), (960, 540), (960, 540), (960, 540), (960, 540), (960, 540), (960, 540), (960, 540), (960, 540), (960, 540), (960, 540), (960, 540), (960, 540), (960, 540), (960, 540), (961, 540), (961, 541), (959, 543), (953, 545), (944, 549), (937, 552), (928, 557), (921, 559), (906, 566), (897, 568), (887, 573), (879, 575), (870, 578), (868, 578), (864, 579), (861, 579), (859, 581), (857, 582), (857, 582), (854, 585), (852, 586), (850, 587), (850, 587), (850, 587), (850, 587), (849, 588), (849, 588), (849, 588), (849, 588), (849, 588), (849, 588), (849, 588), (849, 588), (849, 588), (849, 588), (849, 588), (851, 590), (853, 593), (856, 595), (859, 599), (863, 602), (864, 603), (865, 604), (866, 605), (868, 606), (869, 606), (869, 606), (870, 607), (873, 608), (874, 609), (875, 610), (876, 610), (877, 613), (879, 617), (880, 620), (882, 629), (892, 665), (899, 697), (905, 738), (912, 784), (924, 886), (932, 932), (940, 984)]",92.57914750028341,"[2, 9, 7, 8, 1, 5, 4, 3, 6]","(0, 0.25)",DOT002C,DOT,C,English,Thu Aug 09 15:02:45 2018,Mouse
1,3,3,0,61,7,7,1,110,30,80,136,0,500,200,8000,"[(960, 540), (960, 540), (956, 542), (949, 553), (936, 595), (926, 623), (923, 663), (915, 714), (899, 831), (892, 901), (886, 974)]",99.67627109977226,"[2, 9, 7, 8, 1, 5, 4, 3, 6]","(0, 0.25)",DOT002C,DOT,C,English,Thu Aug 09 15:02:45 2018,Mouse
1,3,3,0,62,1,1,1,428,88,340,135,0,500,200,8000,"[(960, 540), (960, 540), (960, 540), (960, 540), (960, 540), (960, 540), (960, 540), (960, 540), (959, 539), (946, 539), (921, 539), (879, 535), (761, 529), (707, 521), (659, 515), (621, 510), (601, 507), (601, 507), (601, 507), (601, 507), (631, 507), (656, 507), (695, 507), (742, 507), (812, 507), (842, 507), (865, 507), (884, 507), (909, 507), (916, 507), (921, 507), (923, 507), (925, 507), (925, 507), (925, 507), (925, 507), (925, 507), (925, 507), (919, 508), (887, 514), (735, 534), (646, 536), (555, 536)]",180.56586584324663,"[2, 9, 7, 8, 1, 5, 4, 3, 6]","(0, 0.25)",DOT002C,DOT,C,English,Thu Aug 09 15:02:45 2018,Mouse
1,3,3,0,63,2,5,0,-589,529,60,134,0,500,200,8000,"[(960, 540), (960, 540), (960, 540), (960, 540), (960, 540), (960, 540), (960, 540), (960, 540), (960, 540), (960, 540), (960, 540), (960, 540), (960, 540), (960, 540), (960, 540), (960, 540), (960, 540), (960, 540), (960, 540), (960, 540), (960, 540), (960, 540), (960, 540), (960, 540), (960, 540), (960, 540), (960, 540), (960, 540), (960, 540), (960, 540), (960, 540), (960, 540), (960, 540), (960, 540), (960, 540), (960, 540), (960, 540), (960, 540), (960, 540), (960, 540), (960, 540), (960, 540), (960, 540), (960, 540), (960, 540), (960, 540), (960, 540), (960, 540), (960, 540), (960, 540), (960, 540), (960, 540), (953, 537), (931, 521), (897, 497), (845, 459), (719, 364), (652, 308), (582, 252)]",217.3039482779834,"[2, 9, 7, 8, 1, 5, 4, 3, 6]","(0, 0.25)",DOT002C,DOT,C,English,Thu Aug 09 15:02:45 2018,Mouse
1,3,3,0,64,7,9,0,-1679,1539,140,135,0,500,200,8000,"[(960, 540), (960, 540), (960, 540), (960, 540), (960, 540), (960, 540), (960, 540), (960, 540), (960, 540), (960, 540), (960, 540), (960, 540), (960, 540), (960, 540), (960, 540), (960, 540), (960, 540), (960, 540), (960, 540), (960, 540), (960, 540), (960, 540), (960, 540), (960, 540), (960, 540), (960, 540), (960, 540), (960, 540), (960, 540), (960, 540), (960, 540), (960, 540), (960, 540), (960, 540), (960, 540), (960, 540), (960, 540), (960, 540), (960, 540), (960, 540), (960, 540), (960, 540), (960, 540), (960, 540), (960, 540), (960, 540), (960, 540), (960, 540), (960, 540), (960, 540), (960, 540), (960, 540), (960, 540), (960, 540), (960, 540), (960, 540), (960, 540), (960, 540), (960, 540), (960, 540), (960, 540), (960, 540), (960, 540), (960, 540), (960, 540), (960, 540), (960, 540), (960, 540), (960, 540), (960, 540), (960, 540), (960, 540), (960, 540), (960, 540), (960, 540), (960, 540), (960, 540), (960, 540), (960, 540), (960, 540), (960, 540), (960, 540), (960, 540), (960, 540), (960, 540), (960, 540), (960, 540), (960, 540), (960, 540), (960, 540), (960, 540), (960, 540), (960, 540), (960, 540), (960, 540), (960, 540), (960, 540), (960, 540), (960, 540), (960, 540), (960, 540), (960, 540), (960, 540), (960, 540), (960, 540), (960, 540), (960, 540), (960, 540), (960, 540), (960, 540), (960, 540), (960, 540), (960, 540), (960, 540), (960, 540), (960, 540), (960, 540), (960, 540), (960, 540), (960, 540), (960, 540), (960, 540), (960, 540), (960, 540), (960, 540), (960, 540), (960, 540), (960, 540), (960, 540), (960, 540), (960, 540), (960, 540), (960, 540), (960, 540), (960, 540), (960, 540), (960, 540), (960, 540), (960, 540), (960, 540), (960, 540), (960, 540), (960, 540), (960, 540), (960, 540), (960, 540), (960, 540), (960, 540), (960, 540), (960, 540), (960, 540), (960, 540), (960, 540), (961, 540), (962, 540), (962, 540), (963, 540), (965, 540), (967, 542), (971, 546), (982, 567), (993, 587), (1008, 614), (1024, 641), (1089, 720), (1130, 763), (1182, 815), (1236, 865)]",49.66106018159408,"[2, 9, 7, 8, 1, 5, 4, 3, 6]","(0, 0.25)",DOT002C,DOT,C,English,Thu Aug 09 15:02:45 2018,Mouse
1,3,3,0,65,2,3,0,-560,390,170,136,0,500,200,8000,"[(960, 540), (960, 540), (960, 540), (960, 540), (960, 540), (960, 540), (960, 540), (960, 540), (960, 540), (960, 540), (960, 540), (960, 540), (960, 540), (960, 540), (960, 540), (960, 540), (960, 540), (960, 540), (960, 540), (960, 540), (960, 540), (960, 540), (960, 540), (960, 540), (960, 540), (960, 540), (960, 540), (960, 540), (960, 540), (960, 540), (960, 540), (960, 540), (960, 540), (960, 540), (960, 540), (960, 540), (960, 540), (960, 540), (961, 537), (963, 535), (965, 534), (967, 531), (971, 528), (977, 519), (980, 513), (983, 508), (985, 501), (995, 482), (1002, 469), (1022, 446), (1052, 404), (1107, 326), (1134, 290), (1155, 252), (1177, 216), (1213, 153)]",303.17452253599095,"[2, 9, 7, 8, 1, 5, 4, 3, 6]","(0, 0.25)",DOT002C,DOT,C,English,Thu Aug 09 15:02:45 2018,Mouse
1,3,3,0,66,6,6,1,350,300,50,137,0,500,200,8000,"[(960, 540), (960, 540), (960, 540), (960, 540), (960, 540), (960, 540), (960, 540), (960, 540), (960, 540), (960, 540), (960, 540), (960, 540), (960, 540), (960, 540), (960, 540), (960, 540), (960, 540), (960, 540), (960, 540), (960, 540), (960, 540), (960, 540), (960, 540), (960, 540), (960, 540), (960, 540), (960, 540), (960, 540), (960, 540), (965, 540), (1017, 523), (1078, 506), (1163, 493), (1269, 474), (1507, 444)]",350.0458078134679,"[2, 9, 7, 8, 1, 5, 4, 3, 6]","(0, 0.25)",DOT002C,DOT,C,English,Thu Aug 09 15:02:45 2018,Mouse
1,3,3,0,67,1,1,1,189,29,160,137,0,500,200,8000,"[(959, 540), (959, 540), (957, 540), (956, 541), (956, 541), (954, 541), (948, 542), (943, 543), (934, 544), (921, 545), (884, 546), (862, 546), (842, 546), (817, 546), (761, 546), (719, 546), (672, 546), (614, 546), (498, 546)]",179.2559407971113,"[2, 9, 7, 8, 1, 5, 4, 3, 6]","(0, 0.25)",DOT002C,DOT,C,English,Thu Aug 09 15:02:45 2018,Mouse
1,3,3,0,68,4,4,1,558,508,50,136,0,500,200,8000,"[(960, 540), (960, 540), (960, 540), (960, 540), (960, 540), (960, 540), (960, 540), (960, 540), (960, 540), (960, 540), (960, 540), (960, 540), (960, 540), (960, 540), (960, 540), (960, 540), (960, 540), (960, 540), (960, 540), (960, 540), (960, 540), (960, 540), (960, 540), (960, 540), (960, 540), (960, 540), (960, 540), (960, 540), (960, 540), (960, 540), (960, 540), (960, 540), (960, 540), (960, 540), (960, 540), (960, 540), (960, 540), (960, 540), (960, 540), (960, 540), (960, 540), (960, 540), (960, 540), (960, 540), (960, 540), (960, 540), (960, 540), (960, 540), (960, 540), (960, 540), (961, 511), (952, 449), (942, 381), (931, 307), (912, 169), (904, 110)]",262.5799851047388,"[2, 9, 7, 8, 1, 5, 4, 3, 6]","(0, 0.25)",DOT002C,DOT,C,English,Thu Aug 09 15:02:45 2018,Mouse
1,3,3,0,69,1,1,1,350,50,300,135,0,500,200,8000,"[(960, 540), (960, 540), (960, 540), (960, 540), (960, 542), (946, 547), (939, 548), (933, 551), (931, 551), (930, 551), (930, 551), (930, 551), (930, 551), (930, 551), (930, 551), (930, 551), (930, 551), (930, 551), (930, 551), (930, 551), (930, 551), (930, 551), (930, 551), (930, 551), (930, 551), (930, 551), (930, 551), (930, 551), (927, 551), (907, 551), (878, 551), (826, 551), (762, 551), (602, 551), (524, 551)]",178.5547708656297,"[2, 9, 7, 8, 1, 5, 4, 3, 6]","(0, 0.25)",DOT002C,DOT,C,English,Thu Aug 09 15:02:45 2018,Mouse
1,3,3,0,70,7,7,1,739,479,260,134,0,500,200,8000,"[(960, 540), (960, 540), (960, 540), (960, 540), (960, 540), (960, 540), (960, 540), (960, 540), (960, 540), (960, 540), (960, 540), (960, 540), (960, 540), (960, 540), (960, 540), (960, 540), (960, 540), (960, 540), (960, 540), (960, 540), (960, 540), (960, 540), (960, 540), (960, 540), (960, 540), (960, 540), (960, 540), (960, 540), (960, 540), (960, 540), (960, 540), (960, 540), (960, 540), (960, 540), (960, 540), (960, 540), (960, 540), (960, 540), (960, 540), (960, 540), (960, 540), (960, 540), (960, 540), (960, 540), (960, 540), (960, 540), (960, 540), (961, 540), (959, 546), (952, 554), (948, 558), (944, 562), (942, 564), (938, 568), (938, 569), (938, 569), (937, 569), (936, 570), (936, 570), (936, 570), (936, 570), (936, 570), (936, 572), (936, 575), (936, 581), (933, 604), (931, 623), (927, 658), (922, 695), (913, 786), (913, 836), (911, 881), (911, 928), (900, 1041)]",96.82924430319808,"[2, 9, 7, 8, 1, 5, 4, 3, 6]","(0, 0.25)",DOT002C,DOT,C,English,Thu Aug 09 15:02:45 2018,Mouse
1,3,3,0,71,4,4,1,510,470,40,133,0,500,200,8000,"[(960, 540), (960, 540), (960, 540), (960, 540), (960, 540), (960, 540), (960, 540), (960, 540), (960, 540), (960, 540), (960, 540), (960, 540), (960, 540), (960, 540), (960, 540), (960, 540), (960, 540), (960, 540), (960, 540), (960, 540), (960, 540), (960, 540), (960, 540), (960, 540), (960, 540), (960, 540), (960, 540), (960, 540), (960, 540), (960, 540), (960, 540), (960, 540), (960, 540), (960, 540), (960, 540), (960, 540), (960, 540), (960, 540), (960, 540), (960, 540), (960, 540), (960, 540), (960, 540), (960, 540), (960, 540), (960, 540), (960, 498), (960, 431), (959, 362), (948, 280), (928, 117)]",265.6738077967775,"[2, 9, 7, 8, 1, 5, 4, 3, 6]","(0, 0.25)",DOT002C,DOT,C,English,Thu Aug 09 15:02:45 2018,Mouse
1,3,3,0,72,5,5,1,549,489,60,132,0,500,200,8000,"[(960, 540), (960, 540), (960, 540), (960, 540), (960, 540), (960, 540), (960, 540), (960, 540), (960, 540), (960, 540), (960, 540), (960, 540), (960, 540), (960, 540), (960, 540), (960, 540), (960, 540), (960, 540), (960, 540), (960, 540), (960, 540), (960, 540), (960, 540), (960, 540), (960, 540), (960, 540), (960, 540), (960, 540), (960, 540), (960, 540), (960, 540), (960, 540), (960, 540), (960, 540), (960, 540), (960, 540), (960, 540), (960, 540), (960, 540), (960, 540), (960, 540), (960, 540), (960, 540), (960, 540), (960, 540), (960, 540), (960, 540), (960, 540), (960, 539), (957, 535), (935, 505), (901, 465), (858, 424), (801, 377), (667, 267)]",222.97625616076581,"[2, 9, 7, 8, 1, 5, 4, 3, 6]","(0, 0.25)",DOT002C,DOT,C,English,Thu Aug 09 15:02:45 2018,Mouse
1,3,3,0,73,9,1,0,-169,99,70,131,0,500,200,8000,"[(960, 540), (960, 540), (960, 540), (960, 540), (960, 540), (960, 540), (960, 540), (960, 540), (960, 540), (959, 540), (949, 540), (932, 540), (903, 543), (852, 548), (712, 563), (632, 563), (560, 563)]",176.70911631393273,"[2, 9, 7, 8, 1, 5, 4, 3, 6]","(0, 0.25)",DOT002C,DOT,C,English,Thu Aug 09 15:02:45 2018,Mouse
1,3,3,0,74,5,5,1,713,628,85,132,0,500,200,8000,"[(960, 540), (960, 540), (960, 540), (960, 540), (960, 540), (960, 540), (960, 540), (960, 540), (960, 540), (960, 540), (960, 540), (960, 540), (960, 540), (960, 540), (960, 540), (960, 540), (960, 540), (960, 540), (960, 540), (960, 540), (960, 540), (960, 540), (960, 540), (960, 540), (960, 540), (960, 540), (960, 540), (960, 540), (960, 540), (960, 540), (960, 540), (960, 540), (960, 540), (960, 540), (960, 540), (960, 540), (960, 540), (960, 540), (960, 540), (960, 540), (960, 540), (960, 540), (960, 540), (960, 540), (960, 540), (960, 540), (960, 540), (960, 540), (960, 540), (960, 540), (960, 540), (960, 540), (960, 540), (960, 540), (960, 540), (960, 540), (960, 540), (960, 540), (960, 540), (960, 540), (960, 540), (960, 540), (960, 534), (940, 501), (871, 393), (828, 340), (785, 286), (736, 232), (654, 150)]",231.88172363063694,"[2, 9, 7, 8, 1, 5, 4, 3, 6]","(0, 0.25)",DOT002C,DOT,C,English,Thu Aug 09 15:02:45 2018,Mouse
1,3,3,0,75,2,1,0,-614,564,50,132,0,500,200,8000,"[(960, 540), (960, 540), (960, 540), (960, 540), (960, 540), (960, 540), (960, 540), (960, 540), (960, 540), (960, 540), (960, 540), (960, 540), (960, 540), (960, 540), (960, 540), (960, 540), (960, 540), (960, 540), (960, 540), (960, 540), (960, 540), (960, 540), (960, 540), (960, 540), (960, 540), (960, 540), (960, 540), (960, 540), (960, 540), (960, 540), (960, 540), (960, 540), (960, 540), (960, 540), (960, 540), (960, 540), (960, 540), (960, 540), (960, 540), (960, 540), (960, 540), (960, 540), (960, 540), (960, 540), (960, 540), (960, 540), (960, 540), (960, 540), (960, 540), (960, 540), (960, 540), (960, 540), (960, 540), (960, 540), (960, 540), (960, 540), (960, 540), (960, 540), (956, 539), (945, 539), (924, 539), (877, 539), (675, 532), (550, 521)]",182.6532720284122,"[2, 9, 7, 8, 1, 5, 4, 3, 6]","(0, 0.25)",DOT002C,DOT,C,English,Thu Aug 09 15:02:45 2018,Mouse
1,3,3,0,76,6,5,0,-369,299,70,133,0,500,200,8000,"[(960, 540), (960, 540), (960, 540), (960, 540), (960, 540), (960, 540), (960, 540), (960, 540), (960, 540), (960, 540), (960, 540), (960, 540), (960, 540), (960, 540), (960, 540), (960, 540), (960, 540), (960, 540), (960, 540), (960, 540), (960, 540), (960, 540), (960, 540), (960, 540), (960, 540), (960, 540), (960, 540), (960, 540), (960, 540), (961, 539), (954, 535), (935, 524), (909, 501), (820, 401), (768, 347), (715, 288), (668, 234)]",226.34112777971717,"[2, 9, 7, 8, 1, 5, 4, 3, 6]","(0, 0.25)",DOT002C,DOT,C,English,Thu Aug 09 15:02:45 2018,Mouse
1,3,3,0,77,1,1,1,699,639,60,134,0,500,200,8000,"[(960, 540), (960, 540), (960, 540), (960, 540), (960, 540), (960, 540), (960, 540), (960, 540), (960, 540), (960, 540), (960, 540), (960, 540), (960, 540), (960, 540), (960, 540), (960, 540), (960, 540), (960, 540), (960, 540), (960, 540), (960, 540), (960, 540), (960, 540), (960, 540), (960, 540), (960, 540), (960, 540), (960, 540), (960, 540), (960, 540), (960, 540), (960, 540), (960, 540), (960, 540), (960, 540), (960, 540), (960, 540), (960, 540), (960, 540), (960, 540), (960, 540), (960, 540), (960, 540), (960, 540), (960, 540), (960, 540), (960, 540), (960, 540), (960, 540), (960, 540), (960, 540), (960, 540), (960, 540), (960, 540), (960, 540), (960, 540), (960, 540), (960, 540), (960, 540), (960, 540), (960, 540), (960, 540), (960, 540), (944, 542), (920, 545), (885, 550), (824, 552), (666, 552), (567, 552), (470, 552)]",178.59711846734854,"[2, 9, 7, 8, 1, 5, 4, 3, 6]","(0, 0.25)",DOT002C,DOT,C,English,Thu Aug 09 15:02:45 2018,Mouse
1,3,3,0,78,1,5,0,-680,610,70,134,0,500,200,8000,"[(960, 540), (960, 540), (960, 540), (960, 540), (960, 540), (960, 540), (960, 540), (960, 540), (960, 540), (960, 540), (960, 540), (960, 540), (960, 540), (960, 540), (960, 540), (960, 540), (960, 540), (960, 540), (960, 540), (960, 540), (960, 540), (960, 540), (960, 540), (960, 540), (960, 540), (960, 540), (960, 540), (960, 540), (960, 540), (960, 540), (960, 540), (960, 540), (960, 540), (960, 540), (960, 540), (960, 540), (960, 540), (960, 540), (960, 540), (960, 540), (960, 540), (960, 540), (960, 540), (960, 540), (960, 540), (960, 540), (960, 540), (960, 540), (960, 540), (960, 540), (960, 540), (960, 540), (960, 540), (960, 540), (960, 540), (960, 540), (960, 540), (960, 540), (960, 540), (960, 540), (958, 530), (943, 513), (924, 495), (892, 462), (813, 381), (759, 331), (705, 289), (642, 245)]",222.85124786540518,"[2, 9, 7, 8, 1, 5, 4, 3, 6]","(0, 0.25)",DOT002C,DOT,C,English,Thu Aug 09 15:02:45 2018,Mouse
1,3,3,0,79,6,6,1,399,319,80,135,0,500,200,8000,"[(960, 540), (960, 540), (960, 540), (960, 540), (960, 540), (960, 540), (960, 540), (960, 540), (960, 540), (960, 540), (960, 540), (960, 540), (960, 540), (960, 540), (960, 540), (960, 540), (960, 540), (960, 540), (960, 540), (960, 540), (960, 540), (960, 540), (960, 540), (960, 540), (960, 540), (960, 540), (960, 540), (960, 540), (960, 540), (960, 540), (960, 540), (962, 539), (970, 537), (981, 536), (996, 534), (1089, 530), (1137, 526), (1196, 518), (1264, 507), (1407, 474)]",351.60090535214755,"[2, 9, 7, 8, 1, 5, 4, 3, 6]","(0, 0.25)",DOT002C,DOT,C,English,Thu Aug 09 15:02:45 2018,Mouse
1,3,3,0,80,8,6,0,-89,19,70,135,0,500,200,8000,"[(960, 540), (961, 540), (970, 535), (980, 533), (999, 523), (1033, 511), (1190, 469), (1303, 443), (1405, 410)]",343.7150775281166,"[2, 9, 7, 8, 1, 5, 4, 3, 6]","(0, 0.25)",DOT002C,DOT,C,English,Thu Aug 09 15:02:45 2018,Mouse
1,3,3,0,81,7,7,1,488,208,280,136,0,500,200,8000,"[(960, 540), (960, 540), (960, 540), (960, 540), (960, 540), (960, 540), (960, 540), (960, 540), (960, 540), (960, 540), (960, 540), (960, 540), (960, 540), (960, 540), (960, 540), (960, 540), (960, 540), (960, 540), (960, 540), (960, 540), (959, 540), (958, 540), (957, 540), (957, 540), (956, 542), (955, 543), (954, 543), (954, 544), (954, 545), (954, 545), (953, 545), (953, 545), (952, 546), (951, 547), (950, 550), (948, 553), (946, 557), (943, 562), (941, 567), (939, 571), (937, 582), (934, 589), (932, 604), (928, 626), (925, 707), (919, 769), (908, 837), (902, 907), (880, 1051)]",98.8977603258461,"[2, 9, 7, 8, 1, 5, 4, 3, 6]","(0, 0.25)",DOT002C,DOT,C,English,Thu Aug 09 15:02:45 2018,Mouse
1,3,3,0,82,5,5,1,680,230,450,136,0,500,200,8000,"[(960, 540), (960, 540), (960, 540), (960, 540), (960, 540), (960, 540), (960, 540), (960, 540), (960, 540), (960, 540), (960, 540), (960, 540), (960, 540), (960, 540), (960, 540), (960, 540), (960, 540), (960, 540), (960, 540), (960, 540), (960, 540), (960, 540), (960, 534), (959, 531), (957, 525), (954, 519), (948, 497), (946, 481), (941, 454), (938, 417), (925, 342), (915, 313), (909, 294), (906, 277), (900, 261), (900, 257), (900, 256), (899, 255), (899, 255), (899, 255), (899, 255), (899, 255), (899, 255), (897, 256), (894, 261), (892, 264), (885, 280), (883, 285), (880, 290), (879, 293), (876, 297), (875, 298), (875, 299), (874, 300), (873, 302), (872, 302), (872, 302), (870, 302), (859, 302), (850, 302), (839, 302), (820, 302), (764, 302), (744, 296), (722, 288), (701, 281), (672, 265), (660, 257)]",223.32975587019283,"[2, 9, 7, 8, 1, 5, 4, 3, 6]","(0, 0.25)",DOT002C,DOT,C,English,Thu Aug 09 15:02:45 2018,Mouse
1,3,3,0,83,6,6,1,339,259,80,135,0,500,200,8000,"[(960, 540), (960, 540), (960, 540), (960, 540), (960, 540), (960, 540), (960, 540), (960, 540), (960, 540), (960, 540), (960, 540), (960, 540), (960, 540), (960, 540), (960, 540), (960, 540), (960, 540), (960, 540), (960, 540), (960, 540), (960, 540), (960, 540), (960, 540), (960, 540), (960, 540), (961, 541), (966, 541), (973, 541), (985, 540), (1072, 529), (1134, 521), (1202, 510), (1270, 500), (1419, 458)]",349.87100804755767,"[2, 9, 7, 8, 1, 5, 4, 3, 6]","(0, 0.25)",DOT002C,DOT,C,English,Thu Aug 09 15:02:45 2018,Mouse
1,3,3,0,84,6,6,1,70,20,50,134,0,500,200,8000,"[(968, 535), (979, 528), (1063, 502), (1125, 474), (1198, 443), (1265, 415), (1394, 361)]",337.58667309709404,"[2, 9, 7, 8, 1, 5, 4, 3, 6]","(0, 0.25)",DOT002C,DOT,C,English,Thu Aug 09 15:02:45 2018,Mouse
1,3,3,0,85,3,4,0,-1019,949,70,133,0,500,200,8000,"[(960, 540), (960, 540), (960, 540), (960, 540), (960, 540), (960, 540), (960, 540), (960, 540), (960, 540), (960, 540), (960, 540), (960, 540), (960, 540), (960, 540), (960, 540), (960, 540), (960, 540), (960, 540), (960, 540), (960, 540), (960, 540), (960, 540), (960, 540), (960, 540), (960, 540), (960, 540), (960, 540), (960, 540), (960, 540), (960, 540), (960, 540), (960, 540), (960, 540), (960, 540), (960, 540), (960, 540), (960, 540), (960, 540), (960, 540), (960, 540), (960, 540), (960, 540), (960, 540), (960, 540), (960, 540), (960, 540), (960, 540), (960, 540), (960, 540), (960, 540), (960, 540), (960, 540), (960, 540), (960, 540), (960, 540), (960, 540), (960, 540), (960, 540), (960, 540), (960, 540), (960, 540), (960, 540), (960, 540), (960, 540), (960, 540), (960, 540), (960, 540), (960, 540), (960, 540), (960, 540), (960, 540), (960, 540), (960, 540), (960, 540), (960, 540), (960, 540), (960, 540), (960, 540), (960, 540), (960, 540), (960, 540), (960, 540), (960, 540), (960, 540), (960, 540), (960, 540), (960, 540), (960, 540), (960, 540), (960, 540), (960, 540), (960, 540), (960, 540), (960, 540), (956, 529), (947, 501), (935, 454), (914, 393), (876, 276), (860, 223), (842, 175), (823, 135)]",251.3107816354655,"[2, 9, 7, 8, 1, 5, 4, 3, 6]","(0, 0.25)",DOT002C,DOT,C,English,Thu Aug 09 15:02:45 2018,Mouse
1,3,3,0,86,5,5,1,259,179,80,134,0,500,200,8000,"[(960, 540), (960, 540), (960, 540), (960, 540), (960, 540), (960, 540), (960, 540), (960, 540), (960, 540), (960, 540), (960, 540), (960, 540), (960, 540), (960, 540), (960, 540), (960, 540), (960, 540), (959, 539), (948, 533), (905, 502), (872, 478), (838, 452), (797, 409), (700, 325), (668, 292), (645, 264)]",221.22453417571018,"[2, 9, 7, 8, 1, 5, 4, 3, 6]","(0, 0.25)",DOT002C,DOT,C,English,Thu Aug 09 15:02:45 2018,Mouse
1,3,3,0,87,8,8,1,569,249,320,134,0,500,200,8000,"[(960, 540), (960, 540), (960, 540), (960, 540), (960, 540), (960, 540), (960, 540), (960, 540), (960, 540), (960, 540), (960, 540), (960, 540), (960, 540), (960, 540), (960, 540), (960, 540), (960, 540), (960, 540), (960, 540), (960, 540), (960, 540), (960, 540), (960, 540), (960, 540), (960, 542), (960, 543), (960, 543), (958, 544), (958, 547), (958, 547), (957, 548), (957, 548), (957, 548), (957, 548), (957, 548), (957, 548), (957, 548), (957, 548), (957, 548), (956, 550), (954, 550), (950, 551), (948, 551), (946, 552), (943, 552), (941, 554), (940, 554), (936, 556), (925, 563), (915, 572), (897, 587), (866, 611), (793, 662), (757, 691), (720, 720), (680, 752), (612, 807)]",142.5030873910496,"[2, 9, 7, 8, 1, 5, 4, 3, 6]","(0, 0.25)",DOT002C,DOT,C,English,Thu Aug 09 15:02:45 2018,Mouse
1,3,3,0,88,6,6,1,591,531,60,133,0,500,200,8000,"[(960, 540), (960, 540), (960, 540), (960, 540), (960, 540), (960, 540), (960, 540), (960, 540), (960, 540), (960, 540), (960, 540), (960, 540), (960, 540), (960, 540), (960, 540), (960, 540), (960, 540), (960, 540), (960, 540), (960, 540), (960, 540), (960, 540), (960, 540), (960, 540), (960, 540), (960, 540), (960, 540), (960, 540), (960, 540), (960, 540), (960, 540), (960, 540), (960, 540), (960, 540), (960, 540), (960, 540), (960, 540), (960, 540), (960, 540), (960, 540), (960, 540), (960, 540), (960, 540), (960, 540), (960, 540), (960, 540), (960, 540), (960, 540), (960, 540), (960, 540), (960, 540), (960, 540), (960, 540), (963, 537), (969, 531), (997, 511), (1041, 489), (1105, 461), (1175, 433), (1341, 381)]",337.34810834790943,"[2, 9, 7, 8, 1, 5, 4, 3, 6]","(0, 0.25)",DOT002C,DOT,C,English,Thu Aug 09 15:02:45 2018,Mouse
1,3,3,0,89,2,5,0,-889,829,60,132,0,500,200,8000,"[(960, 540), (960, 540), (960, 540), (960, 540), (960, 540), (960, 540), (960, 540), (960, 540), (960, 540), (960, 540), (960, 540), (960, 540), (960, 540), (960, 540), (960, 540), (960, 540), (960, 540), (960, 540), (960, 540), (960, 540), (960, 540), (960, 540), (960, 540), (960, 540), (960, 540), (960, 540), (960, 540), (960, 540), (960, 540), (960, 540), (960, 540), (960, 540), (960, 540), (960, 540), (960, 540), (960, 540), (960, 540), (960, 540), (960, 540), (960, 540), (960, 540), (960, 540), (960, 540), (960, 540), (960, 540), (960, 540), (960, 540), (960, 540), (960, 540), (960, 540), (960, 540), (960, 540), (960, 540), (960, 540), (960, 540), (960, 540), (960, 540), (960, 540), (960, 540), (960, 540), (960, 540), (960, 540), (960, 540), (960, 540), (960, 540), (960, 540), (960, 540), (960, 540), (960, 540), (960, 540), (960, 540), (960, 540), (960, 540), (960, 540), (960, 540), (960, 540), (960, 540), (960, 540), (960, 540), (960, 540), (960, 540), (960, 540), (954, 537), (934, 529), (890, 508), (836, 476), (722, 397), (650, 349), (589, 306)]",212.24076812155542,"[2, 9, 7, 8, 1, 5, 4, 3, 6]","(0, 0.25)",DOT002C,DOT,C,English,Thu Aug 09 15:02:45 2018,Mouse
1,3,3,0,90,4,5,0,-307,247,60,133,0,500,200,8000,"[(960, 540), (960, 540), (960, 540), (960, 540), (960, 540), (960, 540), (960, 540), (960, 540), (960, 540), (960, 540), (960, 540), (960, 540), (960, 540), (960, 540), (960, 540), (960, 540), (960, 540), (960, 540), (960, 540), (960, 540), (960, 540), (960, 540), (960, 540), (960, 540), (960, 528), (939, 480), (898, 424), (849, 357), (755, 267), (703, 236), (664, 211)]",228.02241057757507,"[2, 9, 7, 8, 1, 5, 4, 3, 6]","(0, 0.25)",DOT002C,DOT,C,English,Thu Aug 09 15:02:45 2018,Mouse
1,3,3,0,91,1,1,1,356,286,70,134,0,500,200,8000,"[(960, 540), (960, 540), (960, 540), (960, 540), (960, 540), (960, 540), (960, 540), (960, 540), (960, 540), (960, 540), (960, 540), (960, 540), (960, 540), (960, 540), (960, 540), (960, 540), (960, 540), (960, 540), (960, 540), (960, 540), (960, 540), (960, 540), (960, 540), (960, 540), (960, 540), (960, 540), (960, 540), (960, 540), (951, 540), (937, 541), (920, 543), (886, 545), (736, 545), (651, 545), (565, 545), (477, 545)]",179.40689717414116,"[2, 9, 7, 8, 1, 5, 4, 3, 6]","(0, 0.25)",DOT002C,DOT,C,English,Thu Aug 09 15:02:45 2018,Mouse
1,3,3,0,92,9,5,0,-438,368,70,134,0,500,200,8000,"[(960, 540), (960, 540), (960, 540), (960, 540), (960, 540), (960, 540), (960, 540), (960, 540), (960, 540), (960, 540), (960, 540), (960, 540), (960, 540), (960, 540), (960, 540), (960, 540), (960, 540), (960, 540), (960, 540), (960, 540), (960, 540), (960, 540), (960, 540), (960, 540), (960, 540), (960, 540), (960, 540), (960, 540), (960, 540), (960, 540), (960, 540), (960, 540), (960, 540), (960, 540), (960, 540), (960, 540), (957, 540), (948, 533), (931, 512), (869, 441), (825, 395), (780, 358), (736, 312), (651, 239)]",224.2486230169757,"[2, 9, 7, 8, 1, 5, 4, 3, 6]","(0, 0.25)",DOT002C,DOT,C,English,Thu Aug 09 15:02:45 2018,Mouse
1,3,3,0,93,2,7,0,-398,319,79,135,0,500,200,8000,"[(960, 540), (960, 540), (960, 540), (960, 540), (960, 540), (960, 540), (960, 540), (960, 540), (960, 540), (960, 540), (960, 540), (960, 540), (960, 540), (960, 540), (960, 540), (960, 540), (960, 540), (960, 540), (960, 540), (960, 540), (960, 540), (960, 540), (960, 540), (960, 540), (960, 540), (960, 540), (960, 540), (960, 540), (960, 540), (960, 540), (960, 540), (962, 552), (964, 595), (964, 639), (958, 735), (952, 781), (946, 826), (939, 864), (930, 928), (926, 953)]",94.7062311092253,"[2, 9, 7, 8, 1, 5, 4, 3, 6]","(0, 0.25)",DOT002C,DOT,C,English,Thu Aug 09 15:02:45 2018,Mouse
1,3,3,0,94,4,5,0,-180,60,120,136,0,500,200,8000,"[(960, 540), (960, 540), (960, 540), (960, 540), (960, 540), (960, 539), (957, 539), (954, 539), (950, 539), (928, 533), (908, 526), (882, 518), (853, 504), (781, 469), (745, 448), (704, 420), (665, 395), (567, 318)]",209.4614749709679,"[2, 9, 7, 8, 1, 5, 4, 3, 6]","(0, 0.25)",DOT002C,DOT,C,English,Thu Aug 09 15:02:45 2018,Mouse
1,3,3,0,95,8,8,1,639,319,320,137,0,500,200,8000,"[(960, 540), (960, 540), (960, 540), (960, 540), (960, 540), (960, 540), (960, 540), (960, 540), (960, 540), (960, 540), (960, 540), (960, 540), (960, 540), (960, 540), (960, 540), (960, 540), (960, 540), (960, 540), (960, 540), (960, 540), (960, 540), (960, 540), (960, 540), (960, 540), (960, 540), (960, 540), (960, 540), (960, 540), (960, 540), (960, 540), (960, 540), (962, 543), (964, 547), (964, 551), (964, 564), (964, 569), (964, 575), (964, 578), (965, 584), (965, 585), (965, 586), (965, 586), (965, 586), (965, 587), (965, 587), (965, 587), (965, 588), (965, 588), (965, 588), (965, 589), (965, 589), (964, 589), (962, 590), (958, 593), (944, 604), (932, 614), (915, 625), (890, 643), (839, 683), (810, 704), (781, 729), (755, 752), (689, 792), (658, 814)]",137.78302075385662,"[2, 9, 7, 8, 1, 5, 4, 3, 6]","(0, 0.25)",DOT002C,DOT,C,English,Thu Aug 09 15:02:45 2018,Mouse
1,3,3,0,96,8,8,1,299,59,240,137,0,500,200,8000,"[(960, 540), (960, 540), (960, 540), (960, 540), (960, 540), (959, 539), (956, 539), (954, 539), (952, 539), (949, 540), (948, 540), (946, 541), (946, 541), (944, 542), (941, 542), (938, 545), (930, 550), (916, 563), (904, 574), (892, 584), (877, 598), (847, 622), (832, 636), (807, 653), (784, 667), (734, 692), (707, 705), (681, 716), (649, 729), (603, 756)]",148.8242995042614,"[2, 9, 7, 8, 1, 5, 4, 3, 6]","(0, 0.25)",DOT002C,DOT,C,English,Thu Aug 09 15:02:45 2018,Mouse
1,3,3,0,97,9,9,1,369,109,260,136,0,500,200,8000,"[(960, 540), (960, 540), (960, 540), (960, 540), (960, 540), (960, 540), (960, 540), (960, 540), (960, 540), (960, 540), (963, 540), (964, 540), (967, 540), (969, 540), (974, 540), (978, 540), (980, 540), (984, 540), (992, 546), (994, 547), (996, 550), (999, 553), (1005, 567), (1010, 578), (1018, 591), (1025, 605), (1045, 635), (1055, 647), (1065, 666), (1076, 680), (1090, 706), (1100, 725), (1111, 751), (1119, 779), (1144, 841), (1161, 881), (1176, 916)]",60.124007308310574,"[2, 9, 7, 8, 1, 5, 4, 3, 6]","(0, 0.25)",DOT002C,DOT,C,English,Thu Aug 09 15:02:45 2018,Mouse
1,3,3,0,98,4,5,0,-509,359,150,135,0,500,200,8000,"[(960, 540), (960, 540), (960, 540), (960, 540), (960, 540), (960, 540), (960, 540), (960, 540), (960, 540), (960, 540), (960, 540), (960, 540), (960, 540), (960, 540), (960, 540), (960, 540), (960, 540), (960, 540), (960, 540), (960, 540), (960, 540), (960, 540), (960, 540), (960, 540), (960, 540), (960, 540), (960, 540), (960, 540), (960, 540), (960, 540), (960, 540), (960, 540), (960, 540), (960, 540), (960, 540), (959, 540), (954, 540), (952, 540), (951, 540), (949, 539), (937, 535), (930, 534), (919, 530), (904, 523), (863, 495), (840, 477), (813, 455), (779, 424), (698, 345), (658, 311), (607, 269)]",217.5136433600194,"[2, 9, 7, 8, 1, 5, 4, 3, 6]","(0, 0.25)",DOT002C,DOT,C,English,Thu Aug 09 15:02:45 2018,Mouse
1,3,3,0,99,4,5,0,-429,219,210,136,0,500,200,8000,"[(960, 540), (960, 540), (960, 540), (960, 540), (960, 540), (960, 540), (960, 540), (960, 540), (960, 540), (960, 540), (960, 540), (960, 540), (960, 540), (960, 540), (960, 540), (960, 540), (960, 540), (960, 540), (960, 540), (960, 540), (960, 540), (960, 538), (959, 535), (958, 532), (956, 523), (953, 518), (952, 515), (950, 511), (948, 506), (947, 504), (946, 502), (945, 501), (940, 497), (935, 493), (929, 489), (919, 482), (875, 460), (840, 443), (800, 426), (758, 409), (673, 374), (632, 355), (589, 335)]",208.92331244181466,"[2, 9, 7, 8, 1, 5, 4, 3, 6]","(0, 0.25)",DOT002C,DOT,C,English,Thu Aug 09 15:02:45 2018,Mouse
1,3,3,0,100,5,5,1,148,18,130,137,0,500,200,8000,"[(958, 540), (957, 539), (955, 538), (952, 535), (942, 525), (928, 515), (916, 504), (898, 491), (853, 459), (822, 435), (781, 413), (738, 392), (663, 356), (626, 341), (613, 336)]",210.45111091560523,"[2, 9, 7, 8, 1, 5, 4, 3, 6]","(0, 0.25)",DOT002C,DOT,C,English,Thu Aug 09 15:02:45 2018,Mouse
1,3,3,0,101,2,7,0,-781,291,490,137,0,500,200,8000,"[(960, 540), (960, 540), (960, 540), (960, 540), (960, 540), (960, 540), (960, 540), (960, 540), (960, 540), (960, 540), (960, 540), (960, 540), (960, 540), (960, 540), (960, 540), (960, 540), (960, 540), (960, 540), (960, 540), (960, 540), (960, 540), (960, 540), (960, 540), (960, 540), (960, 540), (960, 540), (960, 540), (960, 540), (960, 540), (959, 542), (954, 546), (950, 548), (942, 553), (930, 560), (921, 564), (911, 570), (900, 576), (872, 593), (864, 598), (852, 604), (845, 608), (830, 617), (824, 621), (815, 626), (808, 630), (794, 640), (792, 641), (788, 643), (788, 644), (787, 644), (787, 644), (787, 644), (787, 644), (787, 644), (787, 644), (787, 644), (787, 644), (787, 645), (787, 645), (787, 645), (789, 645), (796, 645), (797, 645), (799, 645), (803, 645), (812, 649), (817, 651), (824, 654), (831, 659), (847, 681), (853, 694), (861, 714), (872, 740), (888, 789), (894, 819), (901, 849), (910, 879), (917, 927), (920, 945)]",95.64054943215683,"[2, 9, 7, 8, 1, 5, 4, 3, 6]","(0, 0.25)",DOT002C,DOT,C,English,Thu Aug 09 15:02:45 2018,Mouse
1,3,3,0,102,7,7,1,289,179,110,138,0,500,200,8000,"[(960, 540), (960, 540), (960, 540), (960, 540), (960, 540), (960, 540), (960, 540), (960, 540), (960, 540), (960, 540), (960, 540), (960, 540), (960, 540), (960, 540), (960, 540), (960, 540), (960, 540), (960, 541), (960, 543), (959, 546), (957, 550), (952, 566), (947, 582), (939, 607), (930, 643), (914, 765), (903, 838), (901, 913), (901, 980)]",97.63728684055756,"[2, 9, 7, 8, 1, 5, 4, 3, 6]","(0, 0.25)",DOT002C,DOT,C,English,Thu Aug 09 15:02:45 2018,Mouse
1,3,3,0,103,4,4,1,399,239,160,138,0,500,200,8000,"[(960, 540), (960, 540), (960, 540), (960, 540), (960, 540), (960, 540), (960, 540), (960, 540), (960, 540), (960, 540), (960, 540), (960, 540), (960, 540), (960, 540), (960, 540), (960, 540), (960, 540), (960, 540), (960, 540), (960, 540), (960, 540), (960, 540), (960, 540), (960, 531), (960, 522), (960, 511), (960, 498), (952, 448), (938, 401), (927, 362), (916, 328), (893, 273), (884, 252), (877, 232), (869, 214), (857, 187), (852, 174), (851, 167), (851, 163), (848, 151)]",253.93795184183983,"[2, 9, 7, 8, 1, 5, 4, 3, 6]","(0, 0.25)",DOT002C,DOT,C,English,Thu Aug 09 15:02:45 2018,Mouse
1,3,3,0,104,7,7,1,269,199,70,137,0,500,200,8000,"[(960, 540), (960, 540), (960, 540), (960, 540), (960, 540), (960, 540), (960, 540), (960, 540), (960, 540), (960, 540), (960, 540), (960, 540), (960, 540), (960, 540), (960, 540), (960, 540), (960, 540), (960, 540), (960, 540), (960, 553), (958, 588), (952, 636), (929, 735), (916, 787), (903, 837), (889, 884), (870, 948)]",102.43956201884656,"[2, 9, 7, 8, 1, 5, 4, 3, 6]","(0, 0.25)",DOT002C,DOT,C,English,Thu Aug 09 15:02:45 2018,Mouse
1,3,3,0,105,8,9,0,-429,339,90,136,0,500,200,8000,"[(960, 540), (960, 540), (960, 540), (960, 540), (960, 540), (960, 540), (960, 540), (960, 540), (960, 540), (960, 540), (960, 540), (960, 540), (960, 540), (960, 540), (960, 540), (960, 540), (960, 540), (960, 540), (960, 540), (960, 540), (960, 540), (960, 540), (960, 540), (960, 540), (960, 540), (960, 540), (960, 540), (960, 540), (960, 540), (960, 540), (960, 540), (960, 540), (960, 540), (962, 540), (968, 545), (973, 554), (982, 569), (1000, 602), (1050, 689), (1076, 736), (1103, 785), (1126, 826), (1168, 890)]",59.27758904771319,"[2, 9, 7, 8, 1, 5, 4, 3, 6]","(0, 0.25)",DOT002C,DOT,C,English,Thu Aug 09 15:02:45 2018,Mouse
1,3,3,0,106,9,9,1,190,30,160,137,0,500,200,8000,"[(960, 540), (960, 540), (961, 541), (963, 545), (964, 547), (969, 551), (976, 560), (978, 563), (980, 568), (983, 572), (993, 589), (995, 598), (1001, 610), (1007, 629), (1028, 696), (1040, 740), (1054, 787), (1072, 838), (1106, 915)]",68.72737826409652,"[2, 9, 7, 8, 1, 5, 4, 3, 6]","(0, 0.25)",DOT002C,DOT,C,English,Thu Aug 09 15:02:45 2018,Mouse
1,3,3,0,107,2,2,1,709,379,330,137,0,500,200,8000,"[(960, 540), (960, 540), (960, 540), (960, 540), (960, 540), (960, 540), (960, 540), (960, 540), (960, 540), (960, 540), (960, 540), (960, 540), (960, 540), (960, 540), (960, 540), (960, 540), (960, 540), (960, 540), (960, 540), (960, 540), (960, 540), (960, 540), (960, 540), (960, 540), (960, 540), (960, 540), (960, 540), (960, 540), (960, 540), (960, 540), (960, 540), (960, 540), (960, 540), (960, 540), (960, 540), (960, 540), (960, 540), (961, 540), (966, 539), (970, 534), (974, 528), (981, 521), (994, 496), (998, 485), (1003, 475), (1007, 466), (1011, 459), (1013, 458), (1014, 456), (1016, 456), (1020, 456), (1021, 456), (1022, 456), (1022, 456), (1026, 456), (1026, 456), (1027, 459), (1029, 463), (1034, 477), (1036, 482), (1038, 486), (1040, 489), (1048, 499), (1053, 504), (1063, 511), (1075, 517), (1137, 540), (1178, 552), (1234, 568), (1297, 585), (1403, 619)]",10.111241908121357,"[2, 9, 7, 8, 1, 5, 4, 3, 6]","(0, 0.25)",DOT002C,DOT,C,English,Thu Aug 09 15:02:45 2018,Mouse
1,3,3,0,108,2,2,1,100,20,80,136,0,500,200,8000,"[(965, 545), (968, 547), (984, 556), (1001, 566), (1026, 580), (1060, 593), (1165, 638), (1228, 657), (1289, 674), (1351, 700)]",22.254729271564457,"[2, 9, 7, 8, 1, 5, 4, 3, 6]","(0, 0.25)",DOT002C,DOT,C,English,Thu Aug 09 15:02:45 2018,Mouse
1,3,3,0,109,5,5,1,569,359,210,135,0,500,200,8000,"[(960, 540), (960, 540), (960, 540), (960, 540), (960, 540), (960, 540), (960, 540), (960, 540), (960, 540), (960, 540), (960, 540), (960, 540), (960, 540), (960, 540), (960, 540), (960, 540), (960, 540), (960, 540), (960, 540), (960, 540), (960, 540), (960, 540), (960, 540), (960, 540), (960, 540), (960, 540), (960, 540), (960, 540), (960, 540), (960, 540), (960, 540), (960, 540), (960, 540), (960, 540), (960, 540), (959, 540), (959, 540), (958, 540), (958, 540), (958, 540), (957, 540), (957, 540), (957, 540), (955, 538), (953, 537), (951, 536), (946, 533), (939, 527), (931, 520), (915, 505), (887, 486), (819, 446), (781, 427), (745, 404), (707, 381), (641, 325), (620, 299)]",215.3299115802807,"[2, 9, 7, 8, 1, 5, 4, 3, 6]","(0, 0.25)",DOT002C,DOT,C,English,Thu Aug 09 15:02:45 2018,Mouse
1,3,3,0,110,2,2,1,530,200,330,134,0,500,200,8000,"[(960, 540), (960, 540), (960, 540), (960, 540), (960, 540), (960, 540), (960, 540), (960, 540), (960, 540), (960, 540), (960, 540), (960, 540), (960, 540), (960, 540), (960, 540), (960, 540), (960, 540), (960, 540), (960, 540), (961, 540), (963, 540), (968, 539), (969, 539), (971, 537), (971, 537), (973, 537), (974, 537), (975, 537), (977, 537), (979, 537), (979, 537), (979, 537), (980, 537), (982, 537), (982, 537), (983, 537), (983, 537), (985, 537), (987, 537), (988, 537), (989, 538), (996, 541), (1001, 543), (1007, 546), (1013, 548), (1039, 554), (1064, 562), (1099, 567), (1148, 575), (1240, 588), (1294, 600), (1344, 614), (1383, 623)]",11.101395525842177,"[2, 9, 7, 8, 1, 5, 4, 3, 6]","(0, 0.25)",DOT002C,DOT,C,English,Thu Aug 09 15:02:45 2018,Mouse
1,3,3,0,111,6,8,0,-848,438,410,133,0,500,200,8000,"[(960, 540), (960, 540), (960, 540), (960, 540), (960, 540), (960, 540), (960, 540), (960, 540), (960, 540), (960, 540), (960, 540), (960, 540), (960, 540), (960, 540), (960, 540), (960, 540), (960, 540), (960, 540), (960, 540), (960, 540), (960, 540), (960, 540), (960, 540), (960, 540), (960, 540), (960, 540), (960, 540), (960, 540), (960, 540), (960, 540), (960, 540), (960, 540), (960, 540), (960, 540), (960, 540), (960, 540), (960, 540), (960, 540), (960, 540), (960, 540), (960, 540), (960, 540), (960, 540), (958, 541), (957, 544), (956, 551), (956, 555), (954, 568), (953, 571), (953, 575), (952, 578), (952, 585), (951, 586), (950, 587), (950, 587), (950, 588), (950, 588), (950, 588), (950, 588), (950, 588), (950, 589), (950, 589), (950, 589), (949, 589), (949, 589), (949, 589), (949, 589), (947, 589), (947, 589), (944, 589), (940, 589), (932, 589), (924, 593), (915, 598), (902, 605), (873, 622), (860, 629), (844, 637), (829, 643), (791, 665), (769, 679), (738, 701), (709, 724), (647, 774), (615, 802)]",142.78622599671425,"[2, 9, 7, 8, 1, 5, 4, 3, 6]","(0, 0.25)",DOT002C,DOT,C,English,Thu Aug 09 15:02:45 2018,Mouse
1,3,3,0,112,9,9,1,378,58,320,134,0,500,200,8000,"[(960, 540), (960, 540), (960, 540), (960, 540), (960, 540), (961, 540), (963, 540), (970, 541), (973, 542), (977, 546), (980, 548), (983, 550), (985, 552), (989, 554), (991, 556), (992, 557), (994, 558), (999, 562), (1001, 564), (1006, 569), (1010, 573), (1015, 581), (1019, 587), (1025, 594), (1027, 600), (1035, 614), (1042, 626), (1048, 637), (1056, 649), (1070, 677), (1078, 692), (1092, 714), (1105, 732), (1139, 782), (1155, 804), (1168, 826), (1181, 846), (1203, 884)]",54.762794145930336,"[2, 9, 7, 8, 1, 5, 4, 3, 6]","(0, 0.25)",DOT002C,DOT,C,English,Thu Aug 09 15:02:45 2018,Mouse
1,3,3,0,113,6,6,1,669,599,70,134,0,500,200,8000,"[(960, 540), (960, 540), (960, 540), (960, 540), (960, 540), (960, 540), (960, 540), (960, 540), (960, 540), (960, 540), (960, 540), (960, 540), (960, 540), (960, 540), (960, 540), (960, 540), (960, 540), (960, 540), (960, 540), (960, 540), (960, 540), (960, 540), (960, 540), (960, 540), (960, 540), (960, 540), (960, 540), (960, 540), (960, 540), (960, 540), (960, 540), (960, 540), (960, 540), (960, 540), (960, 540), (960, 540), (960, 540), (960, 540), (960, 540), (960, 540), (960, 540), (960, 540), (960, 540), (960, 540), (960, 540), (960, 540), (960, 540), (960, 540), (960, 540), (960, 540), (960, 540), (960, 540), (960, 540), (960, 540), (960, 540), (960, 540), (960, 540), (960, 540), (960, 540), (965, 533), (978, 527), (1000, 520), (1067, 485), (1116, 459), (1174, 425), (1245, 392), (1362, 330)]",332.4179707922028,"[2, 9, 7, 8, 1, 5, 4, 3, 6]","(0, 0.25)",DOT002C,DOT,C,English,Thu Aug 09 15:02:45 2018,Mouse
1,3,3,0,114,3,3,1,561,481,80,133,0,500,200,8000,"[(960, 540), (960, 540), (960, 540), (960, 540), (960, 540), (960, 540), (960, 540), (960, 540), (960, 540), (960, 540), (960, 540), (960, 540), (960, 540), (960, 540), (960, 540), (960, 540), (960, 540), (960, 540), (960, 540), (960, 540), (960, 540), (960, 540), (960, 540), (960, 540), (960, 540), (960, 540), (960, 540), (960, 540), (960, 540), (960, 540), (960, 540), (960, 540), (960, 540), (960, 540), (960, 540), (960, 540), (960, 540), (960, 540), (960, 540), (960, 540), (960, 540), (960, 540), (960, 540), (960, 540), (960, 540), (960, 540), (960, 540), (960, 540), (960, 538), (966, 531), (975, 522), (1016, 477), (1043, 435), (1071, 393), (1102, 344), (1178, 238), (1216, 188)]",306.0273733851036,"[2, 9, 7, 8, 1, 5, 4, 3, 6]","(0, 0.25)",DOT002C,DOT,C,English,Thu Aug 09 15:02:45 2018,Mouse
1,3,3,0,115,9,9,1,369,219,150,132,0,500,200,8000,"[(960, 540), (960, 540), (960, 540), (960, 540), (960, 540), (960, 540), (960, 540), (960, 540), (960, 540), (960, 540), (960, 540), (960, 540), (960, 540), (960, 540), (960, 540), (960, 540), (960, 540), (960, 540), (960, 540), (960, 540), (960, 540), (962, 540), (966, 544), (969, 548), (972, 553), (983, 569), (992, 581), (999, 593), (1005, 607), (1025, 652), (1037, 683), (1049, 712), (1064, 746), (1089, 817), (1096, 850), (1107, 886), (1115, 914)]",67.48900016798308,"[2, 9, 7, 8, 1, 5, 4, 3, 6]","(0, 0.25)",DOT002C,DOT,C,English,Thu Aug 09 15:02:45 2018,Mouse
1,3,3,0,116,5,1,0,-368,318,50,131,0,500,200,8000,"[(960, 540), (960, 540), (960, 540), (960, 540), (960, 540), (960, 540), (960, 540), (960, 540), (960, 540), (960, 540), (960, 540), (960, 540), (960, 540), (960, 540), (960, 540), (960, 540), (960, 540), (960, 540), (960, 540), (960, 540), (960, 540), (960, 540), (960, 540), (960, 540), (960, 540), (960, 540), (960, 540), (960, 540), (960, 540), (960, 540), (960, 540), (926, 539), (882, 539), (810, 539), (743, 539), (569, 534), (482, 530)]",181.19848165011848,"[2, 9, 7, 8, 1, 5, 4, 3, 6]","(0, 0.25)",DOT002C,DOT,C,English,Thu Aug 09 15:02:45 2018,Mouse
1,3,3,0,117,3,3,1,420,320,100,132,0,500,200,8000,"[(960, 540), (960, 540), (960, 540), (960, 540), (960, 540), (960, 540), (960, 540), (960, 540), (960, 540), (960, 540), (960, 540), (960, 540), (960, 540), (960, 540), (960, 540), (960, 540), (960, 540), (960, 540), (960, 540), (960, 540), (960, 540), (960, 540), (960, 540), (960, 540), (960, 540), (960, 540), (960, 540), (960, 540), (960, 540), (960, 540), (960, 540), (963, 540), (968, 536), (979, 512), (987, 484), (998, 448), (1018, 397), (1059, 296), (1078, 253), (1098, 210), (1118, 177), (1148, 125)]",294.3710991509108,"[2, 9, 7, 8, 1, 5, 4, 3, 6]","(0, 0.25)",DOT002C,DOT,C,English,Thu Aug 09 15:02:45 2018,Mouse
1,3,3,0,118,2,2,1,320,270,50,132,0,500,200,8000,"[(960, 540), (960, 540), (960, 540), (960, 540), (960, 540), (960, 540), (960, 540), (960, 540), (960, 540), (960, 540), (960, 540), (960, 540), (960, 540), (960, 540), (960, 540), (960, 540), (960, 540), (960, 540), (960, 540), (960, 540), (960, 540), (960, 540), (960, 540), (960, 540), (960, 540), (960, 540), (966, 545), (990, 552), (1029, 563), (1100, 580), (1268, 614), (1363, 627)]",12.18211293268838,"[2, 9, 7, 8, 1, 5, 4, 3, 6]","(0, 0.25)",DOT002C,DOT,C,English,Thu Aug 09 15:02:45 2018,Mouse
1,3,3,0,119,4,5,0,-489,419,70,131,0,500,200,8000,"[(960, 540), (960, 540), (960, 540), (960, 540), (960, 540), (960, 540), (960, 540), (960, 540), (960, 540), (960, 540), (960, 540), (960, 540), (960, 540), (960, 540), (960, 540), (960, 540), (960, 540), (960, 540), (960, 540), (960, 540), (960, 540), (960, 540), (960, 540), (960, 540), (960, 540), (960, 540), (960, 540), (960, 540), (960, 540), (960, 540), (960, 540), (960, 540), (960, 540), (960, 540), (960, 540), (960, 540), (960, 540), (960, 540), (960, 540), (960, 540), (960, 540), (950, 527), (931, 506), (899, 474), (853, 433), (752, 355), (697, 316), (650, 288), (610, 269)]",217.7501069765019,"[2, 9, 7, 8, 1, 5, 4, 3, 6]","(0, 0.25)",DOT002C,DOT,C,English,Thu Aug 09 15:02:45 2018,Mouse
1,3,3,0,120,7,5,0,-348,238,110,132,0,500,200,8000,"[(960, 540), (960, 540), (960, 540), (960, 540), (960, 540), (960, 540), (960, 540), (960, 540), (960, 540), (960, 540), (960, 540), (960, 540), (960, 540), (960, 540), (960, 540), (960, 540), (960, 540), (960, 540), (960, 540), (960, 540), (960, 540), (960, 540), (960, 540), (958, 539), (956, 539), (951, 536), (947, 534), (937, 524), (924, 507), (908, 481), (883, 445), (813, 353), (769, 307), (724, 263), (678, 224)]",228.25411614169377,"[2, 9, 7, 8, 1, 5, 4, 3, 6]","(0, 0.25)",DOT002C,DOT,C,English,Thu Aug 09 15:02:45 2018,Mouse
1,3,3,0,121,9,9,1,1170,1040,130,133,0,500,200,8000,"[(960, 540), (960, 540), (960, 540), (960, 540), (960, 540), (960, 540), (960, 540), (960, 540), (960, 540), (960, 540), (960, 540), (960, 540), (960, 540), (960, 540), (960, 540), (960, 540), (960, 540), (960, 540), (960, 540), (960, 540), (960, 540), (960, 540), (960, 540), (960, 540), (960, 540), (960, 540), (960, 540), (960, 540), (960, 540), (960, 540), (960, 540), (960, 540), (960, 540), (960, 540), (960, 540), (960, 540), (960, 540), (960, 540), (960, 540), (960, 540), (960, 540), (960, 540), (960, 540), (960, 540), (960, 540), (960, 540), (960, 540), (960, 540), (960, 540), (960, 540), (960, 540), (960, 540), (960, 540), (960, 540), (960, 540), (960, 540), (960, 540), (960, 540), (960, 540), (960, 540), (960, 540), (960, 540), (960, 540), (960, 540), (960, 540), (960, 540), (960, 540), (960, 540), (960, 540), (960, 540), (960, 540), (960, 540), (960, 540), (960, 540), (960, 540), (960, 540), (960, 540), (960, 540), (960, 540), (960, 540), (960, 540), (960, 540), (960, 540), (960, 540), (960, 540), (960, 540), (960, 540), (960, 540), (960, 540), (960, 540), (960, 540), (960, 540), (960, 540), (960, 540), (960, 540), (960, 540), (960, 540), (960, 540), (960, 540), (960, 540), (960, 540), (960, 540), (960, 540), (967, 541), (972, 549), (975, 556), (981, 565), (996, 586), (1005, 596), (1019, 610), (1035, 626), (1079, 664), (1103, 686), (1125, 709), (1143, 742), (1182, 831), (1205, 884)]",54.54117679560882,"[2, 9, 7, 8, 1, 5, 4, 3, 6]","(0, 0.25)",DOT002C,DOT,C,English,Thu Aug 09 15:02:45 2018,Mouse
1,3,3,0,122,5,5,1,279,219,60,133,0,500,200,8000,"[(960, 540), (960, 540), (960, 540), (960, 540), (960, 540), (960, 540), (960, 540), (960, 540), (960, 540), (960, 540), (960, 540), (960, 540), (960, 540), (960, 540), (960, 540), (960, 540), (960, 540), (960, 540), (960, 540), (960, 540), (960, 540), (951, 537), (932, 524), (898, 498), (861, 464), (751, 374), (697, 327), (641, 277)]",219.50392375485325,"[2, 9, 7, 8, 1, 5, 4, 3, 6]","(0, 0.25)",DOT002C,DOT,C,English,Thu Aug 09 15:02:45 2018,Mouse
1,3,3,0,123,4,4,1,269,199,70,132,0,500,200,8000,"[(960, 540), (960, 540), (960, 540), (960, 540), (960, 540), (960, 540), (960, 540), (960, 540), (960, 540), (960, 540), (960, 540), (960, 540), (960, 540), (960, 540), (960, 540), (960, 540), (960, 540), (960, 540), (960, 540), (961, 535), (947, 470), (932, 412), (916, 351), (899, 293), (870, 199), (861, 165), (853, 138)]",255.09519900739588,"[2, 9, 7, 8, 1, 5, 4, 3, 6]","(0, 0.25)",DOT002C,DOT,C,English,Thu Aug 09 15:02:45 2018,Mouse
1,3,3,0,124,7,4,0,-219,169,50,131,0,500,200,8000,"[(960, 540), (960, 540), (960, 540), (960, 540), (960, 540), (960, 540), (960, 540), (960, 540), (960, 540), (960, 540), (960, 540), (960, 540), (960, 540), (960, 540), (960, 540), (960, 540), (960, 519), (953, 460), (938, 383), (915, 298), (879, 171), (863, 121)]",256.9654419252449,"[2, 9, 7, 8, 1, 5, 4, 3, 6]","(0, 0.25)",DOT002C,DOT,C,English,Thu Aug 09 15:02:45 2018,Mouse
1,3,3,0,125,2,7,0,-879,309,570,132,0,500,200,8000,"[(960, 540), (960, 540), (960, 540), (960, 540), (960, 540), (960, 540), (960, 540), (960, 540), (960, 540), (960, 540), (960, 540), (960, 540), (960, 540), (960, 540), (960, 540), (960, 540), (960, 540), (960, 540), (960, 540), (960, 540), (960, 540), (960, 540), (960, 540), (960, 540), (960, 540), (960, 540), (960, 540), (960, 540), (960, 540), (960, 540), (960, 542), (958, 549), (948, 559), (895, 610), (864, 636), (825, 661), (792, 683), (726, 721), (702, 736), (680, 747), (669, 751), (652, 759), (650, 759), (649, 760), (649, 760), (649, 760), (649, 760), (649, 760), (649, 760), (649, 760), (649, 760), (650, 759), (658, 754), (679, 742), (700, 733), (718, 725), (745, 713), (821, 686), (865, 674), (908, 657), (944, 644), (995, 626), (1008, 621), (1019, 616), (1024, 613), (1028, 611), (1028, 610), (1029, 610), (1029, 610), (1030, 609), (1030, 609), (1030, 609), (1030, 609), (1030, 609), (1030, 609), (1031, 609), (1031, 615), (1025, 644), (1020, 658), (1017, 672), (1011, 685), (1001, 714), (998, 738), (990, 768), (981, 804), (968, 893), (964, 930), (959, 962)]",90.13577173523362,"[2, 9, 7, 8, 1, 5, 4, 3, 6]","(0, 0.25)",DOT002C,DOT,C,English,Thu Aug 09 15:02:45 2018,Mouse
1,3,3,0,126,3,3,1,349,259,90,133,0,500,200,8000,"[(960, 540), (960, 540), (960, 540), (960, 540), (960, 540), (960, 540), (960, 540), (960, 540), (960, 540), (960, 540), (960, 540), (960, 540), (960, 540), (960, 540), (960, 540), (960, 540), (960, 540), (960, 540), (960, 540), (960, 540), (960, 540), (960, 540), (960, 540), (960, 540), (960, 540), (966, 528), (973, 515), (977, 502), (1000, 447), (1023, 394), (1044, 335), (1062, 282), (1094, 205), (1111, 170), (1126, 143)]",292.6915614527334,"[2, 9, 7, 8, 1, 5, 4, 3, 6]","(0, 0.25)",DOT002C,DOT,C,English,Thu Aug 09 15:02:45 2018,Mouse
1,3,3,0,127,8,6,0,-249,169,80,133,0,500,200,8000,"[(960, 540), (960, 540), (960, 540), (960, 540), (960, 540), (960, 540), (960, 540), (960, 540), (960, 540), (960, 540), (960, 540), (960, 540), (960, 540), (960, 540), (960, 540), (960, 540), (963, 535), (969, 532), (980, 524), (998, 516), (1081, 493), (1145, 474), (1219, 454), (1302, 430), (1479, 378)]",342.66483506664974,"[2, 9, 7, 8, 1, 5, 4, 3, 6]","(0, 0.25)",DOT002C,DOT,C,English,Thu Aug 09 15:02:45 2018,Mouse
1,3,3,0,128,1,1,1,290,240,50,134,0,500,200,8000,"[(960, 540), (960, 540), (960, 540), (960, 540), (960, 540), (960, 540), (960, 540), (960, 540), (960, 540), (960, 540), (960, 540), (960, 540), (960, 540), (960, 540), (960, 540), (960, 540), (960, 540), (960, 540), (960, 540), (960, 540), (960, 540), (960, 540), (960, 540), (954, 540), (928, 540), (872, 540), (705, 531), (593, 515), (479, 496)]",185.22664771193757,"[2, 9, 7, 8, 1, 5, 4, 3, 6]","(0, 0.25)",DOT002C,DOT,C,English,Thu Aug 09 15:02:45 2018,Mouse
1,3,3,0,129,4,4,1,489,409,80,134,0,500,200,8000,"[(960, 540), (960, 540), (960, 540), (960, 540), (960, 540), (960, 540), (960, 540), (960, 540), (960, 540), (960, 540), (960, 540), (960, 540), (960, 540), (960, 540), (960, 540), (960, 540), (960, 540), (960, 540), (960, 540), (960, 540), (960, 540), (960, 540), (960, 540), (960, 540), (960, 540), (960, 540), (960, 540), (960, 540), (960, 540), (960, 540), (960, 540), (960, 540), (960, 540), (960, 540), (960, 540), (960, 540), (960, 540), (960, 540), (960, 540), (960, 540), (961, 535), (961, 523), (958, 503), (953, 463), (943, 367), (935, 304), (929, 259), (924, 221), (906, 131)]",262.4787774203264,"[2, 9, 7, 8, 1, 5, 4, 3, 6]","(0, 0.25)",DOT002C,DOT,C,English,Thu Aug 09 15:02:45 2018,Mouse
1,3,3,0,130,1,2,0,-330,260,70,133,0,500,200,8000,"[(960, 540), (960, 540), (960, 540), (960, 540), (960, 540), (960, 540), (960, 540), (960, 540), (960, 540), (960, 540), (960, 540), (960, 540), (960, 540), (960, 540), (960, 540), (960, 540), (960, 540), (960, 540), (960, 540), (960, 540), (960, 540), (960, 540), (960, 540), (960, 540), (960, 540), (963, 544), (984, 555), (1020, 566), (1062, 577), (1122, 594), (1263, 631), (1338, 653), (1407, 674)]",16.68748401668893,"[2, 9, 7, 8, 1, 5, 4, 3, 6]","(0, 0.25)",DOT002C,DOT,C,English,Thu Aug 09 15:02:45 2018,Mouse
1,3,3,0,131,4,5,0,-379,329,50,134,0,500,200,8000,"[(960, 540), (960, 540), (960, 540), (960, 540), (960, 540), (960, 540), (960, 540), (960, 540), (960, 540), (960, 540), (960, 540), (960, 540), (960, 540), (960, 540), (960, 540), (960, 540), (960, 540), (960, 540), (960, 540), (960, 540), (960, 540), (960, 540), (960, 540), (960, 540), (960, 540), (960, 540), (960, 540), (960, 540), (960, 540), (960, 540), (960, 540), (960, 540), (948, 521), (918, 479), (875, 418), (832, 365), (734, 247), (687, 201)]",231.155168343274,"[2, 9, 7, 8, 1, 5, 4, 3, 6]","(0, 0.25)",DOT002C,DOT,C,English,Thu Aug 09 15:02:45 2018,Mouse
1,3,3,0,132,5,5,1,139,59,80,135,0,500,200,8000,"[(960, 540), (960, 540), (960, 540), (960, 540), (960, 540), (956, 538), (946, 527), (925, 505), (893, 465), (807, 390), (760, 359), (716, 331), (676, 310), (616, 275)]",217.6088165234216,"[2, 9, 7, 8, 1, 5, 4, 3, 6]","(0, 0.25)",DOT002C,DOT,C,English,Thu Aug 09 15:02:45 2018,Mouse
1,3,3,0,133,6,4,0,-119,39,80,135,0,500,200,8000,"[(960, 540), (960, 540), (960, 540), (961, 540), (961, 535), (955, 518), (929, 464), (901, 405), (866, 337), (834, 277), (792, 183), (775, 143)]",245.01471798325142,"[2, 9, 7, 8, 1, 5, 4, 3, 6]","(0, 0.25)",DOT002C,DOT,C,English,Thu Aug 09 15:02:45 2018,Mouse
1,3,3,0,134,5,5,1,181,101,80,136,0,500,200,8000,"[(960, 540), (960, 540), (960, 540), (960, 540), (960, 540), (960, 540), (960, 540), (960, 540), (960, 540), (960, 540), (960, 538), (957, 533), (947, 517), (923, 489), (856, 399), (823, 352), (787, 309), (752, 264), (691, 195)]",232.056096037901,"[2, 9, 7, 8, 1, 5, 4, 3, 6]","(0, 0.25)",DOT002C,DOT,C,English,Thu Aug 09 15:02:45 2018,Mouse
