NativeLangNumber,LanuageNumber,SessionNumber,Block,TrialNum,ConditionNumber,Response,Accuracy,RT,MovementOnsetTime,TimeInMotion,SignalContrast,SignalContrastNumber,StimDisplayTime,MaskTime,MaxResponseTime,MousePositionXY,MouseAngle,WheelOrder,NoiseMuSigma,ParticipantID,LanuageTested,SessionTested,NativeLanuage,Date,ResponseDevice
1,3,4,0,1,9,9,1,1052,102,950,153,0,500,200,8000,"[(960, 540), (960, 540), (960, 540), (960, 540), (960, 540), (960, 540), (960, 540), (960, 540), (960, 540), (960, 540), (960, 542), (960, 542), (960, 543), (960, 545), (960, 545), (960, 546), (960, 546), (960, 548), (960, 549), (960, 549), (960, 551), (960, 553), (960, 554), (960, 554), (960, 555), (960, 558), (960, 558), (960, 560), (960, 561), (960, 565), (960, 565), (960, 567), (960, 569), (960, 572), (960, 573), (962, 575), (962, 576), (963, 577), (963, 579), (963, 580), (965, 582), (966, 584), (966, 585), (966, 585), (967, 586), (967, 586), (967, 586), (967, 586), (967, 586), (967, 586), (967, 586), (967, 586), (967, 586), (967, 586), (967, 586), (967, 586), (967, 586), (967, 586), (967, 586), (967, 586), (967, 586), (967, 586), (967, 586), (967, 586), (967, 586), (967, 586), (969, 588), (970, 588), (971, 591), (979, 601), (983, 606), (989, 614), (995, 620), (1009, 636), (1014, 645), (1020, 658), (1026, 670), (1033, 697), (1034, 709), (1037, 723), (1040, 736), (1045, 757), (1049, 767), (1051, 776), (1056, 785), (1064, 797), (1071, 804), (1077, 809), (1082, 812), (1090, 816), (1093, 818), (1098, 822), (1102, 823), (1109, 829), (1111, 831), (1113, 833), (1117, 836), (1122, 843), (1125, 846), (1129, 850), (1133, 856), (1141, 866), (1146, 874), (1149, 880), (1152, 887), (1159, 899)]",60.99962757380748,"[1, 9, 8, 4, 2, 5, 7, 6, 3]","(0, 0.25)",DOT011D,DOT,D,English,Wed Sep 05 15:02:57 2018,Mouse
1,3,4,0,2,6,6,1,1478,808,670,153,0,500,200,8000,"[(960, 540), (960, 540), (960, 540), (960, 540), (960, 540), (960, 540), (960, 540), (960, 540), (960, 540), (960, 540), (960, 540), (960, 540), (960, 540), (960, 540), (960, 540), (960, 540), (960, 540), (960, 540), (960, 540), (960, 540), (960, 540), (960, 540), (960, 540), (960, 540), (960, 540), (960, 540), (960, 540), (960, 540), (960, 540), (960, 540), (960, 540), (960, 540), (960, 540), (960, 540), (960, 540), (960, 540), (960, 540), (960, 540), (960, 540), (960, 540), (960, 540), (960, 540), (960, 540), (960, 540), (960, 540), (960, 540), (960, 540), (960, 540), (960, 540), (960, 540), (960, 540), (960, 540), (960, 540), (960, 540), (960, 540), (960, 540), (960, 540), (960, 540), (960, 540), (960, 540), (960, 540), (960, 540), (960, 540), (960, 540), (960, 540), (960, 540), (960, 540), (960, 540), (960, 540), (960, 540), (960, 540), (960, 540), (960, 540), (960, 540), (960, 540), (960, 540), (960, 540), (960, 540), (960, 540), (960, 540), (959, 540), (959, 540), (959, 539), (959, 539), (959, 538), (959, 538), (959, 537), (959, 537), (959, 537), (959, 537), (959, 537), (959, 537), (959, 536), (959, 536), (959, 536), (959, 536), (959, 536), (959, 536), (959, 536), (959, 536), (959, 536), (959, 536), (959, 536), (959, 536), (959, 536), (959, 536), (959, 536), (959, 535), (959, 534), (959, 532), (959, 530), (960, 527), (960, 525), (962, 522), (964, 514), (965, 511), (966, 507), (968, 499), (971, 488), (973, 482), (974, 477), (976, 473), (981, 462), (982, 459), (984, 454), (986, 451), (989, 443), (990, 441), (992, 436), (994, 434), (996, 428), (999, 421), (1003, 416), (1006, 411), (1016, 396), (1023, 389), (1029, 381), (1036, 373), (1052, 354), (1061, 344), (1070, 334), (1078, 322), (1102, 293), (1112, 279), (1121, 265), (1133, 246), (1152, 204), (1160, 188)]",299.6044507460049,"[1, 9, 8, 4, 2, 5, 7, 6, 3]","(0, 0.25)",DOT011D,DOT,D,English,Wed Sep 05 15:02:57 2018,Mouse
1,3,4,0,3,2,2,1,1020,100,920,152,0,500,200,8000,"[(960, 540), (960, 540), (960, 540), (960, 540), (960, 540), (960, 540), (960, 540), (960, 540), (960, 540), (960, 541), (960, 541), (960, 541), (960, 541), (960, 541), (960, 541), (960, 541), (960, 541), (960, 541), (960, 541), (960, 541), (960, 541), (960, 541), (960, 541), (960, 541), (960, 541), (960, 541), (960, 541), (960, 541), (960, 541), (960, 541), (960, 541), (960, 541), (960, 541), (960, 541), (960, 541), (960, 541), (960, 541), (959, 541), (959, 541), (958, 541), (958, 541), (958, 541), (958, 541), (958, 541), (958, 541), (958, 541), (958, 541), (958, 541), (958, 541), (958, 541), (958, 541), (958, 541), (958, 541), (958, 541), (958, 541), (958, 541), (958, 541), (958, 541), (959, 541), (961, 541), (961, 541), (961, 541), (961, 540), (961, 540), (961, 540), (961, 540), (961, 540), (961, 540), (961, 540), (961, 540), (961, 540), (961, 540), (961, 540), (961, 540), (961, 540), (961, 540), (961, 540), (961, 540), (961, 540), (961, 540), (961, 540), (961, 540), (961, 540), (961, 540), (960, 540), (954, 540), (948, 541), (938, 542), (927, 543), (897, 546), (874, 546), (854, 547), (831, 549), (784, 549), (758, 549), (733, 549), (711, 549), (658, 549), (638, 549), (616, 549), (591, 549), (546, 549)]",178.75463573323165,"[1, 9, 8, 4, 2, 5, 7, 6, 3]","(0, 0.25)",DOT011D,DOT,D,English,Wed Sep 05 15:02:57 2018,Mouse
1,3,4,0,4,3,3,1,468,338,130,151,0,500,200,8000,"[(960, 540), (960, 540), (960, 540), (960, 540), (960, 540), (960, 540), (960, 540), (960, 540), (960, 540), (960, 540), (960, 540), (960, 540), (960, 540), (960, 540), (960, 540), (960, 540), (960, 540), (960, 540), (960, 540), (960, 540), (960, 540), (960, 540), (960, 540), (960, 540), (960, 540), (960, 540), (960, 540), (960, 540), (960, 540), (960, 540), (960, 540), (960, 540), (960, 540), (962, 540), (970, 536), (974, 534), (981, 531), (992, 527), (1016, 518), (1032, 514), (1050, 507), (1084, 496), (1150, 477), (1192, 466), (1228, 457), (1269, 443), (1360, 410)]",341.9958383940866,"[1, 9, 8, 4, 2, 5, 7, 6, 3]","(0, 0.25)",DOT011D,DOT,D,English,Wed Sep 05 15:02:57 2018,Mouse
1,3,4,0,5,9,9,1,919,19,900,150,0,500,200,8000,"[(960, 540), (959, 541), (959, 541), (959, 541), (959, 541), (959, 541), (959, 541), (959, 541), (959, 541), (959, 541), (959, 541), (959, 541), (959, 541), (959, 541), (959, 541), (959, 541), (959, 542), (958, 542), (958, 542), (957, 543), (957, 543), (957, 544), (957, 546), (956, 548), (955, 549), (955, 550), (952, 554), (952, 556), (952, 556), (952, 558), (952, 560), (952, 561), (952, 563), (952, 564), (952, 567), (952, 567), (952, 568), (952, 568), (952, 568), (952, 568), (952, 568), (952, 568), (952, 569), (952, 570), (952, 570), (952, 571), (953, 573), (953, 575), (954, 578), (957, 584), (964, 597), (970, 608), (976, 618), (983, 631), (999, 660), (1014, 678), (1025, 695), (1035, 711), (1050, 744), (1054, 757), (1062, 774), (1065, 785), (1072, 803), (1078, 815), (1082, 825), (1087, 832), (1098, 847), (1103, 854), (1109, 861), (1114, 866), (1119, 871), (1120, 873), (1122, 874), (1122, 874), (1122, 874), (1122, 874), (1122, 874), (1122, 874), (1122, 874), (1122, 874), (1122, 874), (1122, 874), (1123, 875), (1125, 877), (1127, 878), (1129, 880), (1135, 883), (1138, 885), (1139, 886), (1141, 887), (1146, 891), (1151, 894)]",61.65100735406743,"[1, 9, 8, 4, 2, 5, 7, 6, 3]","(0, 0.25)",DOT011D,DOT,D,English,Wed Sep 05 15:02:57 2018,Mouse
1,3,4,0,6,4,4,1,651,11,640,149,0,500,200,8000,"[(960, 540), (960, 541), (960, 542), (960, 542), (960, 542), (960, 542), (960, 542), (960, 542), (960, 542), (960, 542), (960, 542), (960, 542), (960, 542), (960, 542), (960, 542), (960, 542), (960, 542), (960, 542), (960, 542), (960, 542), (960, 542), (960, 542), (959, 542), (959, 542), (959, 543), (959, 543), (957, 545), (957, 545), (957, 545), (957, 545), (957, 545), (957, 545), (957, 545), (957, 545), (956, 547), (956, 548), (956, 549), (954, 551), (948, 559), (944, 565), (939, 571), (933, 579), (920, 598), (911, 607), (900, 617), (888, 630), (857, 658), (843, 673), (825, 692), (807, 707), (783, 726), (771, 733), (760, 740), (750, 745), (731, 753), (721, 755), (716, 756), (707, 759), (697, 761), (691, 763), (684, 764), (679, 765), (662, 770), (654, 773), (645, 776), (637, 779)]",143.50085135256543,"[1, 9, 8, 4, 2, 5, 7, 6, 3]","(0, 0.25)",DOT011D,DOT,D,English,Wed Sep 05 15:02:57 2018,Mouse
1,3,4,0,7,3,3,1,1809,919,890,148,0,500,200,8000,"[(960, 540), (960, 540), (960, 540), (960, 540), (960, 540), (960, 540), (960, 540), (960, 540), (960, 540), (960, 540), (960, 540), (960, 540), (960, 540), (960, 540), (960, 540), (960, 540), (960, 540), (960, 540), (960, 540), (960, 540), (960, 540), (960, 540), (960, 540), (960, 540), (960, 540), (960, 540), (960, 540), (960, 540), (960, 540), (960, 540), (960, 540), (960, 540), (960, 540), (960, 540), (960, 540), (960, 540), (960, 540), (960, 540), (960, 540), (960, 540), (960, 540), (960, 540), (960, 540), (960, 540), (960, 540), (960, 540), (960, 540), (960, 540), (960, 540), (960, 540), (960, 540), (960, 540), (960, 540), (960, 540), (960, 540), (960, 540), (960, 540), (960, 540), (960, 540), (960, 540), (960, 540), (960, 540), (960, 540), (960, 540), (960, 540), (960, 540), (960, 540), (960, 540), (960, 540), (960, 540), (960, 540), (960, 540), (960, 540), (960, 540), (960, 540), (960, 540), (960, 540), (960, 540), (960, 540), (960, 540), (960, 540), (960, 540), (960, 540), (960, 540), (960, 540), (960, 540), (960, 540), (960, 540), (960, 540), (960, 540), (960, 540), (958, 540), (958, 540), (958, 540), (958, 540), (958, 540), (958, 540), (958, 540), (958, 540), (958, 540), (958, 540), (958, 540), (958, 540), (958, 540), (958, 540), (958, 540), (958, 540), (958, 540), (958, 540), (958, 540), (958, 540), (958, 540), (958, 540), (958, 540), (958, 540), (958, 540), (958, 540), (958, 540), (958, 540), (958, 540), (958, 540), (958, 540), (958, 540), (958, 540), (958, 540), (958, 540), (958, 540), (958, 540), (958, 540), (958, 540), (958, 540), (958, 540), (958, 540), (958, 540), (958, 540), (958, 540), (958, 540), (958, 540), (958, 540), (958, 540), (958, 540), (958, 540), (958, 540), (958, 540), (958, 540), (958, 540), (958, 540), (958, 540), (958, 540), (960, 540), (963, 540), (973, 536), (978, 534), (984, 531), (993, 528), (1007, 523), (1016, 518), (1026, 515), (1034, 513), (1054, 507), (1061, 506), (1075, 502), (1084, 498), (1100, 492), (1112, 487), (1122, 484), (1132, 480), (1153, 473), (1163, 469), (1175, 463), (1185, 458), (1209, 448), (1218, 446), (1231, 440), (1242, 436), (1267, 428), (1282, 423), (1294, 418), (1305, 416), (1328, 411), (1338, 406)]",340.4807179477895,"[1, 9, 8, 4, 2, 5, 7, 6, 3]","(0, 0.25)",DOT011D,DOT,D,English,Wed Sep 05 15:02:57 2018,Mouse
1,3,4,0,8,1,1,1,300,50,250,147,0,500,200,8000,"[(960, 540), (960, 540), (960, 540), (960, 540), (960, 541), (973, 544), (980, 545), (988, 546), (996, 548), (1016, 550), (1025, 551), (1033, 553), (1042, 554), (1055, 558), (1064, 560), (1070, 561), (1078, 565), (1095, 570), (1104, 571), (1112, 574), (1125, 578), (1150, 586), (1169, 590), (1189, 595), (1208, 601), (1259, 617), (1281, 623), (1305, 627), (1328, 635), (1373, 648)]",14.654753424623786,"[1, 9, 8, 4, 2, 5, 7, 6, 3]","(0, 0.25)",DOT011D,DOT,D,English,Wed Sep 05 15:02:57 2018,Mouse
1,3,4,0,9,8,8,1,860,340,520,146,0,500,200,8000,"[(960, 540), (960, 540), (960, 540), (960, 540), (960, 540), (960, 540), (960, 540), (960, 540), (960, 540), (960, 540), (960, 540), (960, 540), (960, 540), (960, 540), (960, 540), (960, 540), (960, 540), (960, 540), (960, 540), (960, 540), (960, 540), (960, 540), (960, 540), (960, 540), (960, 540), (960, 540), (960, 540), (960, 540), (960, 540), (960, 540), (960, 540), (960, 540), (960, 540), (960, 542), (960, 542), (960, 542), (960, 542), (960, 542), (960, 542), (960, 542), (960, 542), (960, 543), (960, 543), (960, 546), (960, 547), (959, 550), (959, 557), (959, 562), (958, 567), (957, 573), (954, 591), (953, 600), (953, 608), (953, 615), (953, 630), (953, 637), (952, 644), (950, 651), (949, 662), (948, 669), (948, 679), (948, 690), (948, 713), (948, 726), (948, 740), (948, 752), (948, 778), (948, 789), (948, 800), (948, 809), (948, 821), (948, 828), (948, 834), (947, 840), (943, 857), (940, 865), (938, 872), (936, 881), (933, 892), (932, 899), (931, 905), (931, 909), (928, 921), (924, 929), (922, 937), (921, 944)]",95.51394254582497,"[1, 9, 8, 4, 2, 5, 7, 6, 3]","(0, 0.25)",DOT011D,DOT,D,English,Wed Sep 05 15:02:57 2018,Mouse
1,3,4,0,10,8,8,1,319,19,300,145,0,500,200,8000,"[(960, 547), (960, 554), (960, 561), (960, 574), (960, 579), (959, 583), (958, 589), (955, 602), (955, 607), (953, 616), (951, 624), (945, 640), (943, 649), (942, 656), (939, 664), (937, 677), (935, 685), (934, 692), (934, 698), (934, 710), (934, 715), (934, 723), (934, 730), (934, 746), (934, 757), (932, 768), (929, 786), (921, 839), (918, 871), (916, 902), (911, 934), (902, 990)]",97.34429928950267,"[1, 9, 8, 4, 2, 5, 7, 6, 3]","(0, 0.25)",DOT011D,DOT,D,English,Wed Sep 05 15:02:57 2018,Mouse
1,3,4,0,11,4,4,1,1351,120,1231,144,0,500,200,8000,"[(960, 540), (960, 540), (960, 540), (960, 540), (960, 540), (960, 540), (960, 540), (960, 540), (960, 540), (960, 540), (960, 540), (961, 540), (961, 540), (961, 540), (961, 540), (961, 540), (961, 540), (961, 540), (962, 540), (962, 541), (962, 542), (962, 542), (961, 545), (960, 547), (960, 548), (959, 549), (959, 549), (959, 549), (958, 551), (958, 551), (958, 551), (958, 551), (957, 552), (956, 552), (951, 555), (949, 559), (946, 561), (945, 563), (941, 570), (941, 571), (940, 573), (939, 574), (939, 574), (939, 574), (939, 574), (939, 574), (939, 574), (939, 574), (939, 574), (939, 574), (939, 574), (939, 574), (939, 574), (939, 574), (938, 575), (938, 575), (938, 575), (938, 575), (938, 575), (938, 575), (938, 575), (938, 575), (938, 575), (938, 575), (938, 575), (938, 575), (938, 575), (938, 575), (938, 575), (938, 575), (938, 575), (938, 575), (938, 575), (938, 575), (938, 575), (937, 577), (936, 578), (936, 578), (935, 581), (935, 581), (935, 581), (935, 581), (935, 582), (935, 582), (935, 582), (935, 582), (935, 582), (935, 582), (935, 582), (935, 582), (935, 582), (935, 582), (935, 582), (935, 582), (935, 587), (935, 593), (935, 599), (935, 602), (935, 605), (935, 607), (935, 608), (934, 609), (931, 612), (930, 614), (928, 616), (928, 617), (926, 618), (926, 618), (926, 618), (926, 618), (926, 618), (926, 618), (926, 618), (926, 618), (926, 618), (926, 618), (926, 618), (926, 618), (926, 618), (926, 618), (926, 619), (925, 620), (922, 620), (914, 623), (909, 625), (901, 631), (876, 647), (854, 660), (827, 673), (803, 686), (749, 714), (731, 731), (708, 749), (687, 760), (630, 791)]",142.7431613419156,"[1, 9, 8, 4, 2, 5, 7, 6, 3]","(0, 0.25)",DOT011D,DOT,D,English,Wed Sep 05 15:02:57 2018,Mouse
1,3,4,0,12,9,9,1,780,300,480,143,0,500,200,8000,"[(960, 540), (960, 540), (960, 540), (960, 540), (960, 540), (960, 540), (960, 540), (960, 540), (960, 540), (960, 540), (960, 540), (960, 540), (960, 540), (960, 540), (960, 540), (960, 540), (960, 540), (960, 540), (960, 540), (960, 540), (960, 540), (960, 540), (960, 540), (960, 540), (960, 540), (960, 540), (960, 540), (960, 540), (960, 540), (960, 541), (959, 551), (959, 555), (959, 560), (959, 565), (967, 577), (972, 586), (978, 595), (983, 602), (994, 617), (996, 623), (1001, 633), (1005, 639), (1015, 656), (1019, 663), (1025, 673), (1031, 683), (1040, 701), (1046, 711), (1053, 722), (1060, 732), (1076, 753), (1082, 760), (1089, 767), (1095, 772), (1103, 784), (1107, 789), (1110, 797), (1113, 805), (1121, 822), (1124, 830), (1128, 837), (1131, 843), (1138, 854), (1141, 858), (1145, 863), (1147, 866), (1153, 872), (1155, 876), (1157, 877), (1158, 879), (1161, 882), (1161, 882), (1162, 883), (1162, 883), (1163, 884), (1163, 884), (1163, 884), (1163, 885)]",59.5271978570814,"[1, 9, 8, 4, 2, 5, 7, 6, 3]","(0, 0.25)",DOT011D,DOT,D,English,Wed Sep 05 15:02:57 2018,Mouse
1,3,4,0,13,3,3,1,767,317,450,142,0,500,200,8000,"[(960, 540), (960, 540), (960, 540), (960, 540), (960, 540), (960, 540), (960, 540), (960, 540), (960, 540), (960, 540), (960, 540), (960, 540), (960, 540), (960, 540), (960, 540), (960, 540), (960, 540), (960, 540), (960, 540), (960, 540), (960, 540), (960, 540), (960, 540), (960, 540), (960, 540), (960, 540), (960, 540), (960, 540), (960, 540), (960, 540), (960, 540), (962, 540), (963, 540), (965, 540), (966, 540), (973, 540), (977, 539), (982, 538), (987, 536), (999, 533), (1001, 532), (1003, 532), (1003, 532), (1006, 530), (1007, 530), (1008, 530), (1011, 530), (1016, 527), (1020, 525), (1023, 524), (1026, 522), (1035, 518), (1038, 516), (1044, 512), (1051, 510), (1070, 501), (1081, 496), (1094, 491), (1108, 485), (1135, 476), (1151, 470), (1166, 464), (1178, 458), (1199, 451), (1209, 447), (1221, 442), (1231, 440), (1253, 430), (1263, 426), (1271, 421), (1280, 416), (1292, 409), (1301, 403), (1307, 399), (1315, 395), (1329, 388), (1336, 383)]",337.3368684719163,"[1, 9, 8, 4, 2, 5, 7, 6, 3]","(0, 0.25)",DOT011D,DOT,D,English,Wed Sep 05 15:02:57 2018,Mouse
1,3,4,0,14,8,8,1,620,40,580,141,0,500,200,8000,"[(960, 540), (960, 540), (960, 540), (959, 541), (957, 544), (954, 548), (952, 550), (951, 553), (950, 554), (948, 558), (947, 559), (946, 563), (943, 566), (941, 571), (938, 574), (937, 577), (937, 579), (935, 582), (935, 582), (935, 583), (935, 583), (934, 586), (934, 586), (934, 586), (934, 587), (932, 590), (931, 591), (931, 593), (930, 596), (928, 600), (928, 604), (927, 609), (924, 615), (921, 629), (917, 639), (914, 652), (910, 663), (900, 694), (899, 706), (897, 719), (895, 731), (894, 752), (894, 761), (894, 771), (894, 783), (895, 809), (896, 821), (897, 833), (900, 846), (900, 868), (900, 877), (900, 884), (900, 892), (900, 902), (900, 906), (900, 909), (900, 913), (900, 921), (900, 925), (900, 929), (901, 934), (902, 942)]",98.20990143837071,"[1, 9, 8, 4, 2, 5, 7, 6, 3]","(0, 0.25)",DOT011D,DOT,D,English,Wed Sep 05 15:02:57 2018,Mouse
1,3,4,0,15,7,7,1,1010,400,610,140,0,500,200,8000,"[(960, 540), (960, 540), (960, 540), (960, 540), (960, 540), (960, 540), (960, 540), (960, 540), (960, 540), (960, 540), (960, 540), (960, 540), (960, 540), (960, 540), (960, 540), (960, 540), (960, 540), (960, 540), (960, 540), (960, 540), (960, 540), (960, 540), (960, 540), (960, 540), (960, 540), (960, 540), (960, 540), (960, 540), (960, 540), (960, 540), (960, 540), (960, 540), (960, 540), (960, 540), (960, 540), (960, 540), (960, 540), (960, 540), (960, 540), (961, 540), (961, 540), (962, 540), (962, 540), (962, 540), (962, 540), (962, 540), (962, 540), (962, 540), (962, 540), (962, 540), (962, 540), (962, 540), (962, 540), (962, 540), (962, 540), (962, 540), (962, 540), (962, 540), (963, 540), (965, 539), (965, 538), (966, 535), (967, 530), (970, 526), (971, 522), (972, 518), (977, 507), (979, 504), (980, 501), (983, 496), (985, 489), (985, 487), (987, 483), (988, 482), (988, 476), (988, 474), (988, 472), (988, 471), (988, 467), (988, 464), (988, 462), (987, 460), (982, 453), (981, 448), (976, 443), (971, 437), (960, 419), (956, 409), (951, 397), (949, 388), (944, 357), (943, 337), (939, 315), (934, 291), (919, 245), (906, 221), (896, 202), (890, 190), (881, 166), (880, 157), (879, 148)]",258.3251311902491,"[1, 9, 8, 4, 2, 5, 7, 6, 3]","(0, 0.25)",DOT011D,DOT,D,English,Wed Sep 05 15:02:57 2018,Mouse
1,3,4,0,16,4,4,1,1429,1009,420,139,0,500,200,8000,"[(960, 540), (960, 540), (960, 540), (960, 540), (960, 540), (960, 540), (960, 540), (960, 540), (960, 540), (960, 540), (960, 540), (960, 540), (960, 540), (960, 540), (960, 540), (960, 540), (960, 540), (960, 540), (960, 540), (960, 540), (960, 540), (960, 540), (960, 540), (960, 540), (960, 540), (960, 540), (960, 540), (960, 540), (960, 540), (960, 540), (960, 540), (960, 540), (960, 540), (960, 540), (960, 540), (960, 540), (960, 540), (960, 540), (960, 540), (960, 540), (960, 540), (960, 540), (960, 540), (960, 540), (960, 540), (960, 540), (960, 540), (960, 540), (960, 540), (960, 540), (960, 540), (960, 540), (960, 540), (960, 540), (960, 540), (960, 540), (960, 540), (960, 540), (960, 540), (960, 540), (960, 540), (960, 540), (960, 540), (960, 540), (960, 540), (960, 540), (960, 540), (960, 540), (960, 540), (960, 540), (960, 540), (960, 540), (960, 540), (960, 540), (960, 540), (960, 540), (960, 540), (960, 540), (960, 540), (960, 540), (960, 540), (960, 540), (960, 540), (960, 540), (960, 540), (960, 540), (960, 540), (960, 540), (960, 540), (960, 540), (960, 540), (960, 540), (960, 540), (960, 540), (960, 540), (960, 540), (960, 540), (960, 540), (960, 540), (960, 540), (958, 539), (958, 539), (958, 539), (957, 539), (954, 540), (950, 541), (948, 543), (945, 545), (936, 555), (929, 563), (922, 571), (912, 580), (892, 600), (883, 611), (872, 623), (860, 635), (839, 661), (828, 673), (820, 683), (812, 691), (796, 709), (790, 716), (784, 723), (777, 729), (762, 744), (752, 751), (744, 755), (736, 760), (718, 767), (712, 770), (705, 772), (699, 775), (687, 780), (685, 781), (682, 783), (678, 784), (674, 786), (672, 787), (669, 788), (666, 790), (658, 792), (656, 794), (650, 797)]",140.34017302458284,"[1, 9, 8, 4, 2, 5, 7, 6, 3]","(0, 0.25)",DOT011D,DOT,D,English,Wed Sep 05 15:02:57 2018,Mouse
1,3,4,0,17,8,8,1,490,30,460,138,0,500,200,8000,"[(960, 540), (960, 540), (960, 541), (960, 541), (960, 543), (960, 543), (960, 543), (960, 544), (960, 547), (960, 547), (960, 548), (960, 549), (960, 551), (960, 552), (960, 553), (960, 553), (960, 556), (960, 557), (960, 559), (960, 561), (960, 567), (960, 571), (960, 575), (960, 581), (960, 594), (960, 601), (957, 611), (955, 621), (951, 643), (951, 655), (951, 666), (951, 683), (951, 711), (953, 721), (954, 729), (954, 740), (954, 761), (954, 770), (954, 780), (954, 791), (951, 817), (950, 832), (948, 849), (945, 873), (943, 901), (943, 912), (940, 925), (939, 930), (938, 946)]",93.10166402986846,"[1, 9, 8, 4, 2, 5, 7, 6, 3]","(0, 0.25)",DOT011D,DOT,D,English,Wed Sep 05 15:02:57 2018,Mouse
1,3,4,0,18,7,7,1,948,388,560,137,0,500,200,8000,"[(960, 540), (960, 540), (960, 540), (960, 540), (960, 540), (960, 540), (960, 540), (960, 540), (960, 540), (960, 540), (960, 540), (960, 540), (960, 540), (960, 540), (960, 540), (960, 540), (960, 540), (960, 540), (960, 540), (960, 540), (960, 540), (960, 540), (960, 540), (960, 540), (960, 540), (960, 540), (960, 540), (960, 540), (960, 540), (960, 540), (960, 540), (960, 540), (960, 540), (960, 540), (960, 540), (960, 540), (960, 540), (960, 540), (958, 540), (954, 543), (952, 544), (944, 549), (932, 559), (923, 564), (916, 568), (911, 569), (905, 571), (903, 572), (902, 572), (902, 572), (901, 572), (901, 572), (901, 572), (901, 572), (901, 572), (901, 572), (901, 572), (901, 572), (901, 572), (901, 571), (901, 570), (902, 568), (904, 563), (906, 558), (910, 551), (915, 540), (921, 523), (926, 512), (928, 499), (933, 485), (938, 460), (941, 448), (943, 432), (944, 420), (946, 398), (948, 387), (948, 377), (948, 368), (950, 350), (950, 342), (950, 335), (950, 327), (950, 310), (948, 300), (947, 291), (946, 282), (944, 267), (943, 257), (942, 248), (939, 238), (937, 213), (935, 199), (929, 183), (926, 170), (917, 140)]",263.8642666598132,"[1, 9, 8, 4, 2, 5, 7, 6, 3]","(0, 0.25)",DOT011D,DOT,D,English,Wed Sep 05 15:02:57 2018,Mouse
1,3,4,0,19,9,9,1,749,279,470,136,0,500,200,8000,"[(960, 540), (960, 540), (960, 540), (960, 540), (960, 540), (960, 540), (960, 540), (960, 540), (960, 540), (960, 540), (960, 540), (960, 540), (960, 540), (960, 540), (960, 540), (960, 540), (960, 540), (960, 540), (960, 540), (960, 540), (960, 540), (960, 540), (960, 540), (960, 540), (960, 540), (960, 540), (960, 540), (960, 542), (960, 542), (960, 542), (959, 543), (959, 543), (959, 544), (959, 545), (959, 549), (959, 551), (959, 554), (960, 557), (962, 566), (964, 572), (965, 578), (968, 584), (975, 604), (981, 613), (985, 623), (987, 631), (997, 652), (1003, 664), (1009, 676), (1014, 689), (1032, 716), (1039, 728), (1048, 740), (1054, 750), (1066, 767), (1071, 775), (1078, 784), (1083, 793), (1098, 812), (1106, 819), (1112, 829), (1121, 836), (1134, 849), (1140, 854), (1145, 859), (1149, 863), (1157, 871), (1158, 874), (1160, 877), (1161, 879), (1163, 882), (1164, 883), (1165, 883), (1165, 883), (1165, 885)]",59.281095735970815,"[1, 9, 8, 4, 2, 5, 7, 6, 3]","(0, 0.25)",DOT011D,DOT,D,English,Wed Sep 05 15:02:57 2018,Mouse
1,3,4,0,20,1,1,1,510,310,200,135,0,500,200,8000,"[(960, 540), (960, 540), (960, 540), (960, 540), (960, 540), (960, 540), (960, 540), (960, 540), (960, 540), (960, 540), (960, 540), (960, 540), (960, 540), (960, 540), (960, 540), (960, 540), (960, 540), (960, 540), (960, 540), (960, 540), (960, 540), (960, 540), (960, 540), (960, 540), (960, 540), (960, 540), (960, 540), (960, 540), (960, 540), (960, 540), (961, 540), (962, 540), (962, 539), (963, 539), (965, 537), (967, 536), (968, 536), (969, 536), (974, 536), (980, 536), (985, 536), (995, 540), (1018, 551), (1035, 561), (1054, 571), (1087, 590), (1160, 629), (1204, 655), (1244, 676), (1277, 696), (1339, 728)]",26.383352696813752,"[1, 9, 8, 4, 2, 5, 7, 6, 3]","(0, 0.25)",DOT011D,DOT,D,English,Wed Sep 05 15:02:57 2018,Mouse
1,3,4,0,21,4,4,1,410,30,380,134,0,500,200,8000,"[(960, 540), (960, 540), (960, 541), (958, 541), (956, 541), (956, 541), (954, 542), (952, 543), (951, 545), (948, 547), (945, 550), (944, 551), (941, 552), (938, 555), (935, 557), (932, 560), (930, 562), (929, 564), (924, 567), (922, 570), (918, 572), (913, 576), (904, 585), (899, 590), (892, 597), (883, 603), (864, 619), (853, 630), (844, 637), (833, 650), (803, 687), (788, 708), (774, 723), (762, 742), (741, 771), (733, 783), (721, 796), (713, 805), (698, 825), (692, 832), (690, 837)]",132.27368900609375,"[1, 9, 8, 4, 2, 5, 7, 6, 3]","(0, 0.25)",DOT011D,DOT,D,English,Wed Sep 05 15:02:57 2018,Mouse
1,3,4,0,22,9,9,1,659,239,420,133,0,500,200,8000,"[(960, 540), (960, 540), (960, 540), (960, 540), (960, 540), (960, 540), (960, 540), (960, 540), (960, 540), (960, 540), (960, 540), (960, 540), (960, 540), (960, 540), (960, 540), (960, 540), (960, 540), (960, 540), (960, 540), (960, 540), (960, 540), (960, 540), (960, 540), (961, 540), (961, 543), (961, 543), (961, 543), (961, 545), (962, 547), (963, 549), (963, 551), (964, 554), (964, 559), (966, 563), (966, 568), (968, 575), (972, 591), (977, 602), (984, 615), (991, 628), (1010, 661), (1017, 672), (1024, 684), (1032, 694), (1045, 712), (1052, 719), (1057, 727), (1064, 735), (1074, 746), (1081, 754), (1084, 760), (1089, 765), (1101, 777), (1109, 785), (1115, 791), (1121, 798), (1136, 811), (1145, 819), (1154, 825), (1161, 832), (1174, 844), (1179, 851), (1183, 854), (1185, 857), (1192, 864), (1195, 869)]",54.46232220802562,"[1, 9, 8, 4, 2, 5, 7, 6, 3]","(0, 0.25)",DOT011D,DOT,D,English,Wed Sep 05 15:02:57 2018,Mouse
1,3,4,0,23,7,5,0,-2550,20,2530,132,0,500,200,8000,"[(960, 540), (962, 540), (962, 540), (962, 540), (962, 540), (962, 540), (962, 540), (962, 540), (962, 540), (962, 540), (962, 540), (962, 540), (962, 540), (962, 540), (962, 540), (962, 540), (962, 540), (962, 540), (962, 540), (962, 540), (962, 540), (962, 540), (962, 540), (962, 540), (962, 540), (962, 540), (962, 540), (962, 540), (962, 540), (962, 540), (962, 540), (962, 540), (962, 540), (962, 540), (962, 540), (962, 540), (962, 540), (962, 540), (962, 540), (962, 540), (962, 540), (962, 540), (962, 540), (962, 540), (962, 540), (962, 540), (962, 540), (962, 540), (962, 540), (962, 540), (962, 540), (962, 540), (962, 540), (962, 540), (962, 540), (962, 540), (962, 540), (962, 540), (963, 540), (963, 540), (963, 540), (963, 540), (963, 540), (963, 540), (963, 540), (963, 540), (963, 540), (963, 540), (963, 540), (963, 540), (963, 540), (963, 540), (963, 540), (963, 540), (963, 540), (963, 540), (963, 540), (963, 540), (963, 540), (963, 540), (963, 540), (963, 540), (963, 540), (963, 540), (963, 540), (963, 540), (963, 540), (963, 540), (963, 540), (963, 540), (963, 540), (963, 540), (963, 540), (963, 540), (963, 540), (963, 540), (963, 540), (963, 540), (963, 540), (963, 540), (963, 540), (963, 540), (963, 540), (963, 540), (963, 540), (963, 540), (963, 540), (963, 540), (963, 540), (963, 540), (963, 540), (963, 540), (963, 540), (963, 540), (963, 540), (963, 540), (963, 540), (963, 540), (963, 540), (963, 540), (963, 540), (963, 540), (963, 540), (963, 540), (963, 540), (963, 540), (963, 540), (963, 540), (963, 540), (963, 540), (963, 540), (963, 540), (963, 540), (963, 540), (963, 540), (963, 540), (963, 540), (963, 540), (963, 540), (963, 540), (963, 540), (963, 540), (963, 540), (963, 540), (963, 540), (963, 540), (963, 540), (963, 540), (963, 540), (963, 540), (963, 540), (963, 540), (963, 540), (963, 540), (963, 540), (963, 540), (963, 540), (963, 540), (963, 540), (963, 540), (963, 540), (963, 540), (963, 540), (963, 540), (963, 540), (963, 540), (963, 540), (963, 540), (963, 540), (963, 540), (963, 540), (963, 540), (963, 540), (963, 540), (963, 540), (963, 540), (963, 540), (963, 540), (963, 540), (963, 540), (963, 540), (963, 540), (963, 540), (963, 540), (963, 540), (963, 540), (963, 540), (963, 540), (963, 540), (963, 540), (963, 540), (963, 540), (963, 540), (963, 540), (963, 540), (963, 540), (963, 540), (963, 540), (963, 540), (963, 540), (963, 540), (963, 540), (963, 540), (963, 540), (963, 540), (963, 540), (963, 540), (963, 540), (963, 540), (963, 540), (963, 540), (963, 540), (963, 540), (963, 540), (963, 540), (963, 540), (963, 540), (963, 540), (963, 540), (963, 540), (963, 540), (963, 540), (963, 540), (963, 540), (963, 540), (962, 538), (958, 533), (955, 529), (949, 526), (930, 513), (918, 505), (907, 498), (888, 487), (852, 466), (840, 457), (827, 448), (817, 438), (795, 420), (782, 411), (770, 404), (762, 396), (743, 382), (736, 376), (730, 371), (723, 365), (713, 353), (709, 346), (703, 337), (699, 330), (693, 314), (687, 305), (684, 298), (680, 292), (667, 275), (663, 270)]",222.27368900609375,"[1, 9, 8, 4, 2, 5, 7, 6, 3]","(0, 0.25)",DOT011D,DOT,D,English,Wed Sep 05 15:02:57 2018,Mouse
1,3,4,0,24,3,1,0,-459,219,240,133,0,500,200,8000,"[(960, 540), (960, 540), (960, 540), (960, 540), (960, 540), (960, 540), (960, 540), (960, 540), (960, 540), (960, 540), (960, 540), (960, 540), (960, 540), (960, 540), (960, 540), (960, 540), (960, 540), (960, 540), (960, 540), (960, 540), (960, 540), (966, 540), (972, 540), (980, 540), (988, 540), (1008, 540), (1018, 540), (1031, 540), (1043, 540), (1065, 540), (1074, 540), (1084, 543), (1094, 544), (1116, 549), (1128, 553), (1143, 557), (1156, 561), (1188, 571), (1200, 573), (1218, 578), (1238, 585), (1275, 596), (1294, 600), (1316, 606), (1331, 611), (1364, 620)]",11.200797787884431,"[1, 9, 8, 4, 2, 5, 7, 6, 3]","(0, 0.25)",DOT011D,DOT,D,English,Wed Sep 05 15:02:57 2018,Mouse
1,3,4,0,25,7,7,1,1129,189,940,134,0,500,200,8000,"[(960, 540), (960, 540), (960, 540), (960, 540), (960, 540), (960, 540), (960, 540), (960, 540), (960, 540), (960, 540), (960, 540), (960, 540), (960, 540), (960, 540), (960, 540), (960, 540), (960, 540), (960, 540), (960, 541), (960, 542), (960, 543), (960, 543), (960, 544), (960, 544), (960, 544), (960, 545), (960, 545), (960, 547), (960, 547), (960, 547), (959, 548), (958, 549), (958, 550), (956, 552), (955, 552), (955, 553), (955, 553), (955, 554), (955, 554), (955, 554), (955, 554), (955, 554), (955, 554), (955, 554), (955, 554), (955, 554), (955, 554), (955, 554), (955, 554), (955, 554), (955, 554), (955, 554), (955, 554), (955, 554), (955, 554), (955, 554), (955, 554), (955, 554), (955, 554), (955, 554), (955, 554), (955, 554), (955, 554), (955, 554), (955, 554), (955, 554), (955, 554), (955, 554), (955, 554), (955, 554), (955, 554), (955, 554), (955, 554), (955, 554), (955, 554), (955, 554), (955, 554), (955, 554), (955, 554), (955, 554), (955, 554), (955, 554), (955, 554), (955, 554), (955, 554), (955, 554), (955, 554), (955, 554), (955, 554), (955, 554), (956, 550), (957, 547), (957, 546), (958, 544), (960, 538), (960, 534), (961, 530), (961, 524), (961, 510), (961, 502), (961, 495), (961, 486), (961, 463), (961, 450), (958, 433), (950, 410), (937, 363), (925, 334), (911, 305), (898, 271), (866, 206), (851, 182), (840, 158)]",252.56061222738617,"[1, 9, 8, 4, 2, 5, 7, 6, 3]","(0, 0.25)",DOT011D,DOT,D,English,Wed Sep 05 15:02:57 2018,Mouse
1,3,4,0,26,5,4,0,-1730,1530,200,134,0,500,200,8000,"[(960, 540), (960, 540), (960, 540), (960, 540), (960, 540), (960, 540), (960, 540), (960, 540), (960, 540), (960, 540), (960, 540), (960, 540), (960, 540), (960, 540), (960, 540), (960, 540), (960, 540), (960, 540), (960, 540), (960, 540), (960, 540), (960, 540), (960, 540), (960, 540), (960, 540), (960, 540), (960, 540), (960, 540), (960, 540), (960, 540), (960, 540), (960, 540), (960, 540), (960, 540), (960, 540), (960, 540), (960, 540), (960, 540), (960, 540), (960, 540), (960, 540), (960, 540), (960, 540), (960, 540), (960, 540), (960, 540), (960, 540), (960, 540), (960, 540), (960, 540), (960, 540), (960, 540), (960, 540), (960, 540), (960, 540), (960, 540), (960, 540), (960, 540), (960, 540), (960, 540), (960, 540), (960, 540), (960, 540), (960, 540), (960, 540), (960, 540), (960, 540), (960, 540), (960, 540), (960, 540), (960, 540), (960, 540), (960, 540), (960, 540), (960, 540), (960, 540), (960, 540), (960, 540), (960, 540), (960, 540), (960, 540), (960, 540), (960, 540), (960, 540), (960, 540), (960, 540), (960, 540), (960, 540), (960, 540), (960, 540), (960, 540), (960, 540), (960, 540), (960, 540), (960, 540), (960, 540), (960, 540), (960, 540), (960, 540), (960, 540), (960, 540), (960, 540), (960, 540), (960, 540), (960, 540), (960, 540), (960, 540), (960, 540), (960, 540), (960, 540), (960, 540), (960, 540), (960, 540), (960, 540), (960, 540), (960, 540), (960, 540), (960, 540), (960, 540), (960, 540), (960, 540), (960, 540), (960, 540), (960, 540), (960, 540), (960, 540), (960, 540), (960, 540), (960, 540), (960, 540), (960, 540), (960, 540), (960, 540), (960, 540), (960, 540), (960, 540), (960, 540), (960, 540), (960, 540), (960, 540), (960, 540), (960, 540), (960, 540), (960, 540), (960, 540), (960, 540), (960, 540), (960, 540), (960, 540), (960, 540), (960, 540), (960, 540), (957, 543), (949, 548), (940, 553), (928, 560), (896, 580), (877, 594), (859, 607), (842, 620), (799, 645), (779, 656), (758, 669), (739, 679), (701, 701), (683, 708), (672, 713), (659, 718), (639, 729), (631, 732), (623, 735), (616, 740), (606, 745)]",149.92503751225667,"[1, 9, 8, 4, 2, 5, 7, 6, 3]","(0, 0.25)",DOT011D,DOT,D,English,Wed Sep 05 15:02:57 2018,Mouse
1,3,4,0,27,8,9,0,-570,320,250,135,0,500,200,8000,"[(960, 540), (960, 540), (960, 540), (960, 540), (960, 540), (960, 540), (960, 540), (960, 540), (960, 540), (960, 540), (960, 540), (960, 540), (960, 540), (960, 540), (960, 540), (960, 540), (960, 540), (960, 540), (960, 540), (960, 540), (960, 540), (960, 540), (960, 540), (960, 540), (960, 540), (960, 540), (960, 540), (960, 540), (960, 540), (960, 540), (960, 540), (967, 545), (978, 552), (991, 559), (1016, 584), (1027, 601), (1041, 621), (1052, 642), (1076, 683), (1085, 704), (1093, 722), (1102, 740), (1117, 776), (1123, 791), (1135, 810), (1143, 826), (1156, 848), (1159, 855), (1164, 861), (1166, 866), (1168, 869), (1168, 870), (1170, 872), (1171, 873), (1172, 877), (1172, 877), (1173, 879)]",57.85809017299819,"[1, 9, 8, 4, 2, 5, 7, 6, 3]","(0, 0.25)",DOT011D,DOT,D,English,Wed Sep 05 15:02:57 2018,Mouse
1,3,4,0,28,7,7,1,270,50,220,136,0,500,200,8000,"[(960, 540), (960, 540), (960, 540), (960, 540), (960, 537), (960, 532), (959, 522), (958, 514), (955, 490), (954, 478), (950, 464), (949, 451), (944, 409), (941, 383), (936, 356), (936, 333), (936, 302), (936, 288), (936, 273), (936, 261), (936, 232), (936, 218), (936, 204), (936, 192), (934, 166), (933, 154), (929, 138)]",265.5903956952571,"[1, 9, 8, 4, 2, 5, 7, 6, 3]","(0, 0.25)",DOT011D,DOT,D,English,Wed Sep 05 15:02:57 2018,Mouse
1,3,4,0,29,1,1,1,328,49,279,136,0,500,200,8000,"[(960, 540), (960, 540), (960, 540), (960, 540), (960, 544), (960, 545), (960, 546), (960, 547), (960, 548), (960, 549), (960, 550), (960, 551), (963, 553), (965, 555), (966, 557), (967, 558), (972, 562), (977, 565), (981, 567), (988, 571), (1009, 581), (1020, 588), (1033, 594), (1047, 598), (1089, 616), (1109, 625), (1136, 636), (1162, 648), (1220, 672), (1251, 684), (1280, 698), (1314, 708), (1374, 732)]",24.8803668591817,"[1, 9, 8, 4, 2, 5, 7, 6, 3]","(0, 0.25)",DOT011D,DOT,D,English,Wed Sep 05 15:02:57 2018,Mouse
1,3,4,0,30,3,3,1,578,188,390,135,0,500,200,8000,"[(960, 540), (960, 540), (960, 540), (960, 540), (960, 540), (960, 540), (960, 540), (960, 540), (960, 540), (960, 540), (960, 540), (960, 540), (960, 540), (960, 540), (960, 540), (960, 540), (960, 540), (960, 540), (959, 540), (958, 540), (957, 540), (957, 540), (957, 540), (957, 540), (957, 540), (957, 540), (957, 540), (957, 540), (957, 540), (957, 540), (957, 540), (957, 540), (957, 540), (957, 540), (957, 540), (957, 540), (957, 540), (957, 540), (957, 540), (957, 540), (957, 540), (957, 540), (957, 539), (961, 537), (966, 534), (974, 530), (994, 521), (1011, 515), (1028, 508), (1046, 501), (1091, 488), (1111, 482), (1136, 474), (1164, 466), (1236, 446), (1279, 441), (1319, 435), (1365, 427)]",344.4102414169991,"[1, 9, 8, 4, 2, 5, 7, 6, 3]","(0, 0.25)",DOT011D,DOT,D,English,Wed Sep 05 15:02:57 2018,Mouse
1,3,4,0,31,2,2,1,2227,717,1510,134,0,500,200,8000,"[(960, 540), (960, 540), (960, 540), (960, 540), (960, 540), (960, 540), (960, 540), (960, 540), (960, 540), (960, 540), (960, 540), (960, 540), (960, 540), (960, 540), (960, 540), (960, 540), (960, 540), (960, 540), (960, 540), (960, 540), (960, 540), (960, 540), (960, 540), (960, 540), (960, 540), (960, 540), (960, 540), (960, 540), (960, 540), (960, 540), (960, 540), (960, 540), (960, 540), (960, 540), (960, 540), (960, 540), (960, 540), (960, 540), (960, 540), (960, 540), (960, 540), (960, 540), (960, 540), (960, 540), (960, 540), (960, 540), (960, 540), (960, 540), (960, 540), (960, 540), (960, 540), (960, 540), (960, 540), (960, 540), (960, 540), (960, 540), (960, 540), (960, 540), (960, 540), (960, 540), (960, 540), (960, 540), (960, 540), (960, 540), (960, 540), (960, 540), (960, 540), (960, 540), (960, 540), (960, 540), (960, 540), (960, 539), (959, 539), (957, 539), (953, 539), (936, 539), (924, 539), (912, 539), (898, 539), (866, 539), (849, 539), (836, 539), (819, 537), (793, 534), (780, 532), (771, 531), (764, 531), (755, 531), (752, 531), (751, 531), (749, 531), (748, 530), (748, 530), (748, 530), (748, 530), (746, 530), (744, 530), (742, 530), (740, 530), (737, 530), (735, 530), (734, 530), (733, 530), (732, 530), (732, 530), (732, 530), (732, 530), (732, 530), (732, 530), (732, 530), (732, 530), (732, 530), (732, 530), (732, 530), (732, 530), (732, 530), (732, 530), (732, 530), (732, 530), (732, 530), (732, 530), (732, 530), (732, 530), (732, 530), (732, 530), (732, 530), (732, 530), (732, 530), (732, 530), (732, 530), (732, 530), (732, 530), (732, 530), (732, 530), (732, 530), (732, 530), (732, 530), (732, 530), (732, 530), (732, 530), (732, 530), (732, 530), (732, 530), (732, 530), (732, 530), (732, 530), (732, 530), (732, 530), (732, 530), (732, 530), (732, 530), (732, 530), (732, 530), (732, 530), (732, 530), (732, 530), (732, 530), (732, 530), (732, 530), (732, 530), (732, 530), (732, 530), (732, 530), (732, 530), (732, 530), (732, 530), (732, 530), (732, 530), (732, 530), (732, 530), (732, 530), (732, 530), (732, 530), (732, 530), (732, 530), (732, 530), (732, 530), (732, 530), (732, 530), (732, 530), (732, 530), (732, 530), (732, 530), (730, 530), (728, 530), (725, 530), (724, 530), (720, 530), (717, 530), (715, 531), (714, 531), (710, 532), (708, 533), (706, 533), (703, 533), (700, 534), (697, 534), (694, 535), (690, 535), (679, 536), (672, 538), (664, 539), (655, 540), (636, 541), (626, 544), (618, 545), (609, 546), (595, 549), (589, 550), (585, 550), (581, 551), (574, 553), (571, 553), (569, 553), (568, 553), (565, 553), (564, 553), (563, 553), (563, 553), (561, 553), (561, 553), (561, 553), (560, 553)]",178.13854236953327,"[1, 9, 8, 4, 2, 5, 7, 6, 3]","(0, 0.25)",DOT011D,DOT,D,English,Wed Sep 05 15:02:57 2018,Mouse
1,3,4,0,32,7,5,0,-1029,559,470,133,0,500,200,8000,"[(960, 540), (960, 540), (960, 540), (960, 540), (960, 540), (960, 540), (960, 540), (960, 540), (960, 540), (960, 540), (960, 540), (960, 540), (960, 540), (960, 540), (960, 540), (960, 540), (960, 540), (960, 540), (960, 540), (960, 540), (960, 540), (960, 540), (960, 540), (960, 540), (960, 540), (960, 540), (960, 540), (960, 540), (960, 540), (960, 540), (960, 540), (960, 540), (960, 540), (960, 540), (960, 540), (960, 540), (960, 540), (960, 540), (960, 540), (960, 540), (960, 540), (960, 540), (960, 540), (960, 540), (960, 540), (960, 540), (960, 540), (960, 540), (960, 540), (960, 540), (960, 540), (960, 540), (960, 540), (960, 540), (960, 540), (959, 541), (959, 551), (952, 576), (946, 598), (944, 607), (944, 607), (944, 607), (944, 607), (944, 607), (944, 607), (944, 603), (941, 596), (939, 584), (937, 580), (937, 576), (936, 570), (934, 556), (931, 548), (930, 541), (927, 535), (920, 517), (915, 507), (909, 495), (905, 485), (892, 463), (886, 451), (879, 438), (866, 416), (834, 371), (820, 356), (811, 346), (803, 335), (791, 318), (785, 311), (779, 304), (772, 297), (757, 287), (750, 282), (744, 280), (738, 277), (725, 273), (716, 271), (708, 268), (702, 267), (688, 263), (682, 261), (675, 261), (670, 258)]",224.19871266989298,"[1, 9, 8, 4, 2, 5, 7, 6, 3]","(0, 0.25)",DOT011D,DOT,D,English,Wed Sep 05 15:02:57 2018,Mouse
1,3,4,0,33,9,1,0,-441,101,340,134,0,500,200,8000,"[(960, 540), (960, 540), (960, 540), (960, 540), (960, 540), (960, 540), (960, 540), (960, 540), (960, 540), (960, 540), (960, 541), (960, 541), (959, 541), (959, 541), (959, 541), (959, 541), (959, 541), (959, 541), (959, 541), (959, 541), (959, 542), (959, 542), (959, 543), (959, 545), (960, 547), (962, 548), (964, 550), (967, 552), (979, 555), (989, 558), (1000, 559), (1011, 563), (1042, 570), (1060, 573), (1085, 579), (1108, 587), (1158, 603), (1183, 609), (1203, 614), (1231, 623), (1277, 633), (1302, 639), (1324, 645), (1340, 649), (1378, 661)]",16.14433878028348,"[1, 9, 8, 4, 2, 5, 7, 6, 3]","(0, 0.25)",DOT011D,DOT,D,English,Wed Sep 05 15:02:57 2018,Mouse
1,3,4,0,34,4,4,1,589,179,410,135,0,500,200,8000,"[(960, 540), (960, 540), (960, 540), (960, 540), (960, 540), (960, 540), (960, 540), (960, 540), (960, 540), (960, 540), (960, 540), (960, 540), (960, 540), (960, 540), (960, 540), (960, 540), (960, 540), (959, 540), (959, 540), (959, 540), (959, 540), (958, 540), (958, 541), (958, 541), (957, 541), (957, 541), (957, 541), (957, 541), (957, 541), (957, 541), (957, 541), (957, 541), (957, 541), (956, 542), (956, 542), (956, 543), (956, 545), (955, 545), (952, 549), (951, 552), (948, 555), (943, 560), (932, 569), (925, 575), (918, 581), (912, 586), (894, 598), (883, 606), (871, 612), (856, 620), (818, 642), (796, 657), (776, 670), (754, 685), (717, 711), (703, 721), (690, 735), (675, 752), (631, 790)]",142.7695818781093,"[1, 9, 8, 4, 2, 5, 7, 6, 3]","(0, 0.25)",DOT011D,DOT,D,English,Wed Sep 05 15:02:57 2018,Mouse
1,3,4,0,35,9,7,0,-1499,699,800,135,0,500,200,8000,"[(960, 540), (960, 540), (960, 540), (960, 540), (960, 540), (960, 540), (960, 540), (960, 540), (960, 540), (960, 540), (960, 540), (960, 540), (960, 540), (960, 540), (960, 540), (960, 540), (960, 540), (960, 540), (960, 540), (960, 540), (960, 540), (960, 540), (960, 540), (960, 540), (960, 540), (960, 540), (960, 540), (960, 540), (960, 540), (960, 540), (960, 540), (960, 540), (960, 540), (960, 540), (960, 540), (960, 540), (960, 540), (960, 540), (960, 540), (960, 540), (960, 540), (960, 540), (960, 540), (960, 540), (960, 540), (960, 540), (960, 540), (960, 540), (960, 540), (960, 540), (960, 540), (960, 540), (960, 540), (960, 540), (960, 540), (960, 540), (960, 540), (960, 540), (960, 540), (960, 540), (960, 540), (960, 540), (960, 540), (960, 540), (960, 540), (960, 540), (960, 540), (960, 540), (960, 540), (961, 540), (963, 539), (963, 538), (964, 536), (964, 535), (965, 533), (966, 531), (966, 531), (966, 531), (966, 531), (966, 531), (966, 531), (966, 531), (966, 531), (966, 531), (966, 531), (966, 531), (966, 531), (966, 531), (966, 531), (966, 531), (966, 531), (966, 531), (966, 531), (966, 531), (966, 531), (966, 531), (966, 531), (966, 531), (966, 531), (966, 531), (966, 531), (966, 531), (966, 531), (966, 531), (966, 531), (966, 531), (966, 531), (966, 531), (966, 531), (966, 531), (966, 531), (966, 531), (966, 531), (966, 531), (966, 531), (966, 531), (966, 531), (966, 531), (966, 531), (967, 530), (968, 529), (968, 526), (968, 520), (968, 513), (968, 504), (965, 495), (963, 473), (961, 463), (960, 452), (959, 442), (956, 423), (954, 410), (953, 401), (952, 387), (947, 361), (942, 345), (937, 330), (930, 310), (916, 277), (915, 264), (914, 252), (912, 240), (909, 216), (906, 204), (904, 193), (900, 182), (895, 164), (892, 157), (889, 150), (887, 144)]",259.5551596795139,"[1, 9, 8, 4, 2, 5, 7, 6, 3]","(0, 0.25)",DOT011D,DOT,D,English,Wed Sep 05 15:02:57 2018,Mouse
1,3,4,0,36,6,6,1,1500,60,1440,136,0,500,200,8000,"[(960, 540), (960, 540), (960, 540), (960, 540), (960, 540), (960, 542), (962, 545), (964, 550), (965, 551), (965, 551), (965, 551), (965, 551), (965, 551), (965, 551), (965, 551), (965, 551), (965, 551), (965, 551), (965, 551), (965, 551), (965, 551), (965, 551), (965, 551), (965, 551), (965, 551), (965, 551), (965, 551), (965, 551), (965, 551), (965, 551), (965, 551), (965, 551), (965, 551), (965, 551), (965, 551), (965, 551), (965, 551), (965, 551), (965, 551), (965, 551), (965, 551), (965, 551), (965, 551), (965, 551), (965, 551), (965, 551), (965, 551), (965, 551), (965, 551), (965, 551), (965, 551), (965, 551), (965, 551), (965, 551), (965, 551), (965, 551), (965, 551), (965, 551), (965, 551), (965, 551), (965, 551), (965, 551), (965, 551), (965, 551), (965, 551), (965, 551), (965, 551), (965, 551), (965, 551), (965, 551), (965, 551), (965, 551), (965, 551), (965, 551), (965, 551), (965, 551), (965, 551), (965, 551), (965, 551), (965, 551), (965, 551), (965, 551), (965, 551), (965, 551), (965, 551), (965, 551), (965, 551), (965, 551), (965, 551), (965, 551), (965, 551), (965, 551), (965, 551), (965, 551), (965, 551), (965, 551), (965, 551), (965, 551), (965, 551), (965, 551), (965, 551), (965, 551), (965, 551), (965, 551), (965, 551), (965, 551), (965, 551), (965, 551), (965, 551), (965, 551), (965, 551), (965, 552), (967, 552), (970, 552), (972, 552), (976, 552), (977, 552), (981, 550), (984, 547), (996, 529), (1004, 517), (1011, 506), (1018, 494), (1027, 473), (1030, 463), (1034, 456), (1034, 452), (1034, 439), (1035, 435), (1035, 433), (1035, 429), (1038, 422), (1038, 418), (1040, 411), (1043, 402), (1047, 385), (1052, 374), (1056, 364), (1061, 356), (1080, 320), (1090, 302), (1097, 288), (1106, 274), (1120, 250), (1125, 240), (1131, 228), (1138, 220), (1147, 205), (1151, 197), (1156, 190)]",299.248826336547,"[1, 9, 8, 4, 2, 5, 7, 6, 3]","(0, 0.25)",DOT011D,DOT,D,English,Wed Sep 05 15:02:57 2018,Mouse
1,3,4,0,37,1,1,1,290,100,190,136,0,500,200,8000,"[(960, 540), (960, 540), (960, 540), (960, 540), (960, 540), (960, 540), (960, 540), (960, 540), (960, 540), (963, 542), (969, 545), (977, 547), (994, 555), (1004, 559), (1015, 562), (1029, 567), (1059, 576), (1079, 581), (1096, 587), (1120, 591), (1168, 607), (1196, 615), (1218, 621), (1236, 627), (1272, 643), (1287, 649), (1300, 656), (1314, 663), (1341, 673)]",19.243142890104277,"[1, 9, 8, 4, 2, 5, 7, 6, 3]","(0, 0.25)",DOT011D,DOT,D,English,Wed Sep 05 15:02:57 2018,Mouse
1,3,4,0,38,8,9,0,-699,469,230,135,0,500,200,8000,"[(960, 540), (960, 540), (960, 540), (960, 540), (960, 540), (960, 540), (960, 540), (960, 540), (960, 540), (960, 540), (960, 540), (960, 540), (960, 540), (960, 540), (960, 540), (960, 540), (960, 540), (960, 540), (960, 540), (960, 540), (960, 540), (960, 540), (960, 540), (960, 540), (960, 540), (960, 540), (960, 540), (960, 540), (960, 540), (960, 540), (960, 540), (960, 540), (960, 540), (960, 540), (960, 540), (960, 540), (960, 540), (960, 540), (960, 540), (960, 540), (960, 540), (960, 540), (960, 540), (960, 540), (960, 540), (960, 540), (960, 541), (960, 542), (960, 545), (960, 548), (960, 556), (960, 562), (961, 568), (962, 571), (965, 580), (966, 586), (969, 591), (972, 597), (983, 612), (989, 622), (996, 633), (1010, 651), (1044, 706), (1064, 737), (1084, 770), (1105, 795), (1136, 843), (1145, 857), (1152, 870), (1163, 887)]",59.67175079590183,"[1, 9, 8, 4, 2, 5, 7, 6, 3]","(0, 0.25)",DOT011D,DOT,D,English,Wed Sep 05 15:02:57 2018,Mouse
1,3,4,0,39,8,9,0,-1040,410,630,136,0,500,200,8000,"[(960, 540), (960, 540), (960, 540), (960, 540), (960, 540), (960, 540), (960, 540), (960, 540), (960, 540), (960, 540), (960, 540), (960, 540), (960, 540), (960, 540), (960, 540), (960, 540), (960, 540), (960, 540), (960, 540), (960, 540), (960, 540), (960, 540), (960, 540), (960, 540), (960, 540), (960, 540), (960, 540), (960, 540), (960, 540), (960, 540), (960, 540), (960, 540), (960, 540), (960, 540), (960, 540), (960, 540), (960, 540), (960, 540), (960, 540), (960, 540), (960, 541), (960, 541), (960, 542), (960, 542), (960, 542), (960, 542), (960, 542), (960, 542), (960, 542), (960, 542), (960, 543), (960, 543), (960, 543), (960, 543), (960, 543), (960, 543), (960, 543), (960, 543), (960, 543), (960, 543), (960, 543), (960, 543), (960, 543), (960, 543), (960, 543), (960, 543), (960, 543), (960, 543), (960, 543), (960, 543), (960, 543), (960, 543), (960, 543), (960, 543), (960, 543), (960, 543), (960, 543), (960, 543), (960, 543), (960, 543), (960, 543), (960, 543), (960, 543), (960, 543), (960, 543), (960, 543), (960, 543), (960, 543), (960, 543), (960, 543), (960, 546), (961, 557), (965, 568), (968, 584), (976, 609), (1001, 662), (1015, 694), (1029, 716), (1045, 746), (1081, 823), (1096, 858), (1107, 884), (1119, 906), (1134, 925)]",65.67950312344928,"[1, 9, 8, 4, 2, 5, 7, 6, 3]","(0, 0.25)",DOT011D,DOT,D,English,Wed Sep 05 15:02:57 2018,Mouse
1,3,4,0,40,3,3,1,2367,767,1600,137,0,500,200,8000,"[(960, 540), (960, 540), (960, 540), (960, 540), (960, 540), (960, 540), (960, 540), (960, 540), (960, 540), (960, 540), (960, 540), (960, 540), (960, 540), (960, 540), (960, 540), (960, 540), (960, 540), (960, 540), (960, 540), (960, 540), (960, 540), (960, 540), (960, 540), (960, 540), (960, 540), (960, 540), (960, 540), (960, 540), (960, 540), (960, 540), (960, 540), (960, 540), (960, 540), (960, 540), (960, 540), (960, 540), (960, 540), (960, 540), (960, 540), (960, 540), (960, 540), (960, 540), (960, 540), (960, 540), (960, 540), (960, 540), (960, 540), (960, 540), (960, 540), (960, 540), (960, 540), (960, 540), (960, 540), (960, 540), (960, 540), (960, 540), (960, 540), (960, 540), (960, 540), (960, 540), (960, 540), (960, 540), (960, 540), (960, 540), (960, 540), (960, 540), (960, 540), (960, 540), (960, 540), (960, 540), (960, 540), (960, 540), (960, 540), (960, 540), (960, 540), (960, 540), (960, 541), (960, 541), (960, 542), (960, 542), (959, 543), (959, 543), (959, 543), (958, 543), (958, 543), (958, 543), (958, 543), (958, 543), (958, 543), (958, 543), (958, 543), (958, 543), (958, 543), (958, 543), (958, 543), (958, 543), (958, 543), (958, 543), (958, 543), (958, 543), (958, 543), (958, 543), (958, 543), (958, 543), (958, 543), (958, 543), (958, 543), (958, 543), (958, 543), (958, 543), (958, 543), (958, 543), (958, 543), (958, 543), (958, 543), (958, 543), (958, 543), (958, 543), (958, 543), (958, 543), (958, 543), (958, 543), (958, 543), (958, 543), (958, 543), (958, 543), (958, 543), (958, 543), (958, 543), (958, 543), (958, 543), (958, 543), (958, 543), (958, 543), (958, 543), (958, 543), (958, 543), (958, 543), (958, 543), (958, 543), (958, 543), (958, 543), (958, 543), (958, 543), (958, 543), (958, 543), (958, 543), (958, 543), (958, 543), (958, 543), (958, 543), (958, 543), (958, 543), (958, 543), (958, 543), (958, 543), (958, 543), (958, 543), (958, 543), (958, 543), (958, 543), (958, 543), (958, 543), (958, 543), (958, 543), (958, 543), (958, 543), (958, 543), (958, 543), (958, 543), (958, 543), (958, 543), (958, 543), (958, 543), (958, 543), (958, 543), (958, 543), (958, 543), (958, 543), (958, 543), (958, 543), (958, 543), (958, 543), (958, 543), (958, 543), (958, 543), (958, 543), (958, 543), (958, 543), (958, 543), (958, 543), (958, 543), (958, 543), (958, 543), (958, 543), (958, 543), (958, 543), (958, 543), (958, 543), (958, 543), (958, 543), (958, 543), (958, 543), (958, 543), (958, 543), (958, 543), (958, 543), (958, 543), (958, 543), (958, 543), (958, 543), (958, 543), (958, 543), (958, 543), (958, 543), (958, 543), (958, 543), (962, 541), (977, 536), (985, 532), (994, 528), (1004, 523), (1030, 510), (1049, 498), (1063, 487), (1078, 477), (1099, 459), (1111, 448), (1130, 437), (1147, 427), (1181, 415), (1207, 407), (1228, 404), (1250, 398), (1300, 383), (1321, 374), (1341, 367)]",335.5787096881454,"[1, 9, 8, 4, 2, 5, 7, 6, 3]","(0, 0.25)",DOT011D,DOT,D,English,Wed Sep 05 15:02:57 2018,Mouse
1,3,4,0,41,3,3,1,289,19,270,137,0,500,200,8000,"[(973, 537), (978, 536), (982, 535), (987, 533), (1005, 527), (1017, 523), (1025, 519), (1035, 515), (1055, 506), (1063, 503), (1073, 499), (1082, 494), (1104, 485), (1114, 481), (1124, 475), (1135, 471), (1155, 462), (1166, 458), (1175, 453), (1186, 447), (1210, 437), (1223, 433), (1234, 431), (1247, 427), (1276, 420), (1289, 415), (1305, 409), (1318, 404), (1342, 396)]",339.3453956238801,"[1, 9, 8, 4, 2, 5, 7, 6, 3]","(0, 0.25)",DOT011D,DOT,D,English,Wed Sep 05 15:02:57 2018,Mouse
1,3,4,0,42,4,4,1,470,30,440,136,0,500,200,8000,"[(959, 540), (959, 540), (958, 540), (957, 540), (957, 540), (957, 540), (957, 540), (957, 540), (957, 540), (956, 541), (956, 541), (956, 541), (956, 541), (956, 541), (956, 541), (956, 541), (956, 541), (956, 541), (955, 541), (953, 541), (951, 544), (949, 544), (945, 548), (944, 549), (941, 551), (937, 553), (932, 557), (928, 560), (923, 563), (918, 567), (908, 573), (902, 577), (895, 581), (887, 585), (872, 594), (862, 601), (853, 608), (842, 616), (816, 634), (802, 645), (784, 658), (761, 676), (721, 709), (692, 732), (671, 750), (648, 770), (605, 803)]",143.46728503184096,"[1, 9, 8, 4, 2, 5, 7, 6, 3]","(0, 0.25)",DOT011D,DOT,D,English,Wed Sep 05 15:02:57 2018,Mouse
1,3,4,0,43,5,5,1,779,349,430,135,0,500,200,8000,"[(960, 540), (960, 540), (960, 540), (960, 540), (960, 540), (960, 540), (960, 540), (960, 540), (960, 540), (960, 540), (960, 540), (960, 540), (960, 540), (960, 540), (960, 540), (960, 540), (960, 540), (960, 540), (960, 540), (960, 540), (960, 540), (960, 540), (960, 540), (960, 540), (960, 540), (960, 540), (960, 540), (960, 540), (960, 540), (960, 540), (960, 540), (960, 540), (960, 540), (960, 540), (958, 540), (957, 540), (957, 540), (957, 540), (957, 540), (957, 540), (957, 540), (957, 540), (957, 540), (957, 540), (956, 540), (956, 540), (956, 540), (956, 540), (956, 540), (955, 539), (955, 537), (955, 535), (954, 532), (954, 528), (953, 518), (951, 512), (948, 509), (947, 502), (936, 485), (927, 476), (917, 467), (904, 460), (885, 449), (875, 444), (865, 438), (852, 431), (828, 421), (817, 416), (804, 410), (793, 405), (772, 390), (760, 379), (751, 369), (737, 351), (703, 310), (688, 292), (677, 279), (664, 268)]",222.58049078334366,"[1, 9, 8, 4, 2, 5, 7, 6, 3]","(0, 0.25)",DOT011D,DOT,D,English,Wed Sep 05 15:02:57 2018,Mouse
1,3,4,0,44,1,1,1,421,60,361,134,0,500,200,8000,"[(960, 540), (960, 540), (960, 540), (960, 540), (960, 540), (960, 539), (960, 535), (964, 534), (966, 533), (967, 532), (967, 532), (970, 531), (971, 531), (972, 530), (973, 529), (979, 525), (982, 524), (988, 523), (992, 523), (1007, 520), (1015, 518), (1022, 518), (1031, 515), (1049, 513), (1060, 512), (1072, 512), (1087, 512), (1111, 512), (1122, 512), (1133, 512), (1143, 515), (1162, 525), (1169, 532), (1181, 540), (1191, 549), (1215, 567), (1232, 577), (1249, 590), (1270, 600), (1310, 621), (1329, 631), (1350, 640)]",14.381394591090604,"[1, 9, 8, 4, 2, 5, 7, 6, 3]","(0, 0.25)",DOT011D,DOT,D,English,Wed Sep 05 15:02:57 2018,Mouse
1,3,4,0,45,6,5,0,-850,320,530,133,0,500,200,8000,"[(960, 540), (960, 540), (960, 540), (960, 540), (960, 540), (960, 540), (960, 540), (960, 540), (960, 540), (960, 540), (960, 540), (960, 540), (960, 540), (960, 540), (960, 540), (960, 540), (960, 540), (960, 540), (960, 540), (960, 540), (960, 540), (960, 540), (960, 540), (960, 540), (960, 540), (960, 540), (960, 540), (960, 540), (960, 540), (960, 540), (960, 540), (960, 541), (958, 544), (956, 546), (955, 546), (953, 547), (952, 547), (949, 547), (949, 547), (948, 547), (946, 549), (946, 549), (945, 550), (945, 550), (943, 550), (943, 550), (942, 551), (942, 551), (942, 551), (942, 551), (942, 551), (942, 551), (942, 551), (942, 551), (942, 551), (942, 551), (942, 551), (942, 551), (942, 551), (940, 551), (929, 543), (921, 539), (910, 533), (900, 526), (867, 509), (848, 499), (826, 484), (809, 473), (784, 450), (776, 440), (769, 429), (762, 420), (753, 400), (749, 390), (745, 379), (740, 367), (731, 345), (723, 333), (716, 322), (709, 310), (697, 293), (690, 283), (684, 275), (680, 269), (670, 258)]",224.19871266989298,"[1, 9, 8, 4, 2, 5, 7, 6, 3]","(0, 0.25)",DOT011D,DOT,D,English,Wed Sep 05 15:02:57 2018,Mouse
1,3,4,0,46,4,4,1,359,19,340,134,0,500,200,8000,"[(959, 541), (957, 542), (950, 556), (946, 564), (941, 574), (937, 584), (923, 608), (916, 620), (908, 631), (903, 639), (890, 655), (884, 663), (879, 670), (873, 678), (864, 692), (857, 699), (852, 705), (848, 710), (838, 723), (833, 728), (829, 732), (824, 737), (811, 746), (804, 751), (795, 755), (785, 759), (763, 768), (750, 771), (742, 775), (733, 779), (715, 784), (704, 786), (692, 790), (681, 792), (662, 797), (654, 798)]",139.86451443776053,"[1, 9, 8, 4, 2, 5, 7, 6, 3]","(0, 0.25)",DOT011D,DOT,D,English,Wed Sep 05 15:02:57 2018,Mouse
1,3,4,0,47,6,8,0,-820,180,640,134,0,500,200,8000,"[(960, 540), (960, 540), (960, 540), (960, 540), (960, 540), (960, 540), (960, 540), (960, 540), (960, 540), (960, 540), (960, 540), (960, 540), (960, 540), (960, 540), (960, 540), (960, 540), (960, 540), (959, 540), (959, 541), (959, 541), (959, 542), (959, 544), (959, 545), (959, 549), (959, 552), (959, 555), (959, 556), (959, 557), (959, 559), (959, 562), (959, 563), (959, 565), (959, 566), (959, 569), (959, 570), (959, 570), (959, 572), (959, 577), (958, 581), (958, 586), (958, 590), (954, 606), (949, 616), (945, 627), (940, 639), (932, 662), (930, 676), (927, 690), (924, 701), (917, 724), (914, 733), (911, 743), (909, 752), (906, 770), (906, 781), (906, 789), (906, 800), (906, 826), (906, 838), (906, 850), (906, 860), (905, 879), (905, 887), (905, 895), (905, 901), (905, 909), (905, 913), (905, 916), (905, 918), (905, 923), (905, 924), (905, 927), (905, 928), (905, 930), (905, 931), (905, 931), (905, 932), (905, 934), (905, 934), (905, 934), (905, 935), (905, 937)]",97.88749641022042,"[1, 9, 8, 4, 2, 5, 7, 6, 3]","(0, 0.25)",DOT011D,DOT,D,English,Wed Sep 05 15:02:57 2018,Mouse
1,3,4,0,48,4,4,1,449,29,420,135,0,500,200,8000,"[(960, 540), (960, 540), (958, 540), (956, 542), (955, 542), (952, 544), (947, 547), (945, 548), (941, 550), (939, 551), (937, 552), (936, 552), (934, 553), (934, 553), (934, 553), (934, 553), (934, 553), (934, 553), (934, 553), (933, 554), (930, 555), (925, 559), (911, 572), (903, 584), (891, 599), (878, 617), (844, 662), (821, 680), (800, 698), (780, 715), (757, 739), (745, 750), (736, 758), (727, 762), (712, 774), (705, 784), (700, 788), (696, 790), (692, 793), (690, 795), (687, 796), (682, 799), (670, 804), (664, 806), (657, 809)]",138.4016906935337,"[1, 9, 8, 4, 2, 5, 7, 6, 3]","(0, 0.25)",DOT011D,DOT,D,English,Wed Sep 05 15:02:57 2018,Mouse
1,3,4,0,49,5,5,1,729,19,710,135,0,500,200,8000,"[(960, 540), (960, 542), (960, 543), (960, 543), (960, 544), (960, 544), (960, 545), (960, 545), (960, 545), (960, 545), (960, 545), (960, 545), (960, 545), (960, 545), (960, 545), (960, 545), (960, 545), (960, 545), (960, 545), (960, 545), (960, 545), (960, 545), (960, 545), (960, 545), (960, 545), (960, 545), (960, 545), (960, 545), (960, 545), (959, 545), (958, 545), (956, 542), (953, 537), (950, 535), (946, 531), (943, 527), (933, 518), (928, 514), (926, 513), (922, 509), (919, 507), (919, 507), (919, 507), (918, 504), (916, 502), (916, 499), (915, 497), (914, 496), (913, 494), (913, 494), (913, 494), (913, 494), (913, 493), (913, 493), (912, 491), (912, 491), (909, 487), (907, 485), (904, 481), (901, 477), (890, 467), (881, 461), (870, 454), (855, 445), (825, 427), (806, 415), (786, 401), (769, 390), (725, 362), (695, 344), (676, 334), (655, 322), (629, 308)]",215.0268575146019,"[1, 9, 8, 4, 2, 5, 7, 6, 3]","(0, 0.25)",DOT011D,DOT,D,English,Wed Sep 05 15:02:57 2018,Mouse
1,3,4,0,50,4,4,1,500,110,390,134,0,500,200,8000,"[(960, 540), (960, 540), (960, 540), (960, 540), (960, 540), (960, 540), (960, 540), (960, 540), (960, 540), (960, 540), (961, 540), (960, 543), (959, 544), (956, 548), (954, 551), (952, 554), (952, 554), (951, 555), (950, 555), (950, 556), (949, 556), (949, 558), (947, 560), (945, 562), (942, 565), (939, 569), (933, 577), (930, 582), (928, 583), (927, 585), (925, 587), (925, 587), (925, 587), (925, 587), (925, 587), (925, 587), (925, 587), (924, 587), (917, 591), (911, 593), (901, 595), (890, 598), (848, 617), (818, 635), (780, 655), (747, 674), (679, 712), (647, 730), (622, 745), (606, 755)]",148.7278219609483,"[1, 9, 8, 4, 2, 5, 7, 6, 3]","(0, 0.25)",DOT011D,DOT,D,English,Wed Sep 05 15:02:57 2018,Mouse
1,3,4,0,51,3,6,0,-1880,1680,200,133,0,500,200,8000,"[(960, 540), (960, 540), (960, 540), (960, 540), (960, 540), (960, 540), (960, 540), (960, 540), (960, 540), (960, 540), (960, 540), (960, 540), (960, 540), (960, 540), (960, 540), (960, 540), (960, 540), (960, 540), (960, 540), (960, 540), (960, 540), (960, 540), (960, 540), (960, 540), (960, 540), (960, 540), (960, 540), (960, 540), (960, 540), (960, 540), (960, 540), (960, 540), (960, 540), (960, 540), (960, 540), (960, 540), (960, 540), (960, 540), (960, 540), (960, 540), (960, 540), (960, 540), (960, 540), (960, 540), (960, 540), (960, 540), (960, 540), (960, 540), (960, 540), (960, 540), (960, 540), (960, 540), (960, 540), (960, 540), (960, 540), (960, 540), (960, 540), (960, 540), (960, 540), (960, 540), (960, 540), (960, 540), (960, 540), (960, 540), (960, 540), (960, 540), (960, 540), (960, 540), (960, 540), (960, 540), (960, 540), (960, 540), (960, 540), (960, 540), (960, 540), (960, 540), (960, 540), (960, 540), (960, 540), (960, 540), (960, 540), (960, 540), (960, 540), (960, 540), (960, 540), (960, 540), (960, 540), (960, 540), (960, 540), (960, 540), (960, 540), (960, 540), (960, 540), (960, 540), (960, 540), (960, 540), (960, 540), (960, 540), (960, 540), (960, 540), (960, 540), (960, 540), (960, 540), (960, 540), (960, 540), (960, 540), (960, 540), (960, 540), (960, 540), (960, 540), (960, 540), (960, 540), (960, 540), (960, 540), (960, 540), (960, 540), (960, 540), (960, 540), (960, 540), (960, 540), (960, 540), (960, 540), (960, 540), (960, 540), (960, 540), (960, 540), (960, 540), (960, 540), (960, 540), (960, 540), (960, 540), (960, 540), (960, 540), (960, 540), (960, 540), (960, 540), (960, 540), (960, 540), (960, 540), (960, 540), (960, 540), (960, 540), (960, 540), (960, 540), (960, 540), (960, 540), (960, 540), (960, 540), (960, 540), (960, 540), (960, 540), (960, 540), (960, 540), (960, 540), (960, 540), (960, 540), (960, 540), (960, 540), (960, 540), (960, 540), (960, 540), (960, 540), (960, 540), (960, 540), (960, 540), (960, 540), (960, 540), (960, 538), (961, 537), (966, 531), (968, 528), (974, 517), (978, 511), (985, 502), (992, 490), (1015, 457), (1025, 438), (1038, 417), (1050, 395), (1080, 336), (1090, 308), (1105, 283), (1114, 267), (1129, 238), (1138, 224), (1144, 214), (1149, 202), (1160, 182)]",299.19031151823907,"[1, 9, 8, 4, 2, 5, 7, 6, 3]","(0, 0.25)",DOT011D,DOT,D,English,Wed Sep 05 15:02:57 2018,Mouse
1,3,4,0,52,9,5,0,-949,129,820,134,0,500,200,8000,"[(960, 540), (960, 540), (960, 540), (960, 540), (960, 540), (960, 540), (960, 540), (960, 540), (960, 540), (960, 540), (960, 540), (960, 540), (958, 544), (958, 546), (954, 551), (952, 553), (951, 554), (948, 558), (942, 568), (936, 575), (930, 585), (924, 596), (907, 619), (897, 633), (879, 656), (868, 670), (834, 701), (817, 715), (797, 729), (784, 736), (765, 749), (760, 752), (757, 755), (756, 756), (756, 756), (756, 756), (756, 756), (756, 756), (756, 756), (756, 756), (756, 756), (756, 756), (755, 756), (756, 754), (756, 754), (756, 753), (757, 752), (757, 752), (757, 751), (758, 750), (760, 748), (760, 748), (760, 748), (760, 748), (760, 748), (760, 748), (760, 748), (760, 748), (760, 748), (760, 748), (760, 748), (760, 748), (760, 748), (760, 748), (760, 748), (760, 748), (760, 740), (760, 733), (760, 728), (760, 718), (760, 696), (760, 683), (760, 669), (760, 651), (760, 619), (760, 600), (760, 577), (760, 555), (756, 492), (750, 470), (747, 456), (740, 440), (732, 414), (729, 401), (725, 391), (723, 378), (715, 353), (713, 345), (710, 333), (706, 322), (698, 298), (696, 288), (692, 279), (687, 269), (679, 252)]",225.7048334357311,"[1, 9, 8, 4, 2, 5, 7, 6, 3]","(0, 0.25)",DOT011D,DOT,D,English,Wed Sep 05 15:02:57 2018,Mouse
1,3,4,0,53,5,5,1,311,11,300,135,0,500,200,8000,"[(960, 540), (957, 537), (953, 533), (942, 524), (936, 519), (929, 510), (921, 502), (904, 481), (895, 473), (885, 466), (873, 456), (845, 437), (830, 428), (818, 422), (809, 417), (796, 407), (791, 403), (788, 401), (785, 395), (778, 384), (774, 379), (768, 374), (762, 369), (746, 358), (736, 352), (724, 345), (711, 337), (685, 320), (676, 312), (665, 304), (657, 296), (644, 287)]",218.68191310620057,"[1, 9, 8, 4, 2, 5, 7, 6, 3]","(0, 0.25)",DOT011D,DOT,D,English,Wed Sep 05 15:02:57 2018,Mouse
1,3,4,0,54,8,9,0,-840,110,730,135,0,500,200,8000,"[(960, 540), (960, 540), (960, 540), (960, 540), (960, 540), (960, 540), (960, 540), (960, 540), (960, 540), (960, 540), (960, 541), (960, 541), (960, 541), (960, 541), (960, 541), (960, 541), (960, 541), (960, 541), (960, 541), (960, 541), (960, 541), (960, 541), (960, 541), (960, 541), (960, 542), (960, 542), (960, 542), (960, 542), (960, 542), (960, 543), (960, 544), (960, 544), (960, 544), (960, 544), (960, 545), (960, 545), (960, 546), (960, 546), (960, 547), (960, 547), (960, 547), (960, 547), (960, 548), (960, 548), (960, 548), (960, 548), (960, 548), (960, 549), (960, 549), (960, 549), (960, 549), (960, 549), (960, 550), (960, 550), (960, 550), (960, 550), (960, 550), (960, 551), (960, 551), (960, 552), (960, 552), (960, 553), (960, 553), (960, 555), (960, 556), (960, 557), (960, 561), (960, 563), (962, 567), (966, 574), (978, 590), (986, 602), (996, 615), (1010, 635), (1035, 671), (1046, 688), (1056, 704), (1067, 724), (1094, 767), (1107, 789), (1121, 811), (1139, 834), (1162, 866), (1175, 883)]",57.91960272177265,"[1, 9, 8, 4, 2, 5, 7, 6, 3]","(0, 0.25)",DOT011D,DOT,D,English,Wed Sep 05 15:02:57 2018,Mouse
1,3,4,0,55,6,6,1,620,500,120,136,0,500,200,8000,"[(960, 540), (960, 540), (960, 540), (960, 540), (960, 540), (960, 540), (960, 540), (960, 540), (960, 540), (960, 540), (960, 540), (960, 540), (960, 540), (960, 540), (960, 540), (960, 540), (960, 540), (960, 540), (960, 540), (960, 540), (960, 540), (960, 540), (960, 540), (960, 540), (960, 540), (960, 540), (960, 540), (960, 540), (960, 540), (960, 540), (960, 540), (960, 540), (960, 540), (960, 540), (960, 540), (960, 540), (960, 540), (960, 540), (960, 540), (960, 540), (960, 540), (960, 540), (960, 540), (960, 540), (960, 540), (960, 540), (960, 540), (960, 540), (960, 540), (960, 534), (962, 525), (968, 511), (975, 496), (992, 454), (1004, 428), (1016, 399), (1026, 368), (1057, 299), (1072, 265), (1086, 233), (1097, 206), (1120, 154)]",292.51438682803536,"[1, 9, 8, 4, 2, 5, 7, 6, 3]","(0, 0.25)",DOT011D,DOT,D,English,Wed Sep 05 15:02:57 2018,Mouse
1,3,4,0,56,8,8,1,461,11,450,136,0,500,200,8000,"[(960, 540), (959, 541), (959, 541), (958, 542), (958, 543), (957, 544), (957, 544), (954, 547), (954, 547), (953, 548), (953, 549), (952, 550), (951, 552), (951, 552), (950, 553), (949, 555), (947, 556), (947, 556), (947, 558), (946, 558), (946, 559), (946, 559), (944, 561), (944, 563), (944, 566), (943, 568), (943, 569), (942, 576), (942, 582), (940, 590), (939, 598), (937, 618), (933, 632), (932, 647), (928, 665), (922, 702), (919, 726), (915, 742), (914, 760), (906, 802), (906, 819), (904, 835), (904, 852), (899, 888), (895, 907), (892, 928), (887, 955)]",99.97647263963889,"[1, 9, 8, 4, 2, 5, 7, 6, 3]","(0, 0.25)",DOT011D,DOT,D,English,Wed Sep 05 15:02:57 2018,Mouse
1,3,4,0,57,9,8,0,-349,19,330,135,0,500,200,8000,"[(960, 540), (960, 541), (960, 541), (959, 545), (959, 545), (958, 547), (958, 547), (958, 549), (957, 551), (957, 551), (957, 553), (955, 558), (954, 562), (953, 565), (953, 568), (950, 574), (949, 579), (948, 582), (946, 588), (945, 598), (944, 603), (944, 609), (944, 615), (944, 630), (940, 641), (939, 653), (935, 675), (924, 755), (921, 787), (914, 817), (909, 844), (905, 888), (902, 912), (902, 931), (902, 957)]",97.91839570101996,"[1, 9, 8, 4, 2, 5, 7, 6, 3]","(0, 0.25)",DOT011D,DOT,D,English,Wed Sep 05 15:02:57 2018,Mouse
1,3,4,0,58,3,3,1,438,238,200,136,0,500,200,8000,"[(960, 540), (960, 540), (960, 540), (960, 540), (960, 540), (960, 540), (960, 540), (960, 540), (960, 540), (960, 540), (960, 540), (960, 540), (960, 540), (960, 540), (960, 540), (960, 540), (960, 540), (960, 540), (960, 540), (960, 540), (960, 540), (960, 540), (960, 540), (961, 540), (963, 540), (963, 540), (966, 540), (971, 540), (976, 538), (980, 537), (986, 536), (1004, 531), (1016, 527), (1030, 523), (1042, 517), (1075, 504), (1093, 497), (1112, 487), (1138, 476), (1202, 447), (1233, 435), (1270, 418), (1307, 406), (1375, 379)]",338.7961468562444,"[1, 9, 8, 4, 2, 5, 7, 6, 3]","(0, 0.25)",DOT011D,DOT,D,English,Wed Sep 05 15:02:57 2018,Mouse
1,3,4,0,59,6,6,1,720,70,650,136,0,500,200,8000,"[(960, 540), (960, 540), (960, 540), (960, 540), (960, 540), (960, 540), (963, 541), (964, 545), (965, 547), (965, 548), (967, 551), (970, 553), (971, 556), (971, 561), (974, 569), (975, 573), (976, 573), (976, 575), (976, 578), (977, 580), (978, 581), (978, 582), (978, 582), (978, 582), (978, 582), (978, 582), (978, 582), (978, 582), (978, 582), (978, 582), (978, 582), (978, 582), (978, 582), (978, 582), (978, 582), (978, 582), (978, 582), (978, 582), (978, 582), (978, 582), (978, 582), (978, 582), (978, 582), (978, 582), (978, 582), (978, 582), (978, 582), (978, 582), (978, 582), (978, 582), (978, 582), (978, 582), (978, 582), (978, 582), (978, 582), (978, 582), (978, 582), (978, 582), (978, 579), (979, 575), (980, 569), (984, 563), (995, 539), (1001, 522), (1006, 505), (1017, 482), (1064, 415), (1094, 373), (1124, 331), (1149, 290), (1184, 220), (1195, 196)]",304.338527354918,"[1, 9, 8, 4, 2, 5, 7, 6, 3]","(0, 0.25)",DOT011D,DOT,D,English,Wed Sep 05 15:02:57 2018,Mouse
1,3,4,0,60,4,4,1,390,20,370,135,0,500,200,8000,"[(960, 540), (958, 542), (958, 542), (958, 542), (958, 542), (956, 543), (956, 543), (956, 544), (956, 544), (955, 544), (955, 544), (955, 544), (954, 544), (953, 545), (952, 545), (952, 545), (951, 546), (950, 546), (950, 547), (948, 547), (947, 549), (944, 551), (942, 554), (938, 556), (933, 560), (926, 566), (926, 566), (924, 566), (924, 566), (919, 571), (914, 575), (906, 581), (898, 591), (865, 636), (844, 667), (819, 701), (790, 740), (717, 813), (688, 836)]",132.58049078334366,"[1, 9, 8, 4, 2, 5, 7, 6, 3]","(0, 0.25)",DOT011D,DOT,D,English,Wed Sep 05 15:02:57 2018,Mouse
1,3,4,0,61,1,5,0,-1818,88,1730,134,0,500,200,8000,"[(960, 540), (960, 540), (960, 540), (960, 540), (960, 540), (960, 540), (960, 540), (960, 540), (961, 538), (961, 538), (961, 538), (961, 538), (961, 538), (961, 538), (961, 538), (961, 538), (961, 538), (961, 538), (961, 538), (961, 538), (961, 538), (961, 538), (961, 538), (961, 538), (961, 538), (961, 538), (961, 538), (961, 538), (961, 538), (961, 538), (961, 538), (961, 538), (961, 538), (963, 536), (963, 535), (965, 533), (966, 533), (966, 533), (968, 532), (968, 532), (968, 532), (969, 532), (969, 532), (969, 532), (969, 532), (969, 532), (969, 532), (969, 532), (969, 532), (969, 532), (969, 532), (969, 532), (969, 532), (969, 532), (969, 532), (969, 532), (969, 532), (969, 532), (969, 532), (969, 532), (969, 532), (969, 532), (969, 532), (969, 532), (969, 532), (969, 532), (969, 532), (969, 532), (969, 532), (969, 532), (969, 532), (969, 532), (969, 532), (969, 532), (969, 532), (969, 532), (969, 532), (969, 532), (969, 532), (969, 532), (969, 532), (969, 532), (969, 532), (969, 532), (969, 532), (969, 532), (969, 532), (969, 532), (969, 532), (969, 532), (969, 532), (969, 532), (969, 532), (969, 532), (969, 532), (969, 532), (969, 532), (969, 532), (969, 532), (969, 532), (969, 532), (969, 532), (967, 531), (956, 526), (940, 523), (894, 512), (867, 507), (857, 506), (846, 501), (837, 497), (833, 494), (827, 490), (821, 485), (803, 468), (792, 459), (785, 452), (781, 447), (775, 440), (773, 435), (771, 433), (771, 433), (769, 430), (769, 430), (768, 429), (768, 429), (768, 429), (768, 429), (768, 429), (768, 429), (768, 428), (768, 427), (768, 425), (766, 422), (758, 411), (753, 402), (747, 395), (741, 388), (732, 376), (729, 372), (728, 370), (728, 370), (728, 370), (728, 370), (728, 370), (728, 370), (728, 370), (728, 370), (728, 370), (728, 370), (728, 370), (728, 370), (728, 370), (728, 370), (728, 370), (728, 370), (728, 370), (728, 370), (728, 370), (728, 370), (728, 370), (728, 370), (728, 370), (728, 370), (728, 370), (728, 370), (728, 370), (728, 370), (728, 370), (728, 370), (728, 370), (728, 370), (728, 369), (728, 367), (728, 352), (728, 343), (724, 330), (718, 318), (704, 291), (696, 280), (687, 270), (679, 263), (668, 254)]",224.4052554847815,"[1, 9, 8, 4, 2, 5, 7, 6, 3]","(0, 0.25)",DOT011D,DOT,D,English,Wed Sep 05 15:02:57 2018,Mouse
1,3,4,0,62,7,7,1,641,311,330,135,0,500,200,8000,"[(960, 540), (960, 540), (960, 540), (960, 540), (960, 540), (960, 540), (960, 540), (960, 540), (960, 540), (960, 540), (960, 540), (960, 540), (960, 540), (960, 540), (960, 540), (960, 540), (960, 540), (960, 540), (960, 540), (960, 540), (960, 540), (960, 540), (960, 540), (960, 540), (960, 540), (960, 540), (960, 540), (960, 540), (960, 540), (960, 540), (960, 540), (961, 533), (961, 528), (961, 521), (961, 511), (961, 489), (961, 477), (961, 465), (961, 451), (961, 410), (959, 384), (957, 370), (956, 359), (951, 342), (949, 336), (948, 331), (947, 328), (944, 320), (942, 314), (940, 304), (938, 298), (932, 278), (929, 268), (928, 261), (926, 252), (922, 229), (920, 218), (918, 207), (917, 198), (916, 181), (915, 171), (915, 164), (915, 156), (915, 144), (915, 140)]",263.5812132697612,"[1, 9, 8, 4, 2, 5, 7, 6, 3]","(0, 0.25)",DOT011D,DOT,D,English,Wed Sep 05 15:02:57 2018,Mouse
1,3,4,0,63,5,4,0,-559,289,270,135,0,500,200,8000,"[(960, 540), (960, 540), (960, 540), (960, 540), (960, 540), (960, 540), (960, 540), (960, 540), (960, 540), (960, 540), (960, 540), (960, 540), (960, 540), (960, 540), (960, 540), (960, 540), (960, 540), (960, 540), (960, 540), (960, 540), (960, 540), (960, 540), (960, 540), (960, 540), (960, 540), (960, 540), (960, 540), (960, 540), (960, 541), (957, 544), (955, 547), (953, 551), (950, 553), (941, 565), (935, 571), (925, 581), (916, 590), (887, 617), (869, 635), (850, 654), (832, 671), (795, 699), (775, 711), (759, 720), (748, 727), (723, 741), (713, 747), (703, 751), (698, 755), (685, 764), (678, 769), (674, 771), (669, 776), (659, 785), (654, 789), (646, 794)]",141.03000880828148,"[1, 9, 8, 4, 2, 5, 7, 6, 3]","(0, 0.25)",DOT011D,DOT,D,English,Wed Sep 05 15:02:57 2018,Mouse
1,3,4,0,64,2,3,0,-719,259,460,136,0,500,200,8000,"[(960, 540), (960, 540), (960, 540), (960, 540), (960, 540), (960, 540), (960, 540), (960, 540), (960, 540), (960, 540), (960, 540), (960, 540), (960, 540), (960, 540), (960, 540), (960, 540), (960, 540), (960, 540), (960, 540), (960, 540), (960, 540), (960, 540), (960, 540), (960, 540), (960, 540), (962, 539), (964, 537), (964, 536), (968, 532), (970, 530), (970, 529), (971, 528), (971, 526), (971, 526), (971, 526), (973, 525), (973, 524), (974, 523), (975, 521), (975, 519), (978, 515), (980, 513), (981, 511), (982, 510), (984, 507), (985, 507), (985, 506), (986, 506), (986, 505), (986, 505), (986, 505), (986, 505), (987, 505), (989, 505), (993, 504), (998, 503), (1009, 498), (1019, 494), (1027, 491), (1037, 487), (1067, 474), (1085, 465), (1103, 457), (1129, 447), (1184, 422), (1212, 405), (1237, 388), (1259, 374), (1288, 355), (1299, 348), (1309, 345), (1319, 341)]",330.99962757380746,"[1, 9, 8, 4, 2, 5, 7, 6, 3]","(0, 0.25)",DOT011D,DOT,D,English,Wed Sep 05 15:02:57 2018,Mouse
1,3,4,0,65,7,7,1,359,119,240,137,0,500,200,8000,"[(960, 540), (960, 540), (960, 540), (960, 540), (960, 540), (960, 540), (960, 540), (960, 540), (960, 540), (960, 540), (960, 540), (957, 540), (955, 540), (951, 540), (946, 537), (935, 529), (931, 525), (926, 520), (923, 517), (917, 506), (916, 499), (912, 492), (910, 481), (901, 445), (900, 430), (898, 411), (895, 394), (895, 355), (895, 330), (895, 308), (895, 285), (895, 238), (895, 212), (895, 190), (892, 164), (886, 124)]",259.9134683153462,"[1, 9, 8, 4, 2, 5, 7, 6, 3]","(0, 0.25)",DOT011D,DOT,D,English,Wed Sep 05 15:02:57 2018,Mouse
1,3,4,0,66,3,3,1,320,110,210,137,0,500,200,8000,"[(960, 540), (960, 540), (960, 540), (960, 540), (960, 540), (960, 540), (960, 540), (960, 540), (960, 540), (960, 540), (963, 540), (967, 540), (972, 537), (982, 536), (1006, 534), (1022, 530), (1037, 529), (1055, 525), (1091, 521), (1107, 518), (1125, 516), (1144, 512), (1173, 507), (1186, 503), (1204, 498), (1220, 490), (1254, 472), (1273, 462), (1289, 453), (1301, 445), (1332, 426), (1354, 412)]",342.0024150445987,"[1, 9, 8, 4, 2, 5, 7, 6, 3]","(0, 0.25)",DOT011D,DOT,D,English,Wed Sep 05 15:02:57 2018,Mouse
1,3,4,0,67,6,6,1,1749,139,1610,136,0,500,200,8000,"[(960, 540), (960, 540), (960, 540), (960, 540), (960, 540), (960, 540), (960, 540), (960, 540), (960, 540), (960, 540), (960, 540), (960, 540), (960, 540), (959, 540), (957, 539), (956, 538), (953, 536), (949, 531), (949, 528), (949, 528), (949, 528), (949, 528), (949, 528), (949, 528), (949, 528), (949, 528), (949, 528), (949, 528), (949, 528), (949, 528), (949, 528), (949, 528), (949, 528), (949, 528), (949, 528), (949, 528), (949, 528), (949, 528), (949, 528), (949, 528), (949, 528), (949, 528), (949, 528), (949, 528), (949, 528), (949, 528), (949, 528), (949, 528), (949, 528), (949, 528), (949, 528), (949, 528), (949, 528), (949, 528), (949, 528), (949, 528), (949, 528), (949, 528), (949, 528), (949, 528), (949, 528), (949, 530), (949, 530), (949, 530), (949, 531), (949, 531), (949, 532), (949, 532), (949, 532), (949, 532), (949, 532), (949, 532), (949, 532), (949, 532), (949, 532), (949, 532), (949, 533), (949, 534), (949, 535), (949, 535), (948, 537), (948, 538), (948, 539), (948, 540), (948, 541), (945, 546), (942, 550), (940, 554), (937, 562), (932, 580), (931, 592), (929, 606), (928, 617), (928, 635), (928, 641), (928, 644), (928, 646), (928, 646), (928, 646), (928, 646), (928, 646), (928, 646), (929, 647), (930, 646), (932, 643), (934, 640), (935, 638), (935, 635), (935, 635), (935, 632), (935, 629), (935, 629), (935, 628), (935, 628), (935, 628), (935, 628), (935, 628), (935, 628), (935, 628), (935, 628), (935, 628), (935, 628), (935, 628), (935, 626), (935, 626), (935, 623), (935, 622), (935, 620), (935, 616), (935, 606), (935, 597), (931, 585), (927, 573), (917, 539), (913, 522), (908, 508), (907, 497), (905, 479), (903, 472), (903, 469), (902, 465), (902, 462), (902, 461), (902, 461), (902, 461), (902, 461), (902, 461), (902, 461), (902, 461), (902, 461), (902, 461), (902, 461), (902, 461), (906, 460), (908, 459), (912, 456), (914, 455), (918, 451), (922, 448), (925, 445), (931, 441), (943, 429), (948, 422), (954, 413), (961, 403), (979, 377), (989, 363), (1001, 343), (1015, 324), (1037, 283), (1055, 256), (1071, 233), (1087, 210), (1111, 172), (1120, 156)]",292.61986494804046,"[1, 9, 8, 4, 2, 5, 7, 6, 3]","(0, 0.25)",DOT011D,DOT,D,English,Wed Sep 05 15:02:57 2018,Mouse
1,3,4,0,68,2,2,1,809,19,790,135,0,500,200,8000,"[(960, 540), (960, 542), (960, 542), (960, 542), (960, 542), (959, 542), (959, 542), (959, 542), (959, 542), (959, 542), (959, 542), (959, 542), (959, 542), (959, 542), (959, 542), (959, 542), (959, 542), (959, 542), (959, 542), (959, 542), (959, 542), (959, 543), (959, 543), (959, 543), (958, 544), (958, 544), (958, 544), (958, 544), (957, 544), (957, 544), (957, 544), (957, 544), (957, 544), (957, 544), (957, 544), (957, 544), (957, 544), (957, 544), (957, 544), (957, 544), (957, 544), (957, 544), (957, 544), (957, 544), (957, 544), (957, 544), (957, 544), (957, 544), (957, 544), (957, 544), (957, 544), (957, 544), (957, 544), (957, 544), (957, 544), (957, 544), (957, 544), (957, 544), (957, 544), (957, 544), (957, 544), (957, 544), (957, 544), (957, 544), (957, 544), (957, 544), (957, 546), (957, 546), (953, 549), (940, 552), (930, 552), (919, 552), (906, 552), (864, 552), (836, 552), (800, 552), (756, 552), (661, 552), (614, 552), (564, 552), (517, 552)]",178.44834929489863,"[1, 9, 8, 4, 2, 5, 7, 6, 3]","(0, 0.25)",DOT011D,DOT,D,English,Wed Sep 05 15:02:57 2018,Mouse
1,3,4,0,69,5,5,1,628,249,379,134,0,500,200,8000,"[(960, 540), (960, 540), (960, 540), (960, 540), (960, 540), (960, 540), (960, 540), (960, 540), (960, 540), (960, 540), (960, 540), (960, 540), (960, 540), (960, 540), (960, 540), (960, 540), (960, 540), (960, 540), (960, 540), (960, 540), (960, 540), (960, 540), (960, 540), (960, 540), (958, 541), (958, 542), (958, 542), (958, 542), (958, 542), (958, 542), (958, 542), (958, 542), (958, 542), (958, 542), (958, 542), (958, 542), (958, 542), (958, 542), (958, 542), (958, 542), (958, 542), (958, 542), (958, 542), (958, 542), (958, 542), (958, 542), (958, 542), (958, 542), (958, 542), (958, 542), (957, 542), (948, 528), (942, 518), (937, 506), (930, 494), (902, 450), (881, 422), (858, 393), (841, 368), (780, 312), (748, 282), (711, 249), (674, 220)]",228.2112480181116,"[1, 9, 8, 4, 2, 5, 7, 6, 3]","(0, 0.25)",DOT011D,DOT,D,English,Wed Sep 05 15:02:57 2018,Mouse
1,3,4,0,70,7,7,1,640,100,540,133,0,500,200,8000,"[(960, 540), (960, 540), (960, 540), (960, 540), (960, 540), (960, 540), (960, 540), (960, 540), (960, 540), (958, 539), (958, 537), (958, 537), (958, 536), (958, 535), (957, 534), (957, 534), (957, 534), (957, 533), (957, 532), (954, 529), (951, 527), (950, 525), (947, 521), (943, 513), (941, 506), (937, 498), (935, 492), (927, 476), (926, 473), (926, 469), (925, 466), (923, 460), (923, 459), (923, 458), (923, 458), (923, 457), (923, 457), (923, 457), (923, 457), (923, 457), (923, 457), (923, 457), (923, 457), (923, 457), (923, 457), (923, 457), (923, 457), (923, 457), (923, 457), (923, 457), (923, 457), (923, 457), (923, 456), (923, 450), (923, 440), (921, 414), (921, 395), (921, 370), (916, 341), (914, 273), (914, 234), (914, 198), (914, 165), (914, 106)]",263.9497641771012,"[1, 9, 8, 4, 2, 5, 7, 6, 3]","(0, 0.25)",DOT011D,DOT,D,English,Wed Sep 05 15:02:57 2018,Mouse
1,3,4,0,71,7,7,1,428,328,100,132,0,500,200,8000,"[(960, 540), (960, 540), (960, 540), (960, 540), (960, 540), (960, 540), (960, 540), (960, 540), (960, 540), (960, 540), (960, 540), (960, 540), (960, 540), (960, 540), (960, 540), (960, 540), (960, 540), (960, 540), (960, 540), (960, 540), (960, 540), (960, 540), (960, 540), (960, 540), (960, 540), (960, 540), (960, 540), (960, 540), (960, 540), (960, 540), (960, 540), (960, 540), (961, 540), (961, 529), (961, 471), (956, 430), (951, 393), (943, 349), (933, 280), (931, 240), (924, 208), (921, 176), (907, 128)]",262.6696846329761,"[1, 9, 8, 4, 2, 5, 7, 6, 3]","(0, 0.25)",DOT011D,DOT,D,English,Wed Sep 05 15:02:57 2018,Mouse
1,3,4,0,72,7,6,0,-1299,1099,200,131,0,500,200,8000,"[(960, 540), (960, 540), (960, 540), (960, 540), (960, 540), (960, 540), (960, 540), (960, 540), (960, 540), (960, 540), (960, 540), (960, 540), (960, 540), (960, 540), (960, 540), (960, 540), (960, 540), (960, 540), (960, 540), (960, 540), (960, 540), (960, 540), (960, 540), (960, 540), (960, 540), (960, 540), (960, 540), (960, 540), (960, 540), (960, 540), (960, 540), (960, 540), (960, 540), (960, 540), (960, 540), (960, 540), (960, 540), (960, 540), (960, 540), (960, 540), (960, 540), (960, 540), (960, 540), (960, 540), (960, 540), (960, 540), (960, 540), (960, 540), (960, 540), (960, 540), (960, 540), (960, 540), (960, 540), (960, 540), (960, 540), (960, 540), (960, 540), (960, 540), (960, 540), (960, 540), (960, 540), (960, 540), (960, 540), (960, 540), (960, 540), (960, 540), (960, 540), (960, 540), (960, 540), (960, 540), (960, 540), (960, 540), (960, 540), (960, 540), (960, 540), (960, 540), (960, 540), (960, 540), (960, 540), (960, 540), (960, 540), (960, 540), (960, 540), (960, 540), (960, 540), (960, 540), (960, 540), (960, 540), (960, 540), (960, 540), (960, 540), (960, 540), (960, 540), (960, 540), (960, 540), (960, 540), (960, 540), (960, 540), (960, 540), (960, 540), (960, 540), (960, 540), (960, 540), (960, 540), (960, 540), (960, 540), (960, 540), (960, 540), (960, 540), (962, 540), (967, 527), (971, 520), (977, 509), (982, 499), (990, 480), (998, 463), (1008, 442), (1017, 423), (1033, 382), (1041, 364), (1052, 340), (1061, 320), (1079, 276), (1089, 253), (1096, 237), (1103, 222), (1114, 198), (1120, 188), (1125, 179), (1128, 171)]",294.4790409851631,"[1, 9, 8, 4, 2, 5, 7, 6, 3]","(0, 0.25)",DOT011D,DOT,D,English,Wed Sep 05 15:02:57 2018,Mouse
1,3,4,0,73,5,5,1,240,30,210,132,0,500,200,8000,"[(960, 540), (960, 540), (959, 541), (956, 541), (954, 541), (948, 541), (939, 541), (902, 538), (865, 527), (821, 515), (785, 502), (734, 487), (721, 479), (707, 472), (700, 466), (682, 446), (676, 439), (667, 424), (662, 411), (649, 381), (641, 363), (632, 345), (621, 328), (589, 290)]",213.97423521213202,"[1, 9, 8, 4, 2, 5, 7, 6, 3]","(0, 0.25)",DOT011D,DOT,D,English,Wed Sep 05 15:02:57 2018,Mouse
1,3,4,0,74,1,8,0,-2870,2480,390,132,0,500,200,8000,"[(960, 540), (960, 540), (960, 540), (960, 540), (960, 540), (960, 540), (960, 540), (960, 540), (960, 540), (960, 540), (960, 540), (960, 540), (960, 540), (960, 540), (960, 540), (960, 540), (960, 540), (960, 540), (960, 540), (960, 540), (960, 540), (960, 540), (960, 540), (960, 540), (960, 540), (960, 540), (960, 540), (960, 540), (960, 540), (960, 540), (960, 540), (960, 540), (960, 540), (960, 540), (960, 540), (960, 540), (960, 540), (960, 540), (960, 540), (960, 540), (960, 540), (960, 540), (960, 540), (960, 540), (960, 540), (960, 540), (960, 540), (960, 540), (960, 540), (960, 540), (960, 540), (960, 540), (960, 540), (960, 540), (960, 540), (960, 540), (960, 540), (960, 540), (960, 540), (960, 540), (960, 540), (960, 540), (960, 540), (960, 540), (960, 540), (960, 540), (960, 540), (960, 540), (960, 540), (960, 540), (960, 540), (960, 540), (960, 540), (960, 540), (960, 540), (960, 540), (960, 540), (960, 540), (960, 540), (960, 540), (960, 540), (960, 540), (960, 540), (960, 540), (960, 540), (960, 540), (960, 540), (960, 540), (960, 540), (960, 540), (960, 540), (960, 540), (960, 540), (960, 540), (960, 540), (960, 540), (960, 540), (960, 540), (960, 540), (960, 540), (960, 540), (960, 540), (960, 540), (960, 540), (960, 540), (960, 540), (960, 540), (960, 540), (960, 540), (960, 540), (960, 540), (960, 540), (960, 540), (960, 540), (960, 540), (960, 540), (960, 540), (960, 540), (960, 540), (960, 540), (960, 540), (960, 540), (960, 540), (960, 540), (960, 540), (960, 540), (960, 540), (960, 540), (960, 540), (960, 540), (960, 540), (960, 540), (960, 540), (960, 540), (960, 540), (960, 540), (960, 540), (960, 540), (960, 540), (960, 540), (960, 540), (960, 540), (960, 540), (960, 540), (960, 540), (960, 540), (960, 540), (960, 540), (960, 540), (960, 540), (960, 540), (960, 540), (960, 540), (960, 540), (960, 540), (960, 540), (960, 540), (960, 540), (960, 540), (960, 540), (960, 540), (960, 540), (960, 540), (960, 540), (960, 540), (960, 540), (960, 540), (960, 540), (960, 540), (960, 540), (960, 540), (960, 540), (960, 540), (960, 540), (960, 540), (960, 540), (960, 540), (960, 540), (960, 540), (960, 540), (960, 540), (960, 540), (960, 540), (960, 540), (960, 540), (960, 540), (960, 540), (960, 540), (960, 540), (960, 540), (960, 540), (960, 540), (960, 540), (960, 540), (960, 540), (960, 540), (960, 540), (960, 540), (960, 540), (960, 540), (960, 540), (960, 540), (960, 540), (960, 540), (960, 540), (960, 540), (960, 540), (960, 540), (960, 540), (960, 540), (960, 540), (960, 540), (960, 540), (960, 540), (960, 540), (960, 540), (960, 540), (960, 540), (960, 540), (960, 540), (960, 540), (960, 540), (960, 540), (960, 540), (960, 540), (960, 540), (960, 540), (960, 540), (960, 540), (960, 540), (960, 540), (960, 540), (960, 540), (960, 540), (960, 540), (960, 540), (960, 540), (960, 540), (960, 540), (960, 540), (960, 540), (960, 540), (960, 540), (960, 540), (960, 540), (960, 540), (960, 540), (960, 541), (960, 541), (960, 543), (959, 547), (957, 548), (956, 550), (955, 552), (952, 561), (952, 564), (951, 567), (951, 571), (949, 578), (949, 582), (949, 590), (949, 598), (948, 624), (947, 638), (943, 654), (941, 669), (936, 694), (934, 705), (931, 716), (926, 729), (925, 751), (925, 764), (925, 777), (925, 789), (925, 817), (925, 829), (925, 843), (925, 857), (925, 880), (925, 891), (925, 901), (925, 911), (924, 925), (924, 929), (924, 931), (923, 934), (921, 940)]",95.56873707797665,"[1, 9, 8, 4, 2, 5, 7, 6, 3]","(0, 0.25)",DOT011D,DOT,D,English,Wed Sep 05 15:02:57 2018,Mouse
1,3,4,0,75,4,4,1,459,179,280,133,0,500,200,8000,"[(960, 540), (960, 540), (960, 540), (960, 540), (960, 540), (960, 540), (960, 540), (960, 540), (960, 540), (960, 540), (960, 540), (960, 540), (960, 540), (960, 540), (960, 540), (960, 540), (960, 540), (959, 540), (959, 540), (956, 542), (956, 543), (954, 545), (949, 549), (948, 550), (946, 553), (942, 556), (932, 563), (923, 571), (914, 578), (904, 584), (864, 613), (843, 623), (818, 638), (791, 653), (730, 679), (704, 689), (686, 697), (674, 707), (658, 721), (651, 727), (648, 730), (644, 735), (637, 745), (633, 750), (629, 755), (625, 759)]",146.82609670378505,"[1, 9, 8, 4, 2, 5, 7, 6, 3]","(0, 0.25)",DOT011D,DOT,D,English,Wed Sep 05 15:02:57 2018,Mouse
1,3,4,0,76,7,7,1,590,20,570,133,0,500,200,8000,"[(960, 540), (960, 539), (960, 539), (960, 539), (960, 539), (960, 539), (962, 539), (962, 539), (962, 539), (962, 539), (962, 539), (962, 539), (962, 539), (962, 539), (962, 539), (962, 539), (962, 539), (962, 539), (962, 539), (962, 539), (962, 539), (962, 539), (962, 539), (962, 539), (962, 539), (962, 539), (962, 539), (962, 539), (962, 539), (962, 539), (962, 539), (960, 539), (959, 537), (956, 532), (954, 526), (948, 507), (944, 499), (943, 492), (942, 485), (939, 475), (939, 470), (938, 465), (936, 457), (933, 440), (933, 429), (930, 418), (929, 407), (924, 380), (923, 366), (923, 347), (923, 325), (922, 274), (922, 246), (922, 221), (922, 201), (922, 170), (922, 155), (922, 143), (922, 132)]",264.67897876729876,"[1, 9, 8, 4, 2, 5, 7, 6, 3]","(0, 0.25)",DOT011D,DOT,D,English,Wed Sep 05 15:02:57 2018,Mouse
1,3,4,0,77,8,8,1,749,39,710,132,0,500,200,8000,"[(960, 540), (960, 540), (960, 540), (959, 540), (957, 541), (956, 542), (956, 543), (955, 545), (955, 546), (954, 548), (954, 548), (952, 551), (952, 552), (952, 552), (952, 553), (951, 554), (951, 554), (951, 554), (951, 554), (951, 554), (951, 554), (951, 554), (951, 554), (951, 554), (951, 554), (951, 554), (951, 554), (951, 554), (951, 554), (951, 555), (951, 556), (951, 557), (951, 557), (950, 559), (950, 559), (950, 561), (950, 562), (950, 563), (950, 563), (949, 565), (949, 565), (949, 566), (949, 567), (948, 568), (948, 569), (947, 570), (947, 571), (946, 573), (945, 575), (945, 575), (945, 576), (944, 578), (944, 578), (944, 578), (944, 578), (944, 579), (943, 580), (943, 582), (943, 583), (941, 592), (938, 600), (935, 609), (932, 621), (922, 657), (917, 687), (914, 716), (908, 762), (901, 830), (898, 857), (893, 881), (891, 893), (891, 914), (891, 923), (892, 934), (893, 944)]",99.41631998626609,"[1, 9, 8, 4, 2, 5, 7, 6, 3]","(0, 0.25)",DOT011D,DOT,D,English,Wed Sep 05 15:02:57 2018,Mouse
1,3,4,0,78,6,1,0,-839,39,800,131,0,500,200,8000,"[(960, 540), (960, 540), (960, 540), (963, 540), (963, 540), (963, 540), (963, 540), (964, 540), (964, 540), (964, 540), (964, 540), (964, 540), (964, 540), (964, 540), (964, 540), (964, 540), (964, 540), (964, 540), (964, 540), (964, 540), (964, 540), (964, 540), (964, 540), (964, 540), (964, 540), (964, 540), (964, 540), (964, 540), (964, 540), (964, 540), (964, 540), (964, 540), (964, 540), (964, 540), (964, 540), (964, 540), (964, 540), (964, 540), (964, 540), (964, 540), (964, 540), (964, 540), (964, 540), (964, 540), (964, 540), (964, 540), (964, 540), (964, 540), (964, 540), (964, 540), (964, 540), (964, 540), (964, 540), (964, 540), (964, 540), (964, 540), (964, 540), (964, 540), (964, 540), (964, 540), (964, 540), (964, 540), (964, 540), (964, 540), (964, 540), (964, 540), (964, 540), (964, 541), (964, 542), (965, 544), (968, 545), (981, 550), (994, 554), (1006, 556), (1022, 560), (1067, 567), (1099, 570), (1126, 575), (1157, 578), (1224, 587), (1257, 594), (1289, 599), (1323, 610), (1375, 624)]",11.442622786853251,"[1, 9, 8, 4, 2, 5, 7, 6, 3]","(0, 0.25)",DOT011D,DOT,D,English,Wed Sep 05 15:02:57 2018,Mouse
1,3,4,0,79,2,8,0,-711,401,310,132,0,500,200,8000,"[(960, 540), (960, 540), (960, 540), (960, 540), (960, 540), (960, 540), (960, 540), (960, 540), (960, 540), (960, 540), (960, 540), (960, 540), (960, 540), (960, 540), (960, 540), (960, 540), (960, 540), (960, 540), (960, 540), (960, 540), (960, 540), (960, 540), (960, 540), (960, 540), (960, 540), (960, 540), (960, 540), (960, 540), (960, 540), (960, 540), (960, 540), (960, 540), (960, 540), (960, 540), (960, 540), (960, 540), (960, 540), (960, 540), (960, 540), (960, 540), (961, 541), (961, 541), (961, 542), (961, 543), (961, 543), (959, 545), (957, 546), (952, 551), (952, 553), (949, 558), (948, 562), (943, 573), (941, 582), (938, 592), (936, 603), (924, 648), (921, 680), (916, 707), (913, 736), (905, 786), (901, 805), (900, 826), (895, 847), (890, 874), (888, 886), (887, 897), (886, 907), (886, 920), (886, 926), (886, 929), (886, 931), (886, 935)]",100.61089713199941,"[1, 9, 8, 4, 2, 5, 7, 6, 3]","(0, 0.25)",DOT011D,DOT,D,English,Wed Sep 05 15:02:57 2018,Mouse
1,3,4,0,80,4,5,0,-899,369,530,133,0,500,200,8000,"[(960, 540), (960, 540), (960, 540), (960, 540), (960, 540), (960, 540), (960, 540), (960, 540), (960, 540), (960, 540), (960, 540), (960, 540), (960, 540), (960, 540), (960, 540), (960, 540), (960, 540), (960, 540), (960, 540), (960, 540), (960, 540), (960, 540), (960, 540), (960, 540), (960, 540), (960, 540), (960, 540), (960, 540), (960, 540), (960, 540), (960, 540), (960, 540), (960, 540), (960, 540), (960, 540), (960, 540), (958, 540), (957, 540), (955, 540), (955, 540), (955, 540), (955, 540), (955, 540), (955, 540), (955, 540), (955, 540), (955, 540), (955, 540), (955, 540), (955, 540), (955, 540), (955, 540), (955, 540), (955, 540), (955, 540), (955, 540), (955, 540), (955, 540), (955, 540), (955, 540), (955, 540), (955, 540), (955, 540), (955, 540), (955, 540), (955, 540), (955, 540), (955, 540), (954, 540), (951, 540), (946, 536), (940, 533), (934, 529), (927, 523), (905, 508), (894, 500), (882, 491), (865, 480), (835, 454), (816, 437), (801, 425), (786, 411), (761, 379), (752, 360), (746, 345), (739, 328), (724, 292), (713, 270), (703, 256), (692, 242)]",228.03403964694502,"[1, 9, 8, 4, 2, 5, 7, 6, 3]","(0, 0.25)",DOT011D,DOT,D,English,Wed Sep 05 15:02:57 2018,Mouse
1,3,4,0,81,1,4,0,-238,28,210,134,0,500,200,8000,"[(960, 540), (960, 540), (959, 540), (957, 544), (957, 545), (956, 548), (954, 550), (950, 557), (946, 563), (942, 567), (938, 573), (921, 597), (907, 616), (889, 639), (870, 670), (826, 724), (803, 753), (782, 776), (764, 795), (735, 823), (725, 833), (717, 842), (711, 849), (698, 859)]",129.3968302196081,"[1, 9, 8, 4, 2, 5, 7, 6, 3]","(0, 0.25)",DOT011D,DOT,D,English,Wed Sep 05 15:02:57 2018,Mouse
1,3,4,0,82,2,2,1,760,390,370,135,0,500,200,8000,"[(960, 540), (960, 540), (960, 540), (960, 540), (960, 540), (960, 540), (960, 540), (960, 540), (960, 540), (960, 540), (960, 540), (960, 540), (960, 540), (960, 540), (960, 540), (960, 540), (960, 540), (960, 540), (960, 540), (960, 540), (960, 540), (960, 540), (960, 540), (960, 540), (960, 540), (960, 540), (960, 540), (960, 540), (960, 540), (960, 540), (960, 540), (960, 540), (960, 540), (960, 540), (960, 540), (960, 540), (960, 540), (960, 540), (961, 538), (961, 538), (961, 538), (961, 538), (962, 538), (962, 538), (962, 538), (962, 538), (962, 538), (962, 538), (962, 538), (962, 538), (962, 538), (962, 538), (962, 538), (962, 538), (962, 537), (962, 535), (962, 533), (962, 531), (962, 528), (962, 528), (962, 527), (962, 526), (959, 526), (953, 526), (944, 526), (933, 526), (902, 526), (876, 526), (848, 526), (821, 526), (748, 526), (718, 526), (673, 526), (645, 526), (587, 526), (559, 526)]",181.99953925694865,"[1, 9, 8, 4, 2, 5, 7, 6, 3]","(0, 0.25)",DOT011D,DOT,D,English,Wed Sep 05 15:02:57 2018,Mouse
1,3,4,0,83,3,3,1,728,28,700,135,0,500,200,8000,"[(960, 540), (960, 540), (961, 540), (961, 541), (961, 542), (962, 543), (962, 543), (962, 544), (962, 544), (962, 544), (962, 544), (962, 544), (962, 544), (962, 544), (962, 544), (962, 544), (962, 544), (962, 544), (962, 544), (962, 544), (962, 544), (962, 544), (962, 544), (963, 544), (963, 544), (965, 544), (965, 544), (966, 544), (968, 542), (971, 537), (972, 536), (972, 534), (973, 534), (973, 532), (975, 529), (977, 526), (979, 524), (985, 513), (989, 507), (995, 497), (1001, 488), (1008, 467), (1014, 455), (1019, 445), (1022, 439), (1028, 429), (1030, 427), (1031, 426), (1032, 425), (1032, 425), (1032, 425), (1032, 425), (1032, 425), (1032, 425), (1034, 425), (1037, 427), (1042, 428), (1058, 429), (1069, 429), (1080, 429), (1091, 429), (1119, 429), (1138, 429), (1158, 429), (1180, 429), (1228, 429), (1250, 429), (1270, 429), (1286, 429), (1315, 429), (1327, 429), (1338, 429), (1348, 429)]",344.0351024730389,"[1, 9, 8, 4, 2, 5, 7, 6, 3]","(0, 0.25)",DOT011D,DOT,D,English,Wed Sep 05 15:02:57 2018,Mouse
1,3,4,0,84,1,3,0,-829,679,150,134,0,500,200,8000,"[(960, 540), (960, 540), (960, 540), (960, 540), (960, 540), (960, 540), (960, 540), (960, 540), (960, 540), (960, 540), (960, 540), (960, 540), (960, 540), (960, 540), (960, 540), (960, 540), (960, 540), (960, 540), (960, 540), (960, 540), (960, 540), (960, 540), (960, 540), (960, 540), (960, 540), (960, 540), (960, 540), (960, 540), (960, 540), (960, 540), (960, 540), (960, 540), (960, 540), (960, 540), (960, 540), (960, 540), (960, 540), (960, 540), (960, 540), (960, 540), (960, 540), (960, 540), (960, 540), (960, 540), (960, 540), (960, 540), (960, 540), (960, 540), (960, 540), (960, 540), (960, 540), (960, 540), (960, 540), (960, 540), (960, 540), (960, 540), (960, 540), (960, 540), (960, 540), (960, 540), (960, 540), (960, 540), (960, 540), (960, 540), (960, 540), (960, 540), (960, 540), (961, 540), (973, 540), (988, 539), (1008, 532), (1039, 518), (1054, 506), (1071, 493), (1093, 479), (1148, 448), (1172, 435), (1195, 426), (1216, 415), (1266, 401), (1292, 393), (1325, 384), (1350, 377)]",337.31757371611667,"[1, 9, 8, 4, 2, 5, 7, 6, 3]","(0, 0.25)",DOT011D,DOT,D,English,Wed Sep 05 15:02:57 2018,Mouse
1,3,4,0,85,5,5,1,290,20,270,135,0,500,200,8000,"[(957, 538), (954, 536), (953, 534), (950, 533), (948, 530), (947, 530), (946, 529), (945, 527), (944, 527), (943, 525), (943, 525), (943, 525), (943, 525), (943, 525), (943, 525), (943, 525), (942, 525), (941, 525), (938, 525), (928, 523), (922, 520), (913, 517), (898, 507), (844, 478), (805, 453), (759, 429), (710, 402), (624, 365), (597, 350)]",207.62827873725115,"[1, 9, 8, 4, 2, 5, 7, 6, 3]","(0, 0.25)",DOT011D,DOT,D,English,Wed Sep 05 15:02:57 2018,Mouse
