NativeLangNumber,LanuageNumber,SessionNumber,Block,TrialNum,ConditionNumber,Response,Accuracy,RT,MovementOnsetTime,TimeInMotion,SignalContrast,SignalContrastNumber,StimDisplayTime,MaskTime,MaxResponseTime,MousePositionXY,MouseAngle,WheelOrder,NoiseMuSigma,ParticipantID,LanuageTested,SessionTested,NativeLanuage,Date,ResponseDevice
1,3,4,0,1,8,8,1,1359,999,360,153,0,500,200,8000,"[(960, 540), (960, 540), (960, 540), (960, 540), (960, 540), (960, 540), (960, 540), (960, 540), (960, 540), (960, 540), (960, 540), (960, 540), (960, 540), (960, 540), (960, 540), (960, 540), (960, 540), (960, 540), (960, 540), (960, 540), (960, 540), (960, 540), (960, 540), (960, 540), (960, 540), (960, 540), (960, 540), (960, 540), (960, 540), (960, 540), (960, 540), (960, 540), (960, 540), (960, 540), (960, 540), (960, 540), (960, 540), (960, 540), (960, 540), (960, 540), (960, 540), (960, 540), (960, 540), (960, 540), (960, 540), (960, 540), (960, 540), (960, 540), (960, 540), (960, 540), (960, 540), (960, 540), (960, 540), (960, 540), (960, 540), (960, 540), (960, 540), (960, 540), (960, 540), (960, 540), (960, 540), (960, 540), (960, 540), (960, 540), (960, 540), (960, 540), (960, 540), (960, 540), (960, 540), (960, 540), (960, 540), (960, 540), (960, 540), (960, 540), (960, 540), (960, 540), (960, 540), (960, 540), (960, 540), (960, 540), (960, 540), (960, 540), (960, 540), (960, 540), (960, 540), (960, 540), (960, 540), (960, 540), (960, 540), (960, 540), (960, 540), (960, 540), (960, 540), (960, 540), (960, 540), (960, 540), (960, 540), (960, 540), (960, 540), (961, 541), (961, 548), (959, 556), (955, 569), (952, 580), (949, 587), (948, 597), (945, 620), (943, 631), (943, 645), (939, 659), (938, 686), (937, 698), (933, 714), (932, 726), (927, 748), (924, 758), (920, 770), (919, 777), (914, 794), (911, 802), (910, 809), (910, 817), (909, 833), (909, 840), (909, 846), (909, 853), (909, 866), (909, 871), (909, 876), (909, 881), (910, 891), (910, 899), (910, 906), (906, 916), (898, 934), (894, 941)]",99.346432844396,"[1, 7, 8, 3, 5, 2, 4, 6, 9]","(0, 0.25)",DOT006D,DOT,D,English,Tue Aug 28 13:00:05 2018,Mouse
1,3,4,0,2,6,6,1,1231,621,610,153,0,500,200,8000,"[(960, 540), (960, 540), (960, 540), (960, 540), (960, 540), (960, 540), (960, 540), (960, 540), (960, 540), (960, 540), (960, 540), (960, 540), (960, 540), (960, 540), (960, 540), (960, 540), (960, 540), (960, 540), (960, 540), (960, 540), (960, 540), (960, 540), (960, 540), (960, 540), (960, 540), (960, 540), (960, 540), (960, 540), (960, 540), (960, 540), (960, 540), (960, 540), (960, 540), (960, 540), (960, 540), (960, 540), (960, 540), (960, 540), (960, 540), (960, 540), (960, 540), (960, 540), (960, 540), (960, 540), (960, 540), (960, 540), (960, 540), (960, 540), (960, 540), (960, 540), (960, 540), (960, 540), (960, 540), (960, 540), (960, 540), (960, 540), (960, 540), (960, 540), (960, 540), (960, 540), (960, 540), (964, 540), (966, 542), (969, 543), (971, 545), (978, 548), (980, 550), (981, 550), (981, 550), (981, 550), (981, 550), (981, 550), (981, 550), (981, 550), (981, 550), (981, 550), (981, 550), (981, 550), (981, 550), (981, 550), (981, 550), (982, 550), (982, 550), (982, 550), (982, 550), (982, 550), (982, 550), (982, 550), (982, 550), (982, 550), (982, 550), (982, 550), (982, 550), (982, 550), (982, 550), (982, 550), (982, 550), (982, 547), (983, 545), (984, 542), (984, 539), (988, 532), (989, 529), (990, 525), (991, 521), (997, 507), (999, 501), (1003, 490), (1007, 477), (1013, 441), (1016, 415), (1022, 372), (1022, 338), (1022, 296), (1024, 281), (1025, 267), (1030, 251), (1040, 227), (1046, 217), (1052, 207), (1057, 197), (1077, 170), (1087, 159)]",288.434948822922,"[1, 7, 8, 3, 5, 2, 4, 6, 9]","(0, 0.25)",DOT006D,DOT,D,English,Tue Aug 28 13:00:05 2018,Mouse
1,3,4,0,3,5,5,1,581,101,480,152,0,500,200,8000,"[(960, 540), (960, 540), (960, 540), (960, 540), (960, 540), (960, 540), (960, 540), (960, 540), (960, 540), (960, 540), (952, 545), (948, 546), (943, 549), (937, 550), (924, 554), (919, 555), (913, 557), (907, 559), (898, 560), (894, 561), (891, 561), (886, 561), (882, 561), (879, 563), (876, 564), (871, 565), (862, 567), (856, 569), (851, 569), (841, 570), (820, 573), (809, 573), (799, 573), (788, 573), (775, 573), (772, 573), (769, 573), (767, 572), (763, 571), (762, 570), (760, 568), (759, 568), (753, 565), (749, 563), (744, 560), (735, 557), (718, 551), (707, 550), (695, 549), (680, 547), (651, 543), (639, 542), (626, 542), (612, 539), (589, 539), (580, 539), (569, 539), (561, 539), (542, 539)]",180.13707098135467,"[1, 7, 8, 3, 5, 2, 4, 6, 9]","(0, 0.25)",DOT006D,DOT,D,English,Tue Aug 28 13:00:05 2018,Mouse
1,3,4,0,4,9,8,0,-1820,220,1600,151,0,500,200,8000,"[(960, 540), (960, 540), (960, 540), (960, 540), (960, 540), (960, 540), (960, 540), (960, 540), (960, 540), (960, 540), (960, 540), (960, 540), (960, 540), (960, 540), (960, 540), (960, 540), (960, 540), (960, 540), (960, 540), (960, 540), (960, 540), (961, 540), (968, 543), (969, 544), (971, 546), (972, 547), (973, 551), (974, 554), (975, 558), (975, 559), (976, 564), (976, 566), (976, 568), (976, 569), (977, 573), (977, 573), (977, 575), (977, 576), (977, 578), (977, 580), (977, 582), (977, 582), (977, 588), (977, 590), (977, 593), (977, 597), (977, 601), (977, 604), (977, 605), (977, 608), (977, 609), (977, 610), (977, 610), (977, 610), (977, 610), (977, 610), (977, 610), (977, 610), (977, 610), (977, 610), (977, 610), (977, 610), (977, 610), (977, 610), (977, 610), (977, 610), (977, 610), (977, 610), (977, 610), (977, 610), (977, 610), (977, 610), (977, 610), (977, 610), (977, 610), (977, 610), (977, 610), (977, 610), (977, 610), (977, 610), (977, 610), (977, 610), (977, 610), (977, 610), (977, 610), (977, 610), (977, 610), (977, 610), (977, 610), (977, 610), (977, 610), (977, 610), (977, 610), (977, 610), (977, 610), (977, 610), (977, 610), (977, 610), (977, 610), (977, 610), (977, 610), (977, 610), (977, 610), (977, 610), (977, 610), (977, 610), (977, 610), (977, 610), (977, 610), (977, 610), (977, 610), (977, 610), (977, 610), (977, 610), (977, 610), (977, 610), (977, 610), (977, 610), (977, 610), (977, 610), (977, 610), (977, 610), (977, 610), (977, 610), (977, 610), (977, 610), (977, 610), (977, 610), (977, 610), (977, 610), (977, 610), (977, 610), (977, 610), (977, 610), (977, 610), (977, 610), (977, 610), (977, 610), (977, 610), (977, 610), (977, 610), (977, 610), (977, 610), (977, 610), (977, 610), (977, 610), (977, 610), (977, 610), (977, 610), (977, 610), (977, 610), (977, 610), (977, 610), (977, 610), (977, 610), (977, 610), (977, 610), (977, 610), (977, 610), (977, 610), (977, 610), (977, 611), (974, 625), (973, 632), (971, 642), (971, 646), (968, 660), (965, 668), (964, 677), (959, 689), (956, 713), (953, 727), (952, 744), (948, 766), (944, 802), (940, 821), (937, 842), (933, 858), (927, 891), (921, 913), (919, 932), (914, 944)]",96.49580184541765,"[1, 7, 8, 3, 5, 2, 4, 6, 9]","(0, 0.25)",DOT006D,DOT,D,English,Tue Aug 28 13:00:05 2018,Mouse
1,3,4,0,5,6,6,1,520,20,500,152,0,500,200,8000,"[(966, 530), (970, 521), (976, 512), (984, 498), (988, 491), (991, 486), (993, 484), (996, 477), (998, 476), (998, 476), (998, 476), (999, 473), (999, 473), (999, 473), (999, 473), (999, 473), (999, 473), (999, 473), (999, 473), (999, 473), (1000, 472), (1000, 470), (1000, 469), (1002, 465), (1003, 465), (1004, 463), (1004, 462), (1007, 458), (1010, 453), (1013, 450), (1018, 444), (1027, 431), (1032, 425), (1037, 420), (1045, 410), (1060, 394), (1069, 384), (1077, 375), (1085, 363), (1102, 340), (1110, 328), (1118, 317), (1127, 304), (1139, 281), (1143, 270), (1146, 260), (1151, 248), (1157, 227), (1161, 217), (1163, 210), (1166, 202), (1171, 186)]",300.796852944,"[1, 7, 8, 3, 5, 2, 4, 6, 9]","(0, 0.25)",DOT006D,DOT,D,English,Tue Aug 28 13:00:05 2018,Mouse
1,3,4,0,6,3,3,1,1631,671,960,152,0,500,200,8000,"[(960, 540), (960, 540), (960, 540), (960, 540), (960, 540), (960, 540), (960, 540), (960, 540), (960, 540), (960, 540), (960, 540), (960, 540), (960, 540), (960, 540), (960, 540), (960, 540), (960, 540), (960, 540), (960, 540), (960, 540), (960, 540), (960, 540), (960, 540), (960, 540), (960, 540), (960, 540), (960, 540), (960, 540), (960, 540), (960, 540), (960, 540), (960, 540), (960, 540), (960, 540), (960, 540), (960, 540), (960, 540), (960, 540), (960, 540), (960, 540), (960, 540), (960, 540), (960, 540), (960, 540), (960, 540), (960, 540), (960, 540), (960, 540), (960, 540), (960, 540), (960, 540), (960, 540), (960, 540), (960, 540), (960, 540), (960, 540), (960, 540), (960, 540), (960, 540), (960, 540), (960, 540), (960, 540), (960, 540), (960, 540), (960, 540), (960, 540), (960, 540), (957, 541), (956, 541), (956, 541), (956, 541), (956, 541), (956, 541), (956, 541), (956, 541), (956, 541), (956, 541), (956, 541), (955, 541), (955, 541), (954, 539), (953, 539), (953, 539), (952, 538), (952, 538), (950, 536), (950, 536), (946, 534), (944, 532), (942, 532), (939, 530), (932, 526), (929, 524), (926, 522), (923, 520), (918, 517), (917, 515), (914, 514), (914, 513), (913, 512), (913, 512), (913, 512), (913, 512), (913, 512), (913, 512), (913, 512), (913, 512), (913, 512), (913, 512), (913, 512), (913, 512), (913, 512), (913, 512), (912, 512), (912, 513), (912, 514), (912, 516), (912, 519), (911, 520), (909, 525), (909, 528), (906, 533), (906, 536), (901, 546), (899, 549), (896, 554), (895, 557), (892, 561), (891, 562), (891, 562), (891, 562), (891, 562), (891, 562), (891, 562), (891, 562), (891, 562), (891, 562), (891, 562), (891, 562), (891, 562), (891, 562), (891, 562), (891, 562), (891, 563), (888, 567), (880, 573), (873, 581), (857, 599), (847, 611), (837, 625), (830, 635), (814, 653), (807, 662), (800, 671), (793, 680), (778, 704), (766, 719), (755, 733), (746, 745), (722, 777), (708, 795), (692, 809), (683, 818), (662, 835)]",135.28985813178855,"[1, 7, 8, 3, 5, 2, 4, 6, 9]","(0, 0.25)",DOT006D,DOT,D,English,Tue Aug 28 13:00:05 2018,Mouse
1,3,4,0,7,3,3,1,469,199,270,151,0,500,200,8000,"[(960, 540), (960, 540), (960, 540), (960, 540), (960, 540), (960, 540), (960, 540), (960, 540), (960, 540), (960, 540), (960, 540), (960, 540), (960, 540), (960, 540), (960, 540), (960, 540), (960, 540), (960, 540), (960, 540), (955, 543), (951, 546), (944, 551), (936, 557), (917, 570), (905, 581), (888, 594), (860, 617), (845, 630), (831, 642), (815, 656), (790, 677), (778, 688), (769, 696), (759, 704), (745, 721), (739, 729), (733, 738), (725, 748), (713, 765), (708, 774), (702, 781), (697, 789), (688, 801), (684, 806), (679, 811), (674, 816), (665, 825)]",135.98776039963982,"[1, 7, 8, 3, 5, 2, 4, 6, 9]","(0, 0.25)",DOT006D,DOT,D,English,Tue Aug 28 13:00:05 2018,Mouse
1,3,4,0,8,4,4,1,752,172,580,150,0,500,200,8000,"[(960, 540), (960, 540), (960, 540), (960, 540), (960, 540), (960, 540), (960, 540), (960, 540), (960, 540), (960, 540), (960, 540), (960, 540), (960, 540), (960, 540), (960, 540), (960, 540), (960, 540), (960, 539), (959, 539), (956, 539), (956, 539), (956, 539), (956, 539), (956, 539), (956, 539), (956, 539), (956, 539), (954, 539), (951, 535), (948, 530), (945, 524), (942, 519), (941, 517), (940, 516), (940, 515), (938, 510), (937, 508), (937, 505), (936, 503), (936, 501), (936, 499), (936, 498), (936, 496), (936, 492), (936, 489), (936, 487), (936, 485), (937, 479), (938, 473), (939, 470), (941, 465), (942, 450), (945, 439), (947, 428), (948, 417), (949, 392), (949, 378), (949, 365), (949, 348), (949, 320), (949, 309), (945, 298), (942, 284), (935, 263), (933, 253), (932, 243), (930, 234), (927, 213), (926, 202), (924, 192), (922, 181), (921, 162), (919, 157), (919, 153), (919, 150), (917, 140)]",263.8642666598132,"[1, 7, 8, 3, 5, 2, 4, 6, 9]","(0, 0.25)",DOT006D,DOT,D,English,Tue Aug 28 13:00:05 2018,Mouse
1,3,4,0,9,8,8,1,651,181,470,149,0,500,200,8000,"[(960, 540), (960, 540), (960, 540), (960, 540), (960, 540), (960, 540), (960, 540), (960, 540), (960, 540), (960, 540), (960, 540), (960, 540), (960, 540), (960, 540), (960, 540), (960, 540), (960, 540), (960, 540), (962, 544), (964, 549), (965, 550), (966, 553), (966, 555), (966, 558), (966, 560), (966, 563), (966, 566), (966, 571), (966, 574), (966, 576), (966, 577), (966, 579), (966, 580), (966, 580), (966, 580), (966, 580), (966, 580), (966, 580), (966, 580), (966, 582), (966, 583), (966, 584), (966, 585), (966, 590), (966, 593), (966, 596), (963, 604), (958, 625), (955, 638), (951, 652), (946, 667), (938, 702), (934, 721), (933, 734), (930, 752), (925, 788), (924, 809), (919, 828), (919, 843), (918, 871), (918, 885), (915, 897), (914, 908), (912, 924), (910, 931), (908, 938)]",97.44371640911702,"[1, 7, 8, 3, 5, 2, 4, 6, 9]","(0, 0.25)",DOT006D,DOT,D,English,Tue Aug 28 13:00:05 2018,Mouse
1,3,4,0,10,5,5,1,860,520,340,148,0,500,200,8000,"[(960, 540), (960, 540), (960, 540), (960, 540), (960, 540), (960, 540), (960, 540), (960, 540), (960, 540), (960, 540), (960, 540), (960, 540), (960, 540), (960, 540), (960, 540), (960, 540), (960, 540), (960, 540), (960, 540), (960, 540), (960, 540), (960, 540), (960, 540), (960, 540), (960, 540), (960, 540), (960, 540), (960, 540), (960, 540), (960, 540), (960, 540), (960, 540), (960, 540), (960, 540), (960, 540), (960, 540), (960, 540), (960, 540), (960, 540), (960, 540), (960, 540), (960, 540), (960, 540), (960, 540), (960, 540), (960, 540), (960, 540), (960, 540), (960, 540), (960, 540), (960, 540), (961, 540), (958, 538), (958, 538), (958, 538), (956, 538), (950, 537), (947, 537), (943, 536), (937, 536), (925, 536), (919, 536), (913, 536), (903, 536), (883, 536), (872, 536), (859, 536), (847, 536), (821, 536), (809, 536), (797, 535), (786, 532), (761, 532), (750, 532), (737, 532), (725, 532), (698, 532), (684, 532), (671, 532), (657, 532), (624, 532), (611, 532), (599, 532), (584, 532), (561, 532), (550, 532)]",181.1178245823861,"[1, 7, 8, 3, 5, 2, 4, 6, 9]","(0, 0.25)",DOT006D,DOT,D,English,Tue Aug 28 13:00:05 2018,Mouse
1,3,4,0,11,7,7,1,640,290,350,147,0,500,200,8000,"[(960, 540), (960, 540), (960, 540), (960, 540), (960, 540), (960, 540), (960, 540), (960, 540), (960, 540), (960, 540), (960, 540), (960, 540), (960, 540), (960, 540), (960, 540), (960, 540), (960, 540), (960, 540), (960, 540), (960, 540), (960, 540), (960, 540), (960, 540), (960, 540), (960, 540), (960, 540), (960, 540), (960, 540), (960, 541), (960, 541), (960, 541), (960, 541), (960, 541), (959, 549), (959, 556), (960, 565), (962, 576), (967, 600), (971, 616), (976, 633), (978, 644), (985, 670), (994, 686), (999, 697), (1006, 710), (1017, 730), (1019, 735), (1022, 743), (1025, 751), (1033, 765), (1036, 773), (1040, 781), (1043, 790), (1051, 805), (1055, 813), (1060, 821), (1066, 830), (1079, 845), (1088, 855), (1095, 863), (1104, 871), (1122, 885), (1130, 892), (1141, 899)]",63.24375115828723,"[1, 7, 8, 3, 5, 2, 4, 6, 9]","(0, 0.25)",DOT006D,DOT,D,English,Tue Aug 28 13:00:05 2018,Mouse
1,3,4,0,12,2,2,1,1330,250,1080,146,0,500,200,8000,"[(960, 540), (960, 540), (960, 540), (960, 540), (960, 540), (960, 540), (960, 540), (960, 540), (960, 540), (960, 540), (960, 540), (960, 540), (960, 540), (960, 540), (960, 540), (960, 540), (960, 540), (960, 540), (960, 540), (960, 540), (960, 540), (960, 540), (960, 540), (960, 540), (963, 539), (967, 538), (968, 538), (970, 538), (973, 538), (975, 536), (975, 536), (975, 536), (975, 536), (976, 536), (976, 536), (976, 536), (976, 536), (976, 536), (976, 536), (976, 536), (976, 536), (976, 536), (976, 536), (976, 536), (976, 536), (976, 536), (976, 536), (976, 536), (976, 536), (976, 536), (976, 536), (976, 536), (976, 536), (976, 536), (975, 537), (973, 538), (965, 545), (956, 550), (945, 556), (937, 561), (908, 576), (892, 587), (875, 597), (859, 606), (843, 618), (836, 622), (834, 624), (833, 625), (833, 625), (833, 625), (833, 625), (833, 625), (833, 625), (834, 626), (838, 626), (841, 625), (849, 622), (854, 620), (859, 616), (863, 612), (874, 602), (881, 591), (884, 585), (890, 575), (900, 553), (904, 542), (906, 532), (911, 521), (916, 501), (917, 491), (920, 482), (920, 475), (920, 454), (920, 445), (919, 439), (919, 436), (919, 432), (919, 432), (918, 430), (918, 430), (918, 429), (918, 429), (918, 429), (918, 429), (918, 429), (918, 429), (918, 429), (918, 429), (918, 429), (918, 429), (918, 429), (918, 429), (918, 429), (918, 429), (917, 429), (917, 429), (913, 428), (911, 427), (908, 426), (903, 425), (886, 417), (876, 412), (866, 407), (851, 400), (811, 377), (789, 367), (771, 357), (746, 342), (700, 316), (681, 305), (665, 295), (653, 288), (627, 274)]",218.61781795049515,"[1, 7, 8, 3, 5, 2, 4, 6, 9]","(0, 0.25)",DOT006D,DOT,D,English,Tue Aug 28 13:00:05 2018,Mouse
1,3,4,0,13,9,9,1,590,190,400,145,0,500,200,8000,"[(960, 540), (960, 540), (960, 540), (960, 540), (960, 540), (960, 540), (960, 540), (960, 540), (960, 540), (960, 540), (960, 540), (960, 540), (960, 540), (960, 540), (960, 540), (960, 540), (960, 540), (960, 540), (962, 541), (963, 541), (965, 541), (966, 541), (968, 541), (969, 541), (971, 540), (974, 538), (978, 536), (983, 534), (988, 532), (993, 531), (1005, 526), (1014, 521), (1021, 520), (1030, 516), (1046, 511), (1054, 508), (1061, 506), (1067, 505), (1077, 500), (1083, 497), (1090, 494), (1093, 492), (1103, 487), (1106, 486), (1111, 482), (1116, 478), (1128, 472), (1135, 470), (1141, 467), (1148, 463), (1167, 456), (1180, 450), (1191, 445), (1204, 441), (1235, 431), (1257, 425), (1285, 417), (1317, 410), (1376, 402)]",341.6477290122079,"[1, 7, 8, 3, 5, 2, 4, 6, 9]","(0, 0.25)",DOT006D,DOT,D,English,Tue Aug 28 13:00:05 2018,Mouse
1,3,4,0,14,3,3,1,590,100,490,144,0,500,200,8000,"[(960, 540), (960, 540), (960, 540), (960, 540), (960, 540), (960, 540), (960, 540), (960, 540), (960, 540), (960, 541), (959, 543), (959, 545), (959, 546), (958, 547), (957, 548), (956, 549), (956, 551), (954, 552), (953, 553), (952, 555), (950, 555), (950, 556), (946, 558), (944, 559), (943, 559), (941, 561), (939, 562), (938, 562), (937, 563), (936, 563), (934, 563), (934, 563), (933, 564), (931, 564), (927, 565), (926, 565), (923, 567), (918, 569), (909, 573), (904, 574), (898, 578), (892, 582), (876, 593), (868, 599), (858, 607), (846, 618), (816, 642), (801, 656), (790, 666), (776, 677), (752, 698), (741, 707), (729, 720), (720, 730), (702, 753), (694, 765), (687, 780), (680, 790), (664, 810)]",137.6301126633576,"[1, 7, 8, 3, 5, 2, 4, 6, 9]","(0, 0.25)",DOT006D,DOT,D,English,Tue Aug 28 13:00:05 2018,Mouse
1,3,4,0,15,5,5,1,520,90,430,143,0,500,200,8000,"[(960, 540), (960, 540), (960, 540), (960, 540), (960, 540), (960, 540), (960, 540), (960, 540), (960, 539), (958, 538), (955, 537), (954, 537), (954, 537), (952, 537), (948, 537), (947, 537), (947, 537), (944, 536), (944, 536), (942, 536), (940, 534), (939, 534), (934, 534), (929, 534), (925, 533), (918, 532), (903, 530), (893, 527), (887, 527), (878, 527), (857, 527), (846, 526), (837, 526), (827, 524), (810, 524), (804, 524), (794, 524), (784, 524), (767, 524), (757, 524), (748, 524), (738, 524), (718, 524), (704, 524), (691, 524), (674, 524), (646, 524), (631, 524), (616, 524), (599, 524), (568, 524), (551, 524)]",182.24025735414472,"[1, 7, 8, 3, 5, 2, 4, 6, 9]","(0, 0.25)",DOT006D,DOT,D,English,Tue Aug 28 13:00:05 2018,Mouse
1,3,4,0,16,5,5,1,460,70,390,142,0,500,200,8000,"[(960, 540), (960, 540), (960, 540), (960, 540), (960, 540), (960, 540), (960, 539), (959, 539), (955, 540), (946, 543), (941, 546), (935, 547), (932, 548), (921, 549), (916, 549), (914, 550), (910, 550), (905, 551), (903, 551), (901, 552), (899, 552), (893, 553), (889, 554), (884, 554), (879, 555), (865, 556), (858, 558), (847, 558), (836, 558), (812, 558), (798, 558), (788, 558), (775, 558), (748, 558), (740, 558), (726, 558), (713, 558), (684, 558), (669, 558), (656, 558), (641, 558), (613, 556), (600, 553), (589, 553), (577, 553), (554, 553)]",178.1660326687852,"[1, 7, 8, 3, 5, 2, 4, 6, 9]","(0, 0.25)",DOT006D,DOT,D,English,Tue Aug 28 13:00:05 2018,Mouse
1,3,4,0,17,3,3,1,971,321,650,141,0,500,200,8000,"[(960, 540), (960, 540), (960, 540), (960, 540), (960, 540), (960, 540), (960, 540), (960, 540), (960, 540), (960, 540), (960, 540), (960, 540), (960, 540), (960, 540), (960, 540), (960, 540), (960, 540), (960, 540), (960, 540), (960, 540), (960, 540), (960, 540), (960, 540), (960, 540), (960, 540), (960, 540), (960, 540), (960, 540), (960, 540), (960, 540), (960, 540), (960, 540), (961, 540), (961, 541), (961, 542), (961, 543), (960, 544), (960, 544), (960, 545), (959, 549), (958, 551), (957, 553), (956, 555), (952, 565), (950, 573), (945, 580), (940, 588), (927, 607), (921, 618), (913, 628), (904, 642), (886, 667), (876, 680), (868, 691), (860, 703), (845, 723), (838, 732), (829, 741), (823, 751), (803, 770), (796, 777), (785, 785), (777, 792), (756, 804), (746, 808), (739, 811), (731, 814), (720, 816), (713, 816), (709, 818), (704, 818), (699, 820), (697, 821), (694, 821), (691, 823), (690, 824), (688, 824), (688, 824), (686, 824), (685, 825), (685, 825), (685, 825), (685, 825), (685, 825), (685, 825), (687, 825), (687, 825), (687, 825), (687, 825), (687, 825), (687, 825), (687, 825), (687, 825), (687, 825), (687, 825), (687, 825), (684, 826), (678, 828)]",134.39690880561946,"[1, 7, 8, 3, 5, 2, 4, 6, 9]","(0, 0.25)",DOT006D,DOT,D,English,Tue Aug 28 13:00:05 2018,Mouse
1,3,4,0,18,5,5,1,860,50,810,140,0,500,200,8000,"[(960, 540), (960, 540), (960, 540), (960, 540), (955, 542), (949, 546), (947, 548), (943, 548), (941, 551), (938, 552), (936, 553), (934, 554), (933, 555), (933, 555), (933, 555), (933, 555), (933, 555), (933, 555), (933, 555), (933, 555), (932, 555), (932, 555), (932, 555), (932, 555), (932, 555), (932, 555), (932, 555), (932, 555), (931, 555), (931, 555), (931, 554), (931, 554), (931, 551), (931, 550), (930, 549), (930, 549), (928, 547), (928, 547), (927, 546), (926, 545), (924, 544), (923, 544), (921, 542), (920, 542), (917, 542), (914, 542), (911, 541), (908, 541), (901, 541), (897, 540), (895, 540), (892, 540), (889, 538), (887, 538), (885, 538), (885, 538), (884, 537), (884, 537), (883, 536), (881, 535), (881, 534), (880, 533), (879, 533), (878, 532), (870, 529), (869, 529), (865, 528), (861, 528), (852, 527), (845, 527), (839, 527), (833, 527), (813, 527), (804, 527), (793, 527), (781, 527), (752, 527), (735, 527), (715, 527), (696, 527), (654, 527), (637, 527), (620, 527), (600, 527), (564, 527), (541, 527)]",181.77710326634335,"[1, 7, 8, 3, 5, 2, 4, 6, 9]","(0, 0.25)",DOT006D,DOT,D,English,Tue Aug 28 13:00:05 2018,Mouse
1,3,4,0,19,4,4,1,779,49,730,139,0,500,200,8000,"[(960, 540), (960, 540), (960, 540), (960, 540), (961, 540), (961, 540), (961, 540), (961, 540), (961, 540), (961, 540), (961, 540), (961, 540), (961, 540), (961, 540), (961, 540), (961, 540), (961, 540), (961, 540), (961, 540), (961, 540), (961, 540), (961, 540), (961, 540), (961, 540), (961, 540), (961, 540), (961, 540), (961, 540), (961, 540), (961, 540), (961, 540), (961, 540), (961, 540), (961, 540), (962, 537), (962, 534), (962, 533), (962, 527), (962, 523), (962, 516), (959, 506), (947, 483), (940, 470), (929, 456), (921, 446), (907, 426), (903, 419), (899, 413), (895, 405), (892, 399), (892, 397), (891, 396), (891, 394), (891, 393), (891, 393), (891, 393), (891, 391), (893, 390), (894, 389), (897, 389), (899, 389), (907, 384), (913, 381), (918, 379), (922, 377), (931, 370), (937, 364), (943, 356), (947, 349), (955, 328), (959, 318), (965, 305), (970, 289), (979, 253), (982, 232), (985, 205), (985, 180), (985, 124)]",273.439119778435,"[1, 7, 8, 3, 5, 2, 4, 6, 9]","(0, 0.25)",DOT006D,DOT,D,English,Tue Aug 28 13:00:05 2018,Mouse
1,3,4,0,20,6,6,1,1570,180,1390,138,0,500,200,8000,"[(960, 540), (960, 540), (960, 540), (960, 540), (960, 540), (960, 540), (960, 540), (960, 540), (960, 540), (960, 540), (960, 540), (960, 540), (960, 540), (960, 540), (960, 540), (960, 540), (960, 540), (960, 541), (959, 545), (959, 547), (958, 548), (958, 548), (957, 550), (957, 551), (957, 553), (957, 556), (957, 561), (957, 564), (957, 568), (960, 574), (963, 582), (966, 586), (967, 589), (967, 593), (970, 599), (971, 604), (974, 610), (974, 615), (976, 625), (976, 629), (978, 635), (978, 641), (980, 650), (980, 654), (981, 658), (981, 664), (981, 671), (981, 676), (981, 680), (981, 687), (981, 698), (981, 704), (981, 711), (981, 718), (979, 728), (977, 734), (977, 739), (976, 745), (974, 755), (973, 760), (973, 763), (972, 766), (968, 774), (968, 776), (965, 781), (964, 783), (963, 786), (962, 788), (961, 788), (961, 788), (961, 788), (961, 788), (961, 788), (961, 788), (961, 788), (961, 788), (961, 788), (961, 788), (961, 788), (961, 788), (961, 788), (961, 789), (962, 789), (962, 789), (963, 789), (963, 789), (967, 789), (967, 789), (968, 789), (970, 789), (972, 789), (973, 789), (974, 789), (975, 789), (976, 789), (977, 789), (977, 789), (978, 789), (979, 788), (980, 786), (982, 784), (983, 779), (988, 771), (991, 765), (995, 759), (997, 754), (1004, 741), (1006, 735), (1009, 729), (1010, 726), (1011, 723), (1013, 721), (1013, 720), (1013, 719), (1014, 719), (1014, 717), (1016, 714), (1017, 712), (1027, 700), (1032, 694), (1037, 687), (1041, 681), (1047, 668), (1051, 661), (1053, 656), (1056, 650), (1061, 637), (1063, 628), (1064, 620), (1067, 610), (1067, 586), (1067, 571), (1067, 557), (1067, 539), (1067, 499), (1067, 482), (1067, 465), (1067, 449), (1070, 418), (1074, 402), (1079, 385), (1083, 368), (1095, 336), (1101, 321), (1105, 311), (1110, 301), (1117, 283), (1122, 274), (1124, 267), (1128, 259), (1134, 245), (1139, 236), (1143, 229), (1145, 224), (1154, 209), (1158, 202), (1163, 193)]",300.32824920409814,"[1, 7, 8, 3, 5, 2, 4, 6, 9]","(0, 0.25)",DOT006D,DOT,D,English,Tue Aug 28 13:00:05 2018,Mouse
1,3,4,0,21,2,2,1,771,211,560,137,0,500,200,8000,"[(960, 540), (960, 540), (960, 540), (960, 540), (960, 540), (960, 540), (960, 540), (960, 540), (960, 540), (960, 540), (960, 540), (960, 540), (960, 540), (960, 540), (960, 540), (960, 540), (960, 540), (960, 540), (960, 540), (960, 540), (960, 540), (955, 545), (951, 550), (949, 554), (946, 557), (937, 566), (934, 570), (931, 572), (928, 575), (923, 579), (921, 580), (921, 580), (921, 580), (920, 580), (920, 580), (920, 580), (920, 580), (920, 580), (919, 580), (918, 580), (918, 580), (916, 580), (914, 577), (913, 576), (913, 573), (909, 566), (908, 561), (905, 557), (903, 551), (896, 536), (893, 525), (887, 512), (882, 502), (868, 479), (861, 470), (854, 461), (846, 451), (828, 434), (822, 427), (816, 422), (808, 418), (798, 410), (791, 406), (786, 402), (781, 398), (769, 389), (761, 383), (754, 378), (746, 372), (727, 361), (717, 356), (706, 351), (691, 345), (667, 335), (655, 330), (642, 325), (631, 321), (614, 314)]",213.15173376158555,"[1, 7, 8, 3, 5, 2, 4, 6, 9]","(0, 0.25)",DOT006D,DOT,D,English,Tue Aug 28 13:00:05 2018,Mouse
1,3,4,0,22,1,1,1,490,230,260,136,0,500,200,8000,"[(960, 540), (960, 540), (960, 540), (960, 540), (960, 540), (960, 540), (960, 540), (960, 540), (960, 540), (960, 540), (960, 540), (960, 540), (960, 540), (960, 540), (960, 540), (960, 540), (960, 540), (960, 540), (960, 540), (960, 540), (960, 540), (960, 540), (964, 540), (970, 542), (973, 543), (978, 546), (989, 554), (998, 561), (1006, 566), (1016, 575), (1035, 591), (1045, 602), (1056, 611), (1065, 620), (1088, 640), (1099, 650), (1110, 656), (1121, 663), (1145, 672), (1157, 676), (1170, 679), (1181, 680), (1208, 684), (1223, 685), (1240, 686), (1257, 686), (1296, 686), (1314, 687), (1336, 692)]",22.01128319791936,"[1, 7, 8, 3, 5, 2, 4, 6, 9]","(0, 0.25)",DOT006D,DOT,D,English,Tue Aug 28 13:00:05 2018,Mouse
1,3,4,0,23,8,8,1,541,91,450,135,0,500,200,8000,"[(960, 540), (960, 540), (960, 540), (960, 540), (960, 540), (960, 540), (960, 540), (960, 540), (960, 540), (959, 535), (958, 535), (958, 532), (958, 531), (958, 531), (958, 531), (958, 531), (958, 531), (958, 531), (958, 531), (958, 529), (957, 528), (955, 528), (953, 528), (949, 528), (941, 528), (924, 537), (916, 544), (909, 552), (901, 562), (885, 584), (876, 598), (868, 616), (861, 634), (850, 673), (843, 693), (842, 708), (839, 726), (837, 748), (837, 757), (837, 768), (837, 779), (839, 797), (843, 808), (845, 817), (848, 827), (852, 845), (854, 853), (857, 862), (859, 872), (859, 888), (859, 898), (859, 903), (859, 913), (859, 927), (857, 934)]",104.65046891343411,"[1, 7, 8, 3, 5, 2, 4, 6, 9]","(0, 0.25)",DOT006D,DOT,D,English,Tue Aug 28 13:00:05 2018,Mouse
1,3,4,0,24,6,4,0,-729,100,629,134,0,500,200,8000,"[(960, 540), (960, 540), (960, 540), (960, 540), (960, 540), (960, 540), (960, 540), (960, 540), (960, 540), (961, 537), (961, 534), (961, 531), (961, 527), (956, 511), (951, 502), (944, 492), (939, 482), (926, 464), (919, 454), (913, 447), (905, 437), (893, 419), (888, 410), (881, 397), (871, 381), (854, 353), (845, 339), (835, 327), (829, 321), (816, 310), (814, 308), (810, 306), (807, 305), (801, 303), (800, 302), (800, 302), (800, 302), (800, 302), (797, 302), (797, 302), (797, 303), (797, 304), (797, 306), (797, 307), (797, 307), (797, 307), (797, 308), (797, 309), (797, 310), (797, 310), (799, 313), (800, 314), (803, 316), (806, 318), (811, 320), (815, 321), (816, 322), (817, 322), (823, 322), (825, 322), (827, 320), (829, 316), (835, 307), (838, 301), (841, 291), (845, 283), (854, 261), (861, 244), (869, 224), (875, 204), (881, 172), (882, 160), (882, 147)]",258.7742022371856,"[1, 7, 8, 3, 5, 2, 4, 6, 9]","(0, 0.25)",DOT006D,DOT,D,English,Tue Aug 28 13:00:05 2018,Mouse
1,3,4,0,25,4,4,1,1611,391,1220,135,0,500,200,8000,"[(960, 540), (960, 540), (960, 540), (960, 540), (960, 540), (960, 540), (960, 540), (960, 540), (960, 540), (960, 540), (960, 540), (960, 540), (960, 540), (960, 540), (960, 540), (960, 540), (960, 540), (960, 540), (960, 540), (960, 540), (960, 540), (960, 540), (960, 540), (960, 540), (960, 540), (960, 540), (960, 540), (960, 540), (960, 540), (960, 540), (960, 540), (960, 540), (960, 540), (960, 540), (960, 540), (960, 540), (960, 540), (960, 540), (960, 540), (959, 540), (957, 538), (955, 536), (954, 536), (953, 535), (951, 532), (950, 531), (948, 528), (947, 526), (944, 522), (943, 520), (941, 518), (940, 517), (939, 515), (938, 515), (938, 515), (938, 515), (938, 515), (937, 515), (937, 515), (937, 515), (937, 515), (937, 515), (937, 515), (937, 515), (937, 515), (937, 515), (937, 515), (937, 515), (937, 515), (937, 515), (937, 515), (937, 515), (937, 515), (937, 515), (937, 515), (937, 515), (937, 515), (937, 515), (937, 515), (937, 515), (937, 515), (937, 515), (935, 515), (935, 515), (928, 519), (925, 521), (925, 522), (923, 522), (923, 522), (923, 523), (922, 524), (922, 524), (922, 526), (922, 526), (922, 527), (921, 528), (921, 530), (921, 530), (921, 530), (921, 530), (921, 530), (921, 530), (921, 530), (921, 530), (921, 530), (921, 530), (921, 530), (921, 530), (921, 530), (921, 530), (921, 530), (921, 530), (921, 530), (921, 530), (921, 530), (921, 530), (921, 530), (921, 530), (921, 530), (921, 530), (921, 530), (921, 530), (921, 530), (921, 530), (921, 530), (921, 530), (921, 530), (921, 530), (921, 529), (921, 526), (921, 522), (923, 518), (925, 508), (927, 502), (929, 495), (930, 488), (934, 464), (934, 451), (934, 437), (934, 422), (930, 389), (925, 372), (920, 358), (915, 341), (906, 311), (901, 296), (897, 282), (893, 272), (885, 248), (884, 240), (882, 230), (879, 223), (874, 204), (873, 196), (872, 191), (872, 187), (869, 176), (868, 170), (868, 164), (867, 160), (863, 152), (862, 147)]",255.9980653779807,"[1, 7, 8, 3, 5, 2, 4, 6, 9]","(0, 0.25)",DOT006D,DOT,D,English,Tue Aug 28 13:00:05 2018,Mouse
1,3,4,0,26,9,9,1,3149,609,2540,135,0,500,200,8000,"[(960, 540), (960, 540), (960, 540), (960, 540), (960, 540), (960, 540), (960, 540), (960, 540), (960, 540), (960, 540), (960, 540), (960, 540), (960, 540), (960, 540), (960, 540), (960, 540), (960, 540), (960, 540), (960, 540), (960, 540), (960, 540), (960, 540), (960, 540), (960, 540), (960, 540), (960, 540), (960, 540), (960, 540), (960, 540), (960, 540), (960, 540), (960, 540), (960, 540), (960, 540), (960, 540), (960, 540), (960, 540), (960, 540), (960, 540), (960, 540), (960, 540), (960, 540), (960, 540), (960, 540), (960, 540), (960, 540), (960, 540), (960, 540), (960, 540), (960, 540), (960, 540), (960, 540), (960, 540), (960, 540), (960, 540), (960, 540), (960, 540), (960, 540), (960, 540), (960, 540), (961, 541), (963, 541), (963, 541), (964, 541), (964, 541), (964, 541), (966, 541), (966, 541), (967, 541), (969, 539), (970, 538), (972, 536), (975, 534), (984, 528), (988, 525), (992, 522), (1000, 518), (1010, 515), (1015, 512), (1019, 509), (1020, 508), (1023, 507), (1023, 507), (1024, 507), (1024, 507), (1024, 507), (1024, 507), (1024, 507), (1024, 507), (1024, 507), (1024, 507), (1024, 507), (1024, 507), (1024, 507), (1024, 507), (1024, 507), (1024, 507), (1024, 507), (1024, 507), (1024, 507), (1024, 507), (1024, 507), (1024, 507), (1024, 507), (1024, 507), (1026, 507), (1026, 507), (1026, 507), (1026, 507), (1026, 507), (1026, 507), (1026, 507), (1026, 507), (1026, 507), (1026, 507), (1026, 507), (1026, 507), (1026, 507), (1026, 507), (1026, 507), (1026, 507), (1026, 507), (1026, 507), (1026, 507), (1026, 507), (1026, 507), (1026, 507), (1026, 507), (1026, 507), (1026, 507), (1026, 507), (1026, 507), (1026, 507), (1026, 507), (1026, 507), (1026, 507), (1026, 507), (1026, 507), (1026, 507), (1026, 507), (1026, 507), (1026, 507), (1026, 507), (1026, 507), (1026, 507), (1027, 507), (1027, 508), (1027, 509), (1027, 512), (1029, 515), (1029, 518), (1030, 522), (1030, 524), (1032, 530), (1033, 533), (1033, 535), (1034, 538), (1034, 540), (1034, 540), (1034, 541), (1034, 542), (1034, 542), (1034, 542), (1034, 543), (1034, 544), (1034, 544), (1034, 546), (1034, 548), (1033, 548), (1029, 553), (1025, 558), (1021, 565), (1015, 573), (1004, 592), (1000, 602), (994, 616), (991, 629), (982, 657), (981, 670), (980, 687), (976, 700), (974, 729), (970, 747), (968, 760), (968, 771), (964, 791), (963, 797), (963, 801), (963, 804), (961, 810), (959, 813), (959, 815), (959, 816), (957, 821), (957, 822), (957, 823), (957, 823), (957, 823), (957, 823), (957, 823), (957, 823), (957, 823), (957, 823), (957, 823), (957, 823), (957, 823), (957, 823), (957, 823), (957, 823), (958, 820), (959, 818), (960, 816), (960, 816), (961, 815), (962, 814), (962, 813), (963, 812), (963, 811), (963, 811), (963, 811), (963, 811), (963, 811), (963, 811), (963, 811), (963, 811), (964, 811), (964, 811), (965, 811), (966, 811), (967, 811), (969, 811), (970, 811), (970, 811), (973, 811), (973, 811), (975, 811), (976, 811), (978, 811), (978, 811), (978, 811), (979, 810), (979, 810), (979, 810), (979, 810), (979, 810), (980, 809), (980, 809), (980, 809), (980, 809), (982, 807), (983, 806), (983, 804), (984, 802), (985, 800), (986, 798), (986, 794), (987, 791), (989, 781), (990, 772), (990, 767), (991, 759), (992, 741), (994, 732), (995, 725), (996, 719), (996, 708), (997, 704), (998, 702), (998, 699), (1001, 694), (1003, 689), (1007, 683), (1010, 678), (1018, 664), (1021, 655), (1025, 649), (1031, 640), (1035, 629), (1036, 625), (1039, 620), (1040, 617), (1042, 609), (1042, 608), (1043, 607), (1044, 603), (1045, 601), (1045, 599), (1046, 596), (1048, 593), (1052, 586), (1055, 581), (1062, 574), (1068, 569), (1083, 562), (1093, 558), (1103, 554), (1111, 550), (1133, 541), (1141, 538), (1151, 530), (1162, 523), (1180, 513), (1191, 506), (1201, 501), (1212, 494), (1235, 481), (1250, 473), (1263, 465), (1277, 458), (1298, 447), (1308, 442), (1318, 437), (1328, 433), (1341, 426), (1345, 425)]",343.3690462932786,"[1, 7, 8, 3, 5, 2, 4, 6, 9]","(0, 0.25)",DOT006D,DOT,D,English,Tue Aug 28 13:00:05 2018,Mouse
1,3,4,0,27,4,4,1,1100,850,250,134,0,500,200,8000,"[(960, 540), (960, 540), (960, 540), (960, 540), (960, 540), (960, 540), (960, 540), (960, 540), (960, 540), (960, 540), (960, 540), (960, 540), (960, 540), (960, 540), (960, 540), (960, 540), (960, 540), (960, 540), (960, 540), (960, 540), (960, 540), (960, 540), (960, 540), (960, 540), (960, 540), (960, 540), (960, 540), (960, 540), (960, 540), (960, 540), (960, 540), (960, 540), (960, 540), (960, 540), (960, 540), (960, 540), (960, 540), (960, 540), (960, 540), (960, 540), (960, 540), (960, 540), (960, 540), (960, 540), (960, 540), (960, 540), (960, 540), (960, 540), (960, 540), (960, 540), (960, 540), (960, 540), (960, 540), (960, 540), (960, 540), (960, 540), (960, 540), (960, 540), (960, 540), (960, 540), (960, 540), (960, 540), (960, 540), (960, 540), (960, 540), (960, 540), (960, 540), (960, 540), (960, 540), (960, 540), (960, 540), (960, 540), (960, 540), (960, 540), (960, 540), (960, 540), (960, 540), (960, 540), (960, 540), (960, 540), (960, 540), (960, 540), (960, 540), (960, 540), (958, 540), (955, 540), (954, 540), (951, 540), (947, 540), (939, 538), (937, 537), (937, 537), (935, 536), (935, 534), (935, 531), (934, 526), (933, 519), (927, 497), (924, 483), (921, 468), (916, 450), (903, 408), (895, 383), (885, 352), (876, 324), (862, 271), (857, 244), (853, 217), (849, 188), (844, 134)]",254.05460409907715,"[1, 7, 8, 3, 5, 2, 4, 6, 9]","(0, 0.25)",DOT006D,DOT,D,English,Tue Aug 28 13:00:05 2018,Mouse
1,3,4,0,28,1,5,0,-1069,19,1050,133,0,500,200,8000,"[(960, 540), (961, 540), (961, 540), (961, 540), (961, 540), (961, 540), (961, 540), (962, 540), (962, 540), (962, 539), (964, 538), (965, 538), (965, 538), (966, 538), (967, 538), (967, 538), (967, 538), (967, 538), (967, 538), (967, 538), (967, 538), (967, 538), (967, 538), (967, 538), (967, 538), (967, 538), (967, 538), (967, 538), (967, 538), (967, 538), (967, 538), (967, 538), (967, 538), (967, 538), (967, 538), (967, 538), (967, 538), (967, 538), (967, 538), (967, 538), (967, 538), (967, 538), (967, 538), (967, 538), (967, 538), (967, 538), (967, 538), (967, 538), (967, 538), (967, 538), (967, 538), (967, 538), (967, 538), (967, 538), (967, 538), (967, 538), (967, 538), (967, 538), (967, 538), (967, 538), (967, 538), (967, 538), (967, 538), (967, 538), (967, 538), (967, 538), (967, 538), (967, 538), (967, 538), (967, 538), (967, 538), (967, 538), (967, 538), (967, 538), (967, 538), (967, 538), (967, 538), (967, 538), (967, 538), (967, 538), (967, 538), (967, 538), (967, 538), (967, 538), (967, 538), (967, 538), (967, 538), (967, 538), (967, 538), (967, 538), (967, 538), (967, 538), (967, 538), (967, 538), (967, 537), (958, 537), (947, 538), (935, 539), (894, 545), (866, 545), (841, 545), (810, 545), (744, 545), (705, 545), (666, 545), (627, 545), (544, 545)]",179.31138196234392,"[1, 7, 8, 3, 5, 2, 4, 6, 9]","(0, 0.25)",DOT006D,DOT,D,English,Tue Aug 28 13:00:05 2018,Mouse
1,3,4,0,29,2,2,1,1069,18,1051,134,0,500,200,8000,"[(960, 540), (961, 540), (963, 541), (965, 541), (965, 541), (965, 541), (967, 541), (967, 541), (967, 541), (967, 541), (967, 541), (967, 541), (967, 541), (967, 541), (967, 541), (967, 541), (967, 541), (967, 541), (967, 541), (967, 541), (967, 541), (967, 541), (967, 541), (969, 541), (969, 541), (969, 541), (969, 541), (969, 542), (969, 543), (969, 543), (969, 543), (969, 543), (969, 543), (969, 543), (969, 543), (969, 543), (969, 543), (969, 543), (969, 543), (969, 543), (969, 543), (969, 543), (969, 543), (969, 543), (969, 543), (969, 543), (969, 543), (969, 543), (969, 543), (969, 543), (969, 543), (968, 534), (968, 529), (967, 521), (965, 513), (964, 492), (962, 481), (961, 469), (960, 454), (959, 429), (957, 417), (955, 407), (951, 397), (948, 388), (946, 384), (945, 383), (944, 382), (944, 381), (944, 381), (944, 381), (944, 381), (944, 381), (944, 381), (943, 381), (940, 381), (939, 381), (939, 382), (937, 383), (935, 384), (930, 386), (925, 387), (921, 388), (909, 389), (902, 389), (897, 389), (890, 388), (884, 386), (869, 380), (863, 377), (856, 372), (838, 358), (830, 351), (821, 343), (812, 336), (792, 321), (782, 315), (769, 307), (757, 302), (745, 297), (719, 285), (709, 281), (699, 277), (694, 275), (687, 270), (683, 267), (681, 265), (672, 258)]",224.39690880561946,"[1, 7, 8, 3, 5, 2, 4, 6, 9]","(0, 0.25)",DOT006D,DOT,D,English,Tue Aug 28 13:00:05 2018,Mouse
1,3,4,0,30,2,3,0,-830,30,800,134,0,500,200,8000,"[(962, 540), (962, 540), (963, 540), (963, 540), (963, 540), (963, 540), (963, 540), (963, 540), (963, 540), (963, 540), (963, 540), (963, 540), (963, 540), (963, 540), (963, 540), (963, 540), (963, 540), (963, 540), (963, 540), (963, 540), (963, 540), (963, 540), (963, 540), (963, 540), (963, 540), (963, 540), (963, 540), (963, 540), (963, 540), (963, 540), (963, 540), (963, 540), (963, 540), (963, 540), (963, 540), (963, 540), (963, 540), (963, 540), (964, 541), (964, 541), (964, 541), (964, 542), (964, 543), (964, 543), (964, 543), (964, 544), (962, 548), (961, 548), (960, 550), (957, 552), (955, 554), (950, 558), (948, 560), (945, 563), (939, 571), (934, 576), (927, 586), (921, 594), (907, 614), (900, 626), (894, 637), (889, 648), (877, 671), (868, 683), (861, 692), (855, 699), (839, 715), (831, 722), (824, 729), (815, 736), (797, 749), (790, 754), (780, 761), (773, 764), (753, 774), (743, 779), (732, 784), (723, 789), (701, 796), (689, 799), (678, 801), (667, 806), (647, 811)]",139.11350472107412,"[1, 7, 8, 3, 5, 2, 4, 6, 9]","(0, 0.25)",DOT006D,DOT,D,English,Tue Aug 28 13:00:05 2018,Mouse
1,3,4,0,31,9,9,1,720,110,610,135,0,500,200,8000,"[(960, 540), (960, 540), (960, 540), (960, 540), (960, 540), (960, 540), (960, 540), (960, 540), (960, 540), (960, 540), (961, 540), (963, 540), (966, 539), (968, 539), (975, 539), (978, 539), (983, 538), (987, 538), (991, 538), (993, 538), (995, 538), (997, 538), (998, 538), (999, 538), (999, 538), (999, 538), (999, 538), (999, 538), (999, 538), (999, 538), (999, 538), (999, 538), (999, 538), (999, 538), (999, 538), (1000, 538), (1000, 538), (1001, 538), (1004, 536), (1008, 535), (1012, 534), (1016, 534), (1021, 531), (1027, 527), (1031, 526), (1037, 524), (1047, 518), (1054, 515), (1058, 512), (1066, 508), (1080, 500), (1088, 496), (1098, 491), (1108, 485), (1128, 475), (1138, 468), (1148, 464), (1157, 460), (1177, 452), (1187, 447), (1197, 444), (1207, 439), (1225, 431), (1235, 427), (1244, 423), (1253, 419), (1274, 411), (1285, 406), (1297, 401), (1305, 396), (1325, 390), (1336, 386)]",337.7272464706663,"[1, 7, 8, 3, 5, 2, 4, 6, 9]","(0, 0.25)",DOT006D,DOT,D,English,Tue Aug 28 13:00:05 2018,Mouse
1,3,4,0,32,3,3,1,858,208,650,135,0,500,200,8000,"[(960, 540), (960, 540), (960, 540), (960, 540), (960, 540), (960, 540), (960, 540), (960, 540), (960, 540), (960, 540), (960, 540), (960, 540), (960, 540), (960, 540), (960, 540), (960, 540), (960, 540), (960, 540), (960, 540), (960, 540), (958, 541), (955, 542), (952, 542), (948, 544), (943, 544), (931, 544), (924, 544), (916, 544), (908, 544), (895, 544), (889, 542), (884, 539), (880, 537), (870, 533), (864, 530), (862, 529), (858, 527), (855, 524), (853, 521), (851, 518), (846, 512), (839, 502), (837, 498), (835, 493), (832, 490), (826, 483), (825, 482), (822, 480), (822, 480), (820, 480), (820, 480), (819, 480), (819, 480), (818, 480), (818, 481), (818, 485), (818, 488), (818, 500), (818, 506), (818, 511), (818, 517), (817, 530), (815, 536), (814, 542), (813, 549), (809, 562), (807, 569), (804, 576), (802, 585), (796, 600), (792, 609), (786, 620), (780, 631), (769, 651), (761, 661), (754, 671), (747, 679), (730, 693), (720, 702), (708, 712), (699, 721), (679, 737), (670, 745), (661, 754), (650, 762), (634, 775)]",144.21371610470302,"[1, 7, 8, 3, 5, 2, 4, 6, 9]","(0, 0.25)",DOT006D,DOT,D,English,Tue Aug 28 13:00:05 2018,Mouse
1,3,4,0,33,9,9,1,360,80,280,134,0,500,200,8000,"[(960, 540), (960, 540), (960, 540), (960, 540), (960, 540), (960, 540), (960, 540), (964, 540), (971, 540), (979, 539), (1004, 536), (1017, 534), (1034, 532), (1051, 529), (1082, 523), (1097, 520), (1119, 514), (1134, 509), (1167, 500), (1178, 496), (1190, 490), (1198, 486), (1216, 478), (1223, 473), (1231, 469), (1241, 462), (1255, 451), (1262, 443), (1270, 437), (1276, 432), (1292, 421), (1299, 416), (1309, 411), (1317, 408), (1332, 404), (1339, 403)]",340.1262132554743,"[1, 7, 8, 3, 5, 2, 4, 6, 9]","(0, 0.25)",DOT006D,DOT,D,English,Tue Aug 28 13:00:05 2018,Mouse
1,3,4,0,34,5,5,1,580,180,400,133,0,500,200,8000,"[(960, 540), (960, 540), (960, 540), (960, 540), (960, 540), (960, 540), (960, 540), (960, 540), (960, 540), (960, 540), (960, 540), (960, 540), (960, 540), (960, 540), (960, 540), (960, 540), (960, 540), (959, 541), (957, 542), (956, 542), (953, 542), (949, 542), (945, 542), (939, 542), (932, 542), (916, 542), (908, 543), (899, 543), (890, 543), (876, 543), (870, 543), (866, 543), (862, 543), (856, 543), (853, 544), (851, 544), (846, 544), (839, 544), (836, 544), (832, 545), (826, 546), (812, 547), (804, 548), (796, 548), (786, 550), (768, 550), (757, 550), (746, 550), (735, 550), (712, 553), (700, 553), (685, 553), (668, 553), (637, 554), (620, 554), (598, 554), (575, 554), (533, 554)]",178.12212255271464,"[1, 7, 8, 3, 5, 2, 4, 6, 9]","(0, 0.25)",DOT006D,DOT,D,English,Tue Aug 28 13:00:05 2018,Mouse
1,3,4,0,35,3,3,1,638,98,540,132,0,500,200,8000,"[(960, 540), (960, 540), (960, 540), (960, 540), (960, 540), (960, 540), (960, 540), (960, 540), (960, 540), (960, 541), (960, 542), (960, 543), (960, 544), (960, 545), (960, 546), (960, 546), (960, 548), (960, 548), (960, 550), (960, 551), (960, 552), (960, 553), (960, 554), (960, 556), (960, 558), (960, 559), (960, 561), (959, 564), (958, 566), (957, 566), (957, 568), (954, 571), (953, 572), (951, 574), (950, 576), (944, 581), (939, 585), (936, 589), (931, 594), (920, 602), (915, 606), (909, 612), (903, 617), (886, 631), (877, 637), (870, 643), (859, 651), (843, 664), (837, 670), (829, 677), (820, 683), (802, 699), (792, 706), (783, 715), (775, 723), (753, 740), (743, 748), (732, 756), (711, 771), (698, 778), (685, 784), (673, 789), (662, 794), (644, 801)]",140.44501803569884,"[1, 7, 8, 3, 5, 2, 4, 6, 9]","(0, 0.25)",DOT006D,DOT,D,English,Tue Aug 28 13:00:05 2018,Mouse
1,3,4,0,36,7,5,0,-619,369,250,131,0,500,200,8000,"[(960, 540), (960, 540), (960, 540), (960, 540), (960, 540), (960, 540), (960, 540), (960, 540), (960, 540), (960, 540), (960, 540), (960, 540), (960, 540), (960, 540), (960, 540), (960, 540), (960, 540), (960, 540), (960, 540), (960, 540), (960, 540), (960, 540), (960, 540), (960, 540), (960, 540), (960, 540), (960, 540), (960, 540), (960, 540), (960, 540), (960, 540), (960, 540), (960, 540), (960, 540), (960, 540), (960, 540), (957, 540), (943, 540), (936, 540), (928, 539), (918, 539), (896, 536), (884, 534), (870, 531), (855, 531), (824, 529), (812, 527), (798, 525), (783, 522), (754, 520), (737, 520), (717, 520), (701, 520), (669, 520), (652, 520), (637, 520), (625, 520), (602, 520), (593, 520), (582, 520), (572, 521), (554, 524)]",182.25679392645105,"[1, 7, 8, 3, 5, 2, 4, 6, 9]","(0, 0.25)",DOT006D,DOT,D,English,Tue Aug 28 13:00:05 2018,Mouse
1,3,4,0,37,9,5,0,-910,740,170,132,0,500,200,8000,"[(960, 540), (960, 540), (960, 540), (960, 540), (960, 540), (960, 540), (960, 540), (960, 540), (960, 540), (960, 540), (960, 540), (960, 540), (960, 540), (960, 540), (960, 540), (960, 540), (960, 540), (960, 540), (960, 540), (960, 540), (960, 540), (960, 540), (960, 540), (960, 540), (960, 540), (960, 540), (960, 540), (960, 540), (960, 540), (960, 540), (960, 540), (960, 540), (960, 540), (960, 540), (960, 540), (960, 540), (960, 540), (960, 540), (960, 540), (960, 540), (960, 540), (960, 540), (960, 540), (960, 540), (960, 540), (960, 540), (960, 540), (960, 540), (960, 540), (960, 540), (960, 540), (960, 540), (960, 540), (960, 540), (960, 540), (960, 540), (960, 540), (960, 540), (960, 540), (960, 540), (960, 540), (960, 540), (960, 540), (960, 540), (960, 540), (960, 540), (960, 540), (960, 540), (960, 540), (960, 540), (960, 540), (960, 540), (960, 540), (959, 539), (946, 539), (938, 539), (929, 539), (920, 540), (898, 540), (884, 540), (864, 540), (841, 540), (794, 540), (766, 540), (741, 540), (713, 540), (650, 536), (616, 532), (586, 528), (562, 525), (522, 522)]",182.3532968661083,"[1, 7, 8, 3, 5, 2, 4, 6, 9]","(0, 0.25)",DOT006D,DOT,D,English,Tue Aug 28 13:00:05 2018,Mouse
1,3,4,0,38,3,3,1,551,231,320,133,0,500,200,8000,"[(960, 540), (960, 540), (960, 540), (960, 540), (960, 540), (960, 540), (960, 540), (960, 540), (960, 540), (960, 540), (960, 540), (960, 540), (960, 540), (960, 540), (960, 540), (960, 540), (960, 540), (960, 540), (960, 540), (960, 540), (960, 540), (960, 540), (960, 540), (960, 542), (957, 545), (954, 549), (951, 550), (946, 554), (944, 555), (941, 557), (938, 558), (934, 561), (933, 561), (931, 562), (929, 563), (924, 566), (921, 568), (919, 569), (916, 570), (911, 572), (907, 574), (905, 575), (902, 576), (892, 581), (885, 586), (876, 590), (867, 596), (847, 610), (833, 622), (815, 637), (793, 661), (743, 716), (725, 739), (702, 766), (682, 789), (643, 831)]",137.44865658382443,"[1, 7, 8, 3, 5, 2, 4, 6, 9]","(0, 0.25)",DOT006D,DOT,D,English,Tue Aug 28 13:00:05 2018,Mouse
1,3,4,0,39,2,2,1,591,341,250,133,0,500,200,8000,"[(960, 540), (960, 540), (960, 540), (960, 540), (960, 540), (960, 540), (960, 540), (960, 540), (960, 540), (960, 540), (960, 540), (960, 540), (960, 540), (960, 540), (960, 540), (960, 540), (960, 540), (960, 540), (960, 540), (960, 540), (960, 540), (960, 540), (960, 540), (960, 540), (960, 540), (960, 540), (960, 540), (960, 540), (960, 540), (960, 540), (960, 540), (960, 540), (960, 540), (960, 540), (959, 540), (954, 540), (953, 540), (953, 540), (953, 540), (953, 540), (953, 540), (952, 540), (951, 540), (946, 537), (945, 536), (940, 531), (938, 528), (927, 513), (920, 502), (912, 493), (903, 482), (879, 450), (862, 432), (841, 410), (824, 392), (780, 355), (755, 334), (734, 317), (711, 299), (671, 261)]",223.99137568933978,"[1, 7, 8, 3, 5, 2, 4, 6, 9]","(0, 0.25)",DOT006D,DOT,D,English,Tue Aug 28 13:00:05 2018,Mouse
1,3,4,0,40,3,3,1,420,120,300,132,0,500,200,8000,"[(960, 540), (960, 540), (960, 540), (960, 540), (960, 540), (960, 540), (960, 540), (960, 540), (960, 540), (960, 540), (960, 540), (958, 540), (955, 540), (951, 542), (943, 546), (938, 547), (931, 551), (923, 555), (906, 562), (896, 568), (887, 575), (877, 581), (856, 597), (847, 605), (838, 614), (827, 624), (806, 642), (796, 650), (785, 660), (774, 670), (759, 688), (750, 698), (741, 708), (733, 717), (717, 739), (710, 752), (705, 762), (698, 775), (687, 796), (680, 806), (676, 812), (671, 818)]",136.11141891041984,"[1, 7, 8, 3, 5, 2, 4, 6, 9]","(0, 0.25)",DOT006D,DOT,D,English,Tue Aug 28 13:00:05 2018,Mouse
1,3,4,0,41,6,5,0,-751,40,711,131,0,500,200,8000,"[(960, 540), (960, 540), (960, 540), (961, 539), (961, 539), (961, 539), (961, 539), (961, 538), (961, 538), (961, 537), (961, 537), (961, 537), (961, 537), (961, 537), (961, 537), (961, 537), (961, 537), (961, 537), (961, 537), (961, 537), (961, 537), (961, 537), (961, 537), (961, 537), (961, 537), (961, 537), (961, 537), (961, 537), (961, 537), (961, 537), (961, 537), (961, 537), (961, 537), (961, 537), (961, 537), (961, 537), (961, 537), (961, 537), (961, 537), (961, 537), (961, 537), (961, 537), (961, 537), (961, 537), (961, 537), (961, 537), (960, 536), (957, 533), (954, 532), (951, 532), (949, 532), (947, 532), (942, 532), (938, 532), (934, 532), (929, 532), (917, 532), (911, 532), (901, 534), (892, 535), (864, 537), (847, 541), (827, 541), (805, 541), (760, 541), (737, 541), (715, 541), (693, 541), (653, 541), (634, 541), (617, 541), (600, 541), (577, 541), (567, 541), (560, 541)]",179.85676084963168,"[1, 7, 8, 3, 5, 2, 4, 6, 9]","(0, 0.25)",DOT006D,DOT,D,English,Tue Aug 28 13:00:05 2018,Mouse
1,3,4,0,42,3,3,1,590,180,410,132,0,500,200,8000,"[(960, 540), (960, 540), (960, 540), (960, 540), (960, 540), (960, 540), (960, 540), (960, 540), (960, 540), (960, 540), (960, 540), (960, 540), (960, 540), (960, 540), (960, 540), (960, 540), (960, 540), (960, 539), (960, 539), (956, 540), (954, 541), (951, 541), (951, 541), (948, 542), (948, 542), (946, 543), (945, 543), (943, 543), (942, 543), (942, 543), (941, 543), (941, 543), (941, 543), (941, 543), (940, 543), (936, 543), (934, 543), (931, 543), (927, 543), (918, 547), (915, 549), (909, 551), (904, 555), (892, 563), (883, 570), (877, 576), (869, 585), (854, 608), (840, 628), (829, 645), (816, 662), (783, 703), (767, 725), (748, 744), (733, 764), (704, 791), (693, 804), (683, 814), (672, 824)]",135.40066325579215,"[1, 7, 8, 3, 5, 2, 4, 6, 9]","(0, 0.25)",DOT006D,DOT,D,English,Tue Aug 28 13:00:05 2018,Mouse
1,3,4,0,43,3,2,0,-671,471,200,132,0,500,200,8000,"[(960, 540), (960, 540), (960, 540), (960, 540), (960, 540), (960, 540), (960, 540), (960, 540), (960, 540), (960, 540), (960, 540), (960, 540), (960, 540), (960, 540), (960, 540), (960, 540), (960, 540), (960, 540), (960, 540), (960, 540), (960, 540), (960, 540), (960, 540), (960, 540), (960, 540), (960, 540), (960, 540), (960, 540), (960, 540), (960, 540), (960, 540), (960, 540), (960, 540), (960, 540), (960, 540), (960, 540), (960, 540), (960, 540), (960, 540), (960, 540), (960, 540), (960, 540), (960, 540), (960, 540), (960, 540), (960, 540), (960, 540), (958, 540), (949, 540), (943, 540), (936, 540), (931, 540), (926, 540), (922, 539), (915, 533), (908, 527), (882, 506), (861, 487), (838, 469), (815, 449), (776, 414), (761, 399), (743, 378), (726, 357), (695, 319), (684, 303), (669, 283), (658, 261)]",222.7330203297554,"[1, 7, 8, 3, 5, 2, 4, 6, 9]","(0, 0.25)",DOT006D,DOT,D,English,Tue Aug 28 13:00:05 2018,Mouse
1,3,4,0,44,4,5,0,-600,270,330,133,0,500,200,8000,"[(960, 540), (960, 540), (960, 540), (960, 540), (960, 540), (960, 540), (960, 540), (960, 540), (960, 540), (960, 540), (960, 540), (960, 540), (960, 540), (960, 540), (960, 540), (960, 540), (960, 540), (960, 540), (960, 540), (960, 540), (960, 540), (960, 540), (960, 540), (960, 540), (960, 540), (960, 540), (960, 542), (947, 550), (941, 552), (936, 553), (932, 553), (921, 554), (917, 554), (913, 554), (911, 554), (909, 554), (909, 554), (909, 554), (909, 554), (909, 554), (909, 554), (909, 554), (909, 554), (909, 554), (909, 554), (909, 554), (908, 554), (905, 554), (901, 554), (896, 553), (887, 551), (860, 547), (839, 544), (815, 540), (783, 536), (719, 536), (680, 536), (644, 536), (602, 536), (519, 536)]",180.51967535913516,"[1, 7, 8, 3, 5, 2, 4, 6, 9]","(0, 0.25)",DOT006D,DOT,D,English,Tue Aug 28 13:00:05 2018,Mouse
1,3,4,0,45,2,4,0,-1110,390,720,134,0,500,200,8000,"[(960, 540), (960, 540), (960, 540), (960, 540), (960, 540), (960, 540), (960, 540), (960, 540), (960, 540), (960, 540), (960, 540), (960, 540), (960, 540), (960, 540), (960, 540), (960, 540), (960, 540), (960, 540), (960, 540), (960, 540), (960, 540), (960, 540), (960, 540), (960, 540), (960, 540), (960, 540), (960, 540), (960, 540), (960, 540), (960, 540), (960, 540), (960, 540), (960, 540), (960, 540), (960, 540), (960, 540), (960, 540), (960, 540), (960, 539), (960, 539), (959, 538), (959, 538), (957, 534), (956, 531), (954, 529), (953, 526), (951, 523), (948, 520), (946, 519), (944, 517), (939, 515), (938, 514), (937, 514), (937, 514), (935, 514), (935, 514), (934, 514), (934, 514), (933, 514), (932, 515), (931, 515), (931, 515), (931, 516), (931, 516), (931, 516), (931, 516), (931, 516), (931, 516), (931, 516), (931, 516), (931, 516), (931, 516), (931, 517), (930, 518), (930, 518), (930, 518), (930, 518), (930, 518), (930, 518), (930, 518), (930, 518), (930, 518), (930, 518), (930, 518), (930, 518), (930, 515), (930, 505), (930, 497), (930, 489), (930, 479), (930, 461), (930, 452), (930, 441), (930, 430), (930, 406), (930, 394), (930, 380), (930, 368), (930, 341), (930, 328), (928, 316), (925, 304), (925, 275), (925, 262), (925, 245), (925, 232), (925, 196), (925, 179), (925, 164), (925, 149), (925, 124)]",265.19076788363554,"[1, 7, 8, 3, 5, 2, 4, 6, 9]","(0, 0.25)",DOT006D,DOT,D,English,Tue Aug 28 13:00:05 2018,Mouse
1,3,4,0,46,1,1,1,580,400,180,135,0,500,200,8000,"[(960, 540), (960, 540), (960, 540), (960, 540), (960, 540), (960, 540), (960, 540), (960, 540), (960, 540), (960, 540), (960, 540), (960, 540), (960, 540), (960, 540), (960, 540), (960, 540), (960, 540), (960, 540), (960, 540), (960, 540), (960, 540), (960, 540), (960, 540), (960, 540), (960, 540), (960, 540), (960, 540), (960, 540), (960, 540), (960, 540), (960, 540), (960, 540), (960, 540), (960, 540), (960, 540), (960, 540), (960, 540), (960, 540), (960, 540), (965, 543), (972, 545), (982, 549), (1000, 555), (1010, 557), (1023, 561), (1034, 565), (1061, 572), (1078, 576), (1094, 580), (1116, 586), (1158, 598), (1183, 606), (1214, 614), (1239, 622), (1286, 634), (1316, 641), (1338, 647), (1353, 652)]",15.906877735624326,"[1, 7, 8, 3, 5, 2, 4, 6, 9]","(0, 0.25)",DOT006D,DOT,D,English,Tue Aug 28 13:00:05 2018,Mouse
1,3,4,0,47,7,5,0,-1330,910,420,135,0,500,200,8000,"[(960, 540), (960, 540), (960, 540), (960, 540), (960, 540), (960, 540), (960, 540), (960, 540), (960, 540), (960, 540), (960, 540), (960, 540), (960, 540), (960, 540), (960, 540), (960, 540), (960, 540), (960, 540), (960, 540), (960, 540), (960, 540), (960, 540), (960, 540), (960, 540), (960, 540), (960, 540), (960, 540), (960, 540), (960, 540), (960, 540), (960, 540), (960, 540), (960, 540), (960, 540), (960, 540), (960, 540), (960, 540), (960, 540), (960, 540), (960, 540), (960, 540), (960, 540), (960, 540), (960, 540), (960, 540), (960, 540), (960, 540), (960, 540), (960, 540), (960, 540), (960, 540), (960, 540), (960, 540), (960, 540), (960, 540), (960, 540), (960, 540), (960, 540), (960, 540), (960, 540), (960, 540), (960, 540), (960, 540), (960, 540), (960, 540), (960, 540), (960, 540), (960, 540), (960, 540), (960, 540), (960, 540), (960, 540), (960, 540), (960, 540), (960, 540), (960, 540), (960, 540), (960, 540), (960, 540), (960, 540), (960, 540), (960, 540), (960, 540), (960, 540), (960, 540), (960, 540), (960, 540), (960, 540), (960, 540), (960, 540), (957, 540), (953, 540), (948, 540), (946, 540), (945, 540), (945, 540), (944, 540), (944, 540), (942, 539), (942, 539), (942, 539), (942, 539), (942, 539), (942, 539), (942, 539), (941, 538), (941, 538), (940, 538), (938, 537), (938, 536), (938, 536), (936, 536), (935, 536), (935, 536), (933, 536), (930, 536), (925, 536), (922, 536), (917, 536), (899, 536), (888, 536), (876, 536), (861, 536), (845, 536), (803, 536), (778, 536), (752, 536), (699, 536), (671, 536), (641, 536), (613, 536), (588, 536), (535, 536)]",180.5392384736423,"[1, 7, 8, 3, 5, 2, 4, 6, 9]","(0, 0.25)",DOT006D,DOT,D,English,Tue Aug 28 13:00:05 2018,Mouse
1,3,4,0,48,7,7,1,670,240,430,136,0,500,200,8000,"[(960, 540), (960, 540), (960, 540), (960, 540), (960, 540), (960, 540), (960, 540), (960, 540), (960, 540), (960, 540), (960, 540), (960, 540), (960, 540), (960, 540), (960, 540), (960, 540), (960, 540), (960, 540), (960, 540), (960, 540), (960, 540), (960, 540), (960, 540), (960, 542), (960, 543), (960, 551), (960, 555), (960, 558), (960, 562), (960, 567), (960, 569), (962, 573), (963, 574), (964, 577), (965, 578), (966, 579), (966, 579), (968, 581), (969, 583), (970, 584), (972, 589), (977, 597), (980, 602), (985, 612), (991, 620), (1003, 640), (1011, 650), (1017, 660), (1025, 671), (1043, 696), (1053, 709), (1059, 718), (1068, 729), (1086, 754), (1093, 765), (1102, 780), (1115, 798), (1132, 824), (1135, 833), (1139, 842), (1144, 850), (1151, 864), (1155, 870), (1158, 876), (1160, 880), (1163, 884), (1164, 886)]",59.47659518653704,"[1, 7, 8, 3, 5, 2, 4, 6, 9]","(0, 0.25)",DOT006D,DOT,D,English,Tue Aug 28 13:00:05 2018,Mouse
1,3,4,0,49,1,5,0,-681,141,540,136,0,500,200,8000,"[(960, 540), (960, 540), (960, 540), (960, 540), (960, 540), (960, 540), (960, 540), (960, 540), (960, 540), (960, 540), (960, 540), (960, 540), (960, 540), (960, 540), (958, 539), (956, 539), (953, 539), (952, 539), (946, 539), (941, 537), (935, 535), (929, 532), (913, 522), (903, 516), (890, 509), (878, 504), (854, 493), (838, 487), (827, 484), (817, 481), (805, 477), (802, 477), (801, 477), (798, 477), (798, 476), (798, 476), (798, 476), (798, 476), (798, 476), (798, 476), (798, 476), (798, 476), (798, 476), (798, 476), (797, 476), (794, 477), (792, 479), (792, 479), (791, 479), (789, 479), (788, 480), (788, 480), (788, 480), (788, 480), (785, 481), (783, 482), (779, 484), (774, 485), (761, 489), (754, 491), (745, 495), (737, 498), (713, 506), (700, 509), (683, 513), (662, 516), (609, 522), (583, 523), (555, 523)]",182.4035970377936,"[1, 7, 8, 3, 5, 2, 4, 6, 9]","(0, 0.25)",DOT006D,DOT,D,English,Tue Aug 28 13:00:05 2018,Mouse
1,3,4,0,50,1,5,0,-401,171,230,137,0,500,200,8000,"[(960, 540), (960, 540), (960, 540), (960, 540), (960, 540), (960, 540), (960, 540), (960, 540), (960, 540), (960, 540), (960, 540), (960, 540), (960, 540), (960, 540), (960, 540), (960, 540), (960, 540), (943, 540), (932, 540), (917, 540), (903, 540), (875, 540), (860, 540), (847, 540), (828, 540), (791, 540), (775, 540), (755, 540), (738, 540), (707, 540), (693, 540), (680, 540), (667, 540), (642, 540), (629, 540), (618, 540), (606, 540), (586, 540), (574, 540), (564, 540), (553, 540)]",180.0,"[1, 7, 8, 3, 5, 2, 4, 6, 9]","(0, 0.25)",DOT006D,DOT,D,English,Tue Aug 28 13:00:05 2018,Mouse
1,3,4,0,51,8,9,0,-521,141,380,138,0,500,200,8000,"[(960, 540), (960, 540), (960, 540), (960, 540), (960, 540), (960, 540), (960, 540), (960, 540), (960, 540), (960, 540), (960, 540), (960, 540), (960, 540), (960, 540), (961, 540), (961, 540), (961, 540), (962, 539), (963, 539), (964, 539), (966, 537), (968, 536), (969, 536), (972, 535), (980, 534), (982, 532), (985, 531), (992, 530), (1005, 526), (1017, 522), (1028, 517), (1041, 513), (1065, 502), (1078, 496), (1090, 492), (1102, 486), (1127, 479), (1137, 476), (1148, 473), (1156, 469), (1175, 466), (1184, 465), (1194, 464), (1204, 461), (1221, 455), (1228, 453), (1238, 449), (1251, 444), (1272, 432), (1287, 423), (1301, 414), (1319, 407), (1342, 395)]",339.21418204680066,"[1, 7, 8, 3, 5, 2, 4, 6, 9]","(0, 0.25)",DOT006D,DOT,D,English,Tue Aug 28 13:00:05 2018,Mouse
1,3,4,0,52,5,5,1,430,20,410,139,0,500,200,8000,"[(958, 540), (950, 543), (928, 545), (917, 545), (908, 545), (901, 545), (886, 545), (876, 545), (867, 545), (857, 545), (845, 545), (842, 545), (840, 545), (837, 547), (837, 547), (836, 547), (834, 548), (833, 548), (828, 549), (823, 551), (819, 552), (812, 552), (793, 554), (782, 556), (771, 556), (759, 556), (735, 556), (726, 556), (716, 556), (709, 556), (693, 556), (686, 556), (678, 556), (669, 555), (655, 552), (647, 552), (639, 551), (628, 550), (606, 546), (595, 545), (582, 545), (570, 545), (542, 545)]",179.31467647048592,"[1, 7, 8, 3, 5, 2, 4, 6, 9]","(0, 0.25)",DOT006D,DOT,D,English,Tue Aug 28 13:00:05 2018,Mouse
1,3,4,0,53,4,4,1,961,371,590,139,0,500,200,8000,"[(960, 540), (960, 540), (960, 540), (960, 540), (960, 540), (960, 540), (960, 540), (960, 540), (960, 540), (960, 540), (960, 540), (960, 540), (960, 540), (960, 540), (960, 540), (960, 540), (960, 540), (960, 540), (960, 540), (960, 540), (960, 540), (960, 540), (960, 540), (960, 540), (960, 540), (960, 540), (960, 540), (960, 540), (960, 540), (960, 540), (960, 540), (960, 540), (960, 540), (960, 540), (960, 540), (960, 540), (960, 540), (958, 540), (954, 538), (952, 538), (948, 537), (948, 537), (947, 536), (946, 536), (943, 532), (941, 531), (940, 528), (939, 527), (938, 524), (938, 524), (938, 524), (938, 524), (937, 522), (937, 522), (937, 522), (937, 522), (937, 522), (937, 522), (937, 522), (937, 522), (937, 522), (937, 522), (937, 522), (937, 522), (937, 522), (937, 522), (937, 522), (937, 522), (937, 522), (937, 522), (937, 522), (937, 522), (937, 522), (937, 522), (937, 522), (937, 522), (937, 522), (937, 521), (937, 518), (937, 516), (941, 502), (942, 494), (947, 482), (950, 470), (952, 441), (952, 425), (954, 404), (957, 381), (960, 332), (961, 303), (961, 275), (961, 247), (961, 202), (953, 182), (948, 162), (942, 143), (931, 110)]",266.1417086445345,"[1, 7, 8, 3, 5, 2, 4, 6, 9]","(0, 0.25)",DOT006D,DOT,D,English,Tue Aug 28 13:00:05 2018,Mouse
1,3,4,0,54,2,3,0,-630,120,510,138,0,500,200,8000,"[(960, 540), (960, 540), (960, 540), (960, 540), (960, 540), (960, 540), (960, 540), (960, 540), (960, 540), (960, 540), (960, 540), (960, 541), (958, 543), (953, 545), (951, 546), (951, 546), (950, 546), (950, 547), (950, 547), (948, 547), (948, 547), (948, 547), (947, 547), (947, 547), (947, 547), (946, 547), (945, 548), (945, 548), (944, 549), (938, 552), (934, 553), (929, 554), (923, 558), (910, 561), (903, 563), (897, 564), (891, 567), (882, 569), (879, 572), (876, 572), (875, 573), (871, 577), (868, 580), (867, 581), (866, 584), (863, 589), (862, 592), (859, 595), (857, 600), (849, 609), (846, 614), (843, 620), (838, 627), (827, 644), (821, 656), (815, 668), (809, 683), (792, 722), (779, 743), (765, 766), (746, 791), (708, 837), (688, 863)]",130.10090754621226,"[1, 7, 8, 3, 5, 2, 4, 6, 9]","(0, 0.25)",DOT006D,DOT,D,English,Tue Aug 28 13:00:05 2018,Mouse
1,3,4,0,55,5,5,1,480,170,310,139,0,500,200,8000,"[(960, 540), (960, 540), (960, 540), (960, 540), (960, 540), (960, 540), (960, 540), (960, 540), (960, 540), (960, 540), (960, 540), (960, 540), (960, 540), (960, 540), (960, 540), (960, 540), (958, 541), (956, 541), (956, 541), (955, 542), (955, 542), (953, 542), (951, 542), (950, 542), (948, 542), (945, 542), (942, 542), (941, 542), (939, 542), (932, 542), (927, 542), (922, 542), (915, 541), (894, 538), (883, 537), (871, 535), (853, 533), (820, 531), (805, 531), (786, 531), (764, 531), (722, 531), (699, 531), (677, 531), (649, 531), (602, 531), (576, 531), (557, 531)]",181.27934569237604,"[1, 7, 8, 3, 5, 2, 4, 6, 9]","(0, 0.25)",DOT006D,DOT,D,English,Tue Aug 28 13:00:05 2018,Mouse
1,3,4,0,56,3,3,1,451,41,410,139,0,500,200,8000,"[(960, 540), (960, 540), (960, 540), (960, 540), (961, 540), (961, 540), (961, 541), (961, 541), (961, 541), (961, 542), (961, 542), (961, 542), (961, 542), (961, 544), (961, 544), (961, 544), (961, 544), (961, 544), (960, 545), (960, 545), (960, 545), (960, 545), (959, 545), (958, 546), (955, 547), (952, 550), (947, 553), (945, 557), (940, 560), (930, 569), (921, 577), (910, 587), (900, 596), (879, 616), (869, 625), (858, 637), (847, 652), (819, 685), (800, 701), (780, 717), (760, 734), (729, 761), (717, 772), (699, 787), (687, 795), (665, 811)]",137.42804850510916,"[1, 7, 8, 3, 5, 2, 4, 6, 9]","(0, 0.25)",DOT006D,DOT,D,English,Tue Aug 28 13:00:05 2018,Mouse
1,3,4,0,57,8,9,0,-1451,1111,340,138,0,500,200,8000,"[(960, 540), (960, 540), (960, 540), (960, 540), (960, 540), (960, 540), (960, 540), (960, 540), (960, 540), (960, 540), (960, 540), (960, 540), (960, 540), (960, 540), (960, 540), (960, 540), (960, 540), (960, 540), (960, 540), (960, 540), (960, 540), (960, 540), (960, 540), (960, 540), (960, 540), (960, 540), (960, 540), (960, 540), (960, 540), (960, 540), (960, 540), (960, 540), (960, 540), (960, 540), (960, 540), (960, 540), (960, 540), (960, 540), (960, 540), (960, 540), (960, 540), (960, 540), (960, 540), (960, 540), (960, 540), (960, 540), (960, 540), (960, 540), (960, 540), (960, 540), (960, 540), (960, 540), (960, 540), (960, 540), (960, 540), (960, 540), (960, 540), (960, 540), (960, 540), (960, 540), (960, 540), (960, 540), (960, 540), (960, 540), (960, 540), (960, 540), (960, 540), (960, 540), (960, 540), (960, 540), (960, 540), (960, 540), (960, 540), (960, 540), (960, 540), (960, 540), (960, 540), (960, 540), (960, 540), (960, 540), (960, 540), (960, 540), (960, 540), (960, 540), (960, 540), (960, 540), (960, 540), (960, 540), (960, 540), (960, 540), (960, 540), (960, 540), (960, 540), (960, 540), (960, 540), (960, 540), (960, 540), (960, 540), (960, 540), (960, 540), (960, 540), (960, 540), (960, 540), (960, 540), (960, 540), (960, 540), (960, 540), (960, 540), (960, 540), (960, 540), (960, 540), (960, 539), (962, 535), (966, 532), (971, 528), (980, 522), (986, 520), (992, 517), (998, 515), (1008, 512), (1014, 510), (1022, 508), (1027, 506), (1038, 503), (1041, 502), (1050, 498), (1057, 497), (1073, 492), (1082, 490), (1092, 487), (1103, 484), (1123, 480), (1138, 474), (1146, 471), (1156, 469), (1180, 462), (1192, 457), (1206, 454), (1219, 450), (1247, 441), (1264, 435), (1276, 432), (1289, 429), (1317, 421), (1331, 416), (1343, 413)]",341.6548564005779,"[1, 7, 8, 3, 5, 2, 4, 6, 9]","(0, 0.25)",DOT006D,DOT,D,English,Tue Aug 28 13:00:05 2018,Mouse
1,3,4,0,58,2,2,1,430,20,410,139,0,500,200,8000,"[(949, 546), (940, 550), (932, 554), (923, 556), (906, 560), (898, 560), (891, 560), (883, 560), (876, 560), (874, 560), (871, 560), (869, 560), (865, 559), (862, 558), (860, 556), (858, 555), (845, 548), (836, 543), (826, 539), (816, 535), (790, 523), (780, 519), (769, 514), (760, 511), (745, 501), (739, 496), (735, 491), (732, 486), (727, 473), (724, 466), (719, 455), (716, 445), (711, 428), (706, 418), (703, 408), (700, 395), (692, 371), (686, 357), (680, 344), (674, 332), (660, 310), (651, 300), (645, 291)]",218.32553095288242,"[1, 7, 8, 3, 5, 2, 4, 6, 9]","(0, 0.25)",DOT006D,DOT,D,English,Tue Aug 28 13:00:05 2018,Mouse
1,3,4,0,59,6,7,0,-860,100,760,139,0,500,200,8000,"[(960, 540), (960, 540), (960, 540), (960, 540), (960, 540), (960, 540), (960, 540), (960, 540), (960, 540), (961, 540), (961, 540), (961, 540), (962, 540), (962, 540), (962, 540), (962, 540), (962, 540), (962, 540), (962, 540), (962, 540), (962, 540), (962, 540), (962, 540), (962, 540), (962, 540), (962, 540), (962, 540), (962, 540), (962, 540), (962, 540), (962, 540), (962, 540), (962, 540), (962, 540), (962, 540), (962, 540), (962, 540), (964, 540), (966, 541), (970, 543), (975, 546), (979, 550), (981, 556), (981, 559), (981, 563), (985, 579), (989, 586), (993, 596), (998, 607), (1012, 629), (1015, 638), (1019, 648), (1024, 658), (1030, 679), (1035, 690), (1036, 701), (1041, 711), (1045, 728), (1045, 735), (1046, 742), (1047, 749), (1052, 764), (1055, 770), (1056, 774), (1059, 780), (1061, 788), (1063, 792), (1066, 797), (1068, 801), (1075, 812), (1079, 818), (1085, 824), (1090, 829), (1102, 841), (1107, 846), (1114, 852), (1118, 855), (1125, 860), (1128, 862), (1132, 866), (1137, 869), (1143, 874), (1148, 879), (1152, 882), (1156, 886), (1164, 893)]",59.97622450411559,"[1, 7, 8, 3, 5, 2, 4, 6, 9]","(0, 0.25)",DOT006D,DOT,D,English,Tue Aug 28 13:00:05 2018,Mouse
1,3,4,0,60,9,9,1,1139,169,970,140,0,500,200,8000,"[(960, 540), (960, 540), (960, 540), (960, 540), (960, 540), (960, 540), (960, 540), (960, 540), (960, 540), (960, 540), (960, 540), (960, 540), (960, 540), (960, 540), (960, 540), (960, 540), (960, 539), (959, 538), (959, 538), (959, 538), (959, 538), (959, 538), (959, 538), (958, 538), (956, 538), (954, 538), (951, 538), (949, 539), (947, 539), (939, 543), (937, 544), (935, 546), (932, 547), (930, 549), (928, 550), (926, 551), (925, 552), (923, 553), (923, 554), (922, 554), (922, 554), (920, 556), (920, 556), (920, 556), (920, 556), (919, 557), (918, 558), (918, 558), (918, 559), (917, 560), (917, 560), (917, 561), (917, 561), (917, 562), (917, 562), (917, 562), (917, 562), (917, 562), (917, 562), (917, 563), (918, 564), (921, 565), (923, 566), (924, 567), (926, 568), (928, 570), (930, 570), (930, 570), (930, 571), (931, 572), (931, 572), (931, 572), (931, 572), (931, 572), (932, 572), (932, 572), (933, 572), (938, 570), (941, 568), (947, 563), (952, 558), (965, 546), (972, 539), (981, 531), (990, 522), (1008, 508), (1018, 502), (1028, 497), (1038, 491), (1058, 483), (1069, 480), (1084, 475), (1093, 473), (1117, 466), (1128, 462), (1137, 456), (1145, 452), (1162, 443), (1169, 439), (1176, 436), (1185, 433), (1201, 428), (1212, 425), (1221, 423), (1228, 420), (1248, 414), (1258, 412), (1266, 408), (1277, 404), (1295, 399), (1304, 397), (1313, 396), (1322, 394), (1339, 391)]",338.53823319904734,"[1, 7, 8, 3, 5, 2, 4, 6, 9]","(0, 0.25)",DOT006D,DOT,D,English,Tue Aug 28 13:00:05 2018,Mouse
1,3,4,0,61,4,4,1,870,180,690,140,0,500,200,8000,"[(960, 540), (960, 540), (960, 540), (960, 540), (960, 540), (960, 540), (960, 540), (960, 540), (960, 540), (960, 540), (960, 540), (960, 540), (960, 540), (960, 540), (960, 540), (960, 540), (960, 540), (959, 540), (956, 540), (954, 540), (952, 540), (951, 540), (950, 540), (949, 540), (948, 539), (946, 539), (940, 535), (934, 533), (926, 528), (921, 524), (906, 512), (901, 507), (894, 503), (889, 498), (883, 494), (881, 492), (878, 491), (878, 490), (877, 488), (876, 487), (875, 486), (875, 486), (875, 486), (875, 486), (875, 486), (875, 486), (875, 486), (875, 486), (875, 486), (875, 486), (875, 486), (875, 486), (875, 486), (875, 486), (875, 486), (875, 485), (875, 484), (875, 483), (875, 481), (875, 480), (875, 479), (875, 478), (875, 476), (875, 475), (875, 475), (875, 474), (875, 471), (875, 471), (875, 469), (875, 466), (875, 459), (875, 453), (875, 447), (875, 440), (875, 421), (874, 409), (874, 396), (873, 381), (866, 341), (862, 316), (860, 296), (857, 275), (853, 231), (853, 209), (853, 189), (855, 163), (863, 107)]",257.37315512018654,"[1, 7, 8, 3, 5, 2, 4, 6, 9]","(0, 0.25)",DOT006D,DOT,D,English,Tue Aug 28 13:00:05 2018,Mouse
1,3,4,0,62,9,9,1,600,120,480,139,0,500,200,8000,"[(960, 540), (960, 540), (960, 540), (960, 540), (960, 540), (960, 540), (960, 540), (960, 540), (960, 540), (960, 540), (960, 540), (961, 541), (961, 541), (961, 541), (961, 542), (961, 542), (961, 543), (961, 543), (961, 543), (961, 543), (961, 543), (961, 543), (961, 543), (961, 543), (961, 543), (961, 543), (963, 544), (965, 543), (968, 543), (971, 542), (983, 539), (988, 538), (994, 537), (1003, 535), (1015, 533), (1025, 532), (1035, 529), (1043, 528), (1063, 523), (1073, 521), (1080, 518), (1090, 512), (1111, 504), (1120, 500), (1130, 494), (1141, 490), (1163, 477), (1173, 472), (1183, 466), (1190, 461), (1213, 446), (1224, 438), (1231, 434), (1241, 428), (1260, 417), (1270, 412), (1281, 409), (1293, 403), (1320, 392), (1332, 387)]",337.6431086707057,"[1, 7, 8, 3, 5, 2, 4, 6, 9]","(0, 0.25)",DOT006D,DOT,D,English,Tue Aug 28 13:00:05 2018,Mouse
1,3,4,0,63,6,6,1,580,260,320,138,0,500,200,8000,"[(960, 540), (960, 540), (960, 540), (960, 540), (960, 540), (960, 540), (960, 540), (960, 540), (960, 540), (960, 540), (960, 540), (960, 540), (960, 540), (960, 540), (960, 540), (960, 540), (960, 540), (960, 540), (960, 540), (960, 540), (960, 540), (960, 540), (960, 540), (960, 540), (960, 540), (959, 534), (959, 531), (959, 526), (959, 520), (959, 508), (959, 499), (959, 491), (959, 483), (959, 464), (959, 454), (959, 447), (959, 437), (959, 416), (960, 404), (964, 393), (967, 381), (974, 359), (980, 346), (985, 335), (993, 320), (1010, 288), (1018, 272), (1026, 261), (1034, 251), (1049, 232), (1054, 221), (1062, 214), (1069, 206), (1083, 191), (1089, 184), (1097, 177), (1103, 173), (1118, 162)]",292.6844114241292,"[1, 7, 8, 3, 5, 2, 4, 6, 9]","(0, 0.25)",DOT006D,DOT,D,English,Tue Aug 28 13:00:05 2018,Mouse
1,3,4,0,64,5,5,1,558,109,449,137,0,500,200,8000,"[(960, 540), (960, 540), (960, 540), (960, 540), (960, 540), (960, 540), (960, 540), (960, 540), (960, 540), (960, 540), (960, 538), (960, 538), (960, 538), (960, 538), (960, 538), (960, 538), (960, 538), (960, 538), (960, 537), (960, 537), (960, 537), (960, 536), (960, 536), (960, 536), (960, 536), (959, 536), (959, 536), (957, 533), (956, 531), (956, 531), (955, 529), (950, 524), (947, 523), (943, 522), (937, 519), (927, 517), (921, 515), (914, 514), (906, 514), (885, 513), (873, 513), (861, 511), (846, 511), (819, 511), (805, 511), (789, 511), (772, 511), (727, 511), (702, 511), (679, 511), (654, 511), (621, 511), (605, 511), (588, 511), (574, 511), (536, 516)]",183.23970029610211,"[1, 7, 8, 3, 5, 2, 4, 6, 9]","(0, 0.25)",DOT006D,DOT,D,English,Tue Aug 28 13:00:05 2018,Mouse
1,3,4,0,65,1,1,1,531,161,370,136,0,500,200,8000,"[(960, 540), (960, 540), (960, 540), (960, 540), (960, 540), (960, 540), (960, 540), (960, 540), (960, 540), (960, 540), (960, 540), (960, 540), (960, 540), (960, 540), (960, 540), (960, 540), (962, 540), (965, 540), (966, 540), (968, 541), (971, 543), (974, 546), (982, 551), (996, 560), (1002, 563), (1008, 566), (1014, 571), (1028, 577), (1036, 579), (1045, 580), (1051, 580), (1065, 580), (1072, 580), (1080, 580), (1085, 580), (1099, 580), (1106, 580), (1113, 580), (1120, 580), (1136, 582), (1148, 584), (1161, 585), (1172, 588), (1196, 591), (1208, 596), (1221, 599), (1232, 602), (1261, 610), (1273, 615), (1285, 621), (1299, 627), (1323, 640), (1334, 644), (1349, 650)]",15.789648327998018,"[1, 7, 8, 3, 5, 2, 4, 6, 9]","(0, 0.25)",DOT006D,DOT,D,English,Tue Aug 28 13:00:05 2018,Mouse
1,3,4,0,66,3,3,1,659,79,580,135,0,500,200,8000,"[(960, 540), (960, 540), (960, 540), (960, 540), (960, 540), (960, 540), (960, 540), (959, 539), (958, 538), (958, 538), (955, 537), (950, 537), (948, 537), (947, 537), (944, 537), (935, 537), (932, 537), (928, 537), (924, 537), (914, 537), (909, 537), (904, 537), (896, 537), (886, 538), (880, 538), (876, 539), (871, 541), (862, 545), (860, 547), (856, 547), (853, 549), (851, 550), (851, 550), (851, 550), (851, 550), (849, 550), (849, 550), (849, 550), (849, 550), (849, 550), (849, 550), (848, 550), (848, 550), (848, 550), (846, 550), (846, 550), (846, 550), (845, 551), (845, 551), (844, 552), (843, 553), (840, 558), (840, 559), (838, 560), (836, 564), (825, 572), (815, 580), (799, 589), (781, 598), (742, 625), (722, 640), (701, 656), (681, 671), (642, 699), (621, 718), (604, 729)]",152.0362177109599,"[1, 7, 8, 3, 5, 2, 4, 6, 9]","(0, 0.25)",DOT006D,DOT,D,English,Tue Aug 28 13:00:05 2018,Mouse
1,3,4,0,67,6,4,0,-1009,79,930,134,0,500,200,8000,"[(960, 540), (960, 540), (960, 540), (960, 540), (960, 540), (960, 540), (960, 540), (961, 539), (963, 536), (965, 534), (966, 533), (967, 532), (970, 529), (972, 525), (974, 523), (975, 522), (979, 515), (979, 513), (980, 510), (980, 508), (982, 503), (982, 499), (982, 495), (982, 490), (983, 481), (984, 477), (984, 472), (986, 468), (986, 459), (986, 456), (986, 453), (986, 451), (986, 448), (986, 445), (986, 445), (986, 442), (986, 442), (986, 441), (986, 441), (986, 441), (986, 441), (986, 441), (986, 441), (986, 441), (986, 441), (986, 441), (986, 441), (986, 441), (986, 441), (986, 441), (986, 441), (986, 441), (986, 441), (986, 441), (986, 441), (986, 441), (979, 441), (968, 441), (949, 441), (936, 441), (921, 435), (916, 432), (915, 431), (912, 428), (899, 417), (891, 411), (881, 404), (871, 397), (856, 384), (850, 379), (842, 375), (840, 373), (836, 370), (835, 369), (835, 367), (835, 364), (835, 359), (839, 355), (844, 353), (850, 349), (869, 339), (876, 337), (883, 333), (891, 329), (902, 321), (909, 315), (913, 312), (921, 305), (931, 295), (936, 287), (941, 280), (946, 271), (953, 253), (957, 240), (958, 228), (958, 214), (958, 187), (955, 171), (950, 154), (948, 142), (943, 127)]",267.64290871141293,"[1, 7, 8, 3, 5, 2, 4, 6, 9]","(0, 0.25)",DOT006D,DOT,D,English,Tue Aug 28 13:00:05 2018,Mouse
1,3,4,0,68,7,5,0,-500,40,460,135,0,500,200,8000,"[(960, 540), (960, 540), (960, 540), (960, 541), (960, 543), (958, 544), (951, 547), (951, 548), (948, 548), (946, 549), (941, 551), (940, 551), (938, 552), (935, 553), (933, 554), (930, 555), (927, 556), (923, 557), (915, 559), (910, 560), (906, 560), (902, 561), (894, 563), (889, 563), (884, 564), (880, 565), (873, 565), (870, 565), (868, 565), (866, 567), (859, 568), (856, 568), (854, 568), (851, 568), (844, 568), (840, 568), (834, 568), (829, 568), (813, 568), (804, 567), (790, 565), (776, 561), (736, 554), (713, 552), (688, 546), (659, 543), (604, 538), (582, 538), (562, 538), (549, 538)]",180.27880937844472,"[1, 7, 8, 3, 5, 2, 4, 6, 9]","(0, 0.25)",DOT006D,DOT,D,English,Tue Aug 28 13:00:05 2018,Mouse
1,3,4,0,69,4,4,1,600,70,530,136,0,500,200,8000,"[(960, 540), (960, 540), (960, 540), (960, 540), (960, 540), (960, 540), (962, 540), (964, 539), (967, 537), (968, 536), (970, 534), (976, 528), (977, 527), (981, 523), (982, 522), (984, 517), (985, 517), (985, 515), (985, 513), (986, 509), (988, 504), (988, 501), (989, 498), (990, 489), (992, 484), (993, 478), (993, 470), (994, 454), (994, 447), (994, 439), (993, 431), (988, 416), (985, 410), (981, 404), (975, 398), (969, 388), (965, 383), (962, 380), (958, 372), (951, 362), (947, 356), (945, 349), (942, 343), (937, 325), (935, 316), (935, 308), (934, 298), (930, 276), (930, 267), (929, 256), (926, 245), (924, 226), (923, 217), (923, 209), (923, 202), (920, 182), (920, 171), (920, 163), (920, 154), (920, 135)]",264.35945056784317,"[1, 7, 8, 3, 5, 2, 4, 6, 9]","(0, 0.25)",DOT006D,DOT,D,English,Tue Aug 28 13:00:05 2018,Mouse
1,3,4,0,70,3,3,1,589,160,429,136,0,500,200,8000,"[(960, 540), (960, 540), (960, 540), (960, 540), (960, 540), (960, 540), (960, 540), (960, 540), (960, 540), (960, 540), (960, 540), (960, 540), (960, 540), (960, 540), (960, 540), (958, 542), (957, 545), (956, 545), (953, 551), (951, 554), (949, 556), (948, 558), (945, 561), (943, 564), (941, 566), (940, 568), (935, 573), (933, 575), (930, 578), (925, 583), (921, 587), (911, 597), (906, 603), (901, 610), (896, 617), (888, 629), (882, 637), (876, 645), (870, 651), (858, 662), (851, 670), (846, 674), (837, 682), (821, 693), (814, 698), (805, 705), (798, 712), (782, 728), (775, 735), (765, 747), (757, 756), (742, 773), (733, 781), (727, 786), (716, 793), (699, 804), (690, 808), (681, 812), (670, 817)]",136.31342973254178,"[1, 7, 8, 3, 5, 2, 4, 6, 9]","(0, 0.25)",DOT006D,DOT,D,English,Tue Aug 28 13:00:05 2018,Mouse
1,3,4,0,71,8,8,1,1611,191,1420,135,0,500,200,8000,"[(960, 540), (960, 540), (960, 540), (960, 540), (960, 540), (960, 540), (960, 540), (960, 540), (960, 540), (960, 540), (960, 540), (960, 540), (960, 540), (960, 540), (960, 540), (960, 540), (960, 540), (960, 540), (960, 540), (964, 538), (969, 535), (973, 534), (975, 533), (977, 532), (981, 530), (983, 530), (984, 529), (986, 528), (987, 528), (990, 527), (991, 526), (993, 525), (1001, 521), (1008, 519), (1012, 518), (1014, 516), (1019, 514), (1020, 512), (1023, 511), (1025, 509), (1027, 508), (1029, 506), (1030, 506), (1030, 506), (1031, 505), (1031, 505), (1031, 505), (1031, 505), (1031, 505), (1031, 505), (1031, 505), (1031, 505), (1031, 505), (1031, 505), (1031, 505), (1031, 505), (1031, 505), (1031, 505), (1031, 505), (1031, 505), (1031, 505), (1031, 505), (1031, 505), (1031, 505), (1031, 505), (1031, 505), (1031, 505), (1031, 505), (1031, 505), (1031, 505), (1031, 505), (1031, 505), (1031, 505), (1031, 505), (1031, 505), (1033, 505), (1033, 505), (1033, 505), (1034, 505), (1034, 505), (1035, 506), (1037, 507), (1037, 509), (1038, 510), (1038, 512), (1039, 513), (1040, 518), (1041, 519), (1045, 524), (1046, 525), (1047, 528), (1049, 531), (1050, 535), (1051, 536), (1053, 539), (1056, 546), (1057, 549), (1058, 553), (1061, 559), (1062, 562), (1063, 569), (1063, 571), (1065, 574), (1065, 575), (1065, 577), (1065, 578), (1065, 579), (1065, 579), (1065, 581), (1065, 581), (1065, 581), (1061, 583), (1059, 583), (1056, 584), (1052, 587), (1050, 588), (1040, 594), (1036, 598), (1029, 603), (1026, 607), (1016, 621), (1012, 628), (1006, 637), (1003, 644), (995, 665), (993, 676), (990, 689), (983, 711), (981, 721), (977, 732), (974, 743), (972, 752), (966, 772), (964, 781), (960, 791), (953, 809), (952, 812), (951, 819), (950, 827), (947, 843), (946, 849), (945, 856), (941, 866), (936, 879), (933, 885), (930, 890), (929, 894), (926, 903), (925, 908), (925, 909), (925, 912), (925, 913), (925, 914), (925, 915), (925, 916), (926, 919), (926, 921), (926, 923), (926, 925), (926, 933), (926, 937), (926, 939)]",94.87058101400055,"[1, 7, 8, 3, 5, 2, 4, 6, 9]","(0, 0.25)",DOT006D,DOT,D,English,Tue Aug 28 13:00:05 2018,Mouse
1,3,4,0,72,4,4,1,729,149,580,134,0,500,200,8000,"[(960, 540), (960, 540), (960, 540), (960, 540), (960, 540), (960, 540), (960, 540), (960, 540), (960, 540), (960, 540), (960, 540), (960, 540), (960, 540), (960, 540), (960, 538), (960, 532), (960, 525), (961, 521), (962, 516), (962, 512), (962, 500), (962, 494), (962, 488), (962, 483), (960, 470), (957, 462), (954, 453), (952, 444), (945, 431), (942, 425), (938, 420), (935, 416), (934, 412), (931, 410), (930, 406), (929, 404), (926, 401), (926, 400), (925, 400), (925, 399), (925, 399), (925, 399), (925, 399), (925, 399), (924, 399), (924, 399), (924, 396), (924, 394), (924, 389), (925, 385), (926, 380), (927, 376), (929, 367), (929, 366), (929, 364), (929, 362), (929, 359), (929, 358), (929, 355), (929, 352), (929, 345), (929, 341), (929, 335), (929, 328), (929, 309), (929, 301), (928, 291), (927, 278), (921, 244), (918, 226), (914, 202), (910, 173), (902, 117)]",262.1925269790747,"[1, 7, 8, 3, 5, 2, 4, 6, 9]","(0, 0.25)",DOT006D,DOT,D,English,Tue Aug 28 13:00:05 2018,Mouse
1,3,4,0,73,7,4,0,-360,150,210,133,0,500,200,8000,"[(960, 540), (960, 540), (960, 540), (960, 540), (960, 540), (960, 540), (960, 540), (960, 540), (960, 540), (960, 540), (960, 540), (960, 540), (960, 540), (960, 540), (960, 541), (960, 541), (960, 541), (960, 541), (961, 541), (961, 538), (961, 533), (961, 526), (959, 510), (958, 499), (956, 488), (953, 476), (950, 451), (947, 436), (944, 422), (940, 404), (916, 344), (904, 315), (893, 281), (878, 242), (861, 175), (858, 149)]",255.37912601136833,"[1, 7, 8, 3, 5, 2, 4, 6, 9]","(0, 0.25)",DOT006D,DOT,D,English,Tue Aug 28 13:00:05 2018,Mouse
1,3,4,0,74,2,3,0,-500,180,320,134,0,500,200,8000,"[(960, 540), (960, 540), (960, 540), (960, 540), (960, 540), (960, 540), (960, 540), (960, 540), (960, 540), (960, 540), (960, 540), (960, 540), (960, 540), (960, 540), (960, 540), (960, 540), (960, 540), (961, 542), (961, 542), (961, 543), (961, 543), (960, 547), (958, 550), (956, 553), (954, 556), (948, 564), (946, 567), (941, 572), (937, 578), (924, 592), (918, 600), (910, 609), (902, 616), (886, 637), (878, 646), (870, 656), (860, 666), (842, 687), (834, 696), (823, 708), (814, 718), (794, 736), (784, 744), (775, 753), (767, 759), (745, 778), (733, 787), (719, 799), (704, 810), (673, 830)]",134.70210435060736,"[1, 7, 8, 3, 5, 2, 4, 6, 9]","(0, 0.25)",DOT006D,DOT,D,English,Tue Aug 28 13:00:05 2018,Mouse
1,3,4,0,75,2,2,1,370,20,350,135,0,500,200,8000,"[(960, 540), (961, 540), (961, 540), (961, 540), (961, 540), (961, 540), (962, 539), (962, 539), (962, 538), (962, 536), (962, 532), (961, 529), (961, 527), (959, 524), (957, 517), (955, 513), (954, 511), (953, 508), (951, 501), (949, 495), (947, 489), (944, 483), (937, 469), (932, 463), (926, 456), (919, 447), (902, 429), (893, 421), (883, 412), (869, 400), (836, 370), (811, 353), (785, 336), (758, 319), (698, 286), (672, 276), (643, 262)]",221.24984278702246,"[1, 7, 8, 3, 5, 2, 4, 6, 9]","(0, 0.25)",DOT006D,DOT,D,English,Tue Aug 28 13:00:05 2018,Mouse
1,3,4,0,76,8,8,1,1630,1059,571,135,0,500,200,8000,"[(960, 540), (960, 540), (960, 540), (960, 540), (960, 540), (960, 540), (960, 540), (960, 540), (960, 540), (960, 540), (960, 540), (960, 540), (960, 540), (960, 540), (960, 540), (960, 540), (960, 540), (960, 540), (960, 540), (960, 540), (960, 540), (960, 540), (960, 540), (960, 540), (960, 540), (960, 540), (960, 540), (960, 540), (960, 540), (960, 540), (960, 540), (960, 540), (960, 540), (960, 540), (960, 540), (960, 540), (960, 540), (960, 540), (960, 540), (960, 540), (960, 540), (960, 540), (960, 540), (960, 540), (960, 540), (960, 540), (960, 540), (960, 540), (960, 540), (960, 540), (960, 540), (960, 540), (960, 540), (960, 540), (960, 540), (960, 540), (960, 540), (960, 540), (960, 540), (960, 540), (960, 540), (960, 540), (960, 540), (960, 540), (960, 540), (960, 540), (960, 540), (960, 540), (960, 540), (960, 540), (960, 540), (960, 540), (960, 540), (960, 540), (960, 540), (960, 540), (960, 540), (960, 540), (960, 540), (960, 540), (960, 540), (960, 540), (960, 540), (960, 540), (960, 540), (960, 540), (960, 540), (960, 540), (960, 540), (960, 540), (960, 540), (960, 540), (960, 540), (960, 540), (960, 540), (960, 540), (960, 540), (960, 540), (960, 540), (960, 540), (960, 540), (960, 540), (960, 540), (960, 540), (960, 540), (961, 540), (961, 540), (961, 540), (963, 541), (963, 541), (963, 542), (964, 544), (964, 544), (965, 546), (965, 547), (965, 548), (965, 548), (965, 548), (965, 548), (965, 549), (965, 550), (965, 551), (965, 552), (965, 554), (965, 555), (965, 558), (964, 561), (962, 565), (960, 569), (954, 576), (951, 582), (950, 586), (946, 597), (943, 616), (941, 629), (940, 641), (938, 655), (935, 678), (934, 690), (933, 703), (929, 714), (927, 735), (927, 745), (927, 756), (927, 766), (926, 788), (924, 797), (922, 809), (919, 818), (913, 838), (913, 848), (913, 855), (913, 864), (913, 883), (913, 891), (913, 900), (912, 907), (912, 918), (912, 923), (912, 926), (912, 929), (913, 936), (914, 939)]",96.57649414344473,"[1, 7, 8, 3, 5, 2, 4, 6, 9]","(0, 0.25)",DOT006D,DOT,D,English,Tue Aug 28 13:00:05 2018,Mouse
1,3,4,0,77,1,1,1,490,300,190,134,0,500,200,8000,"[(960, 540), (960, 540), (960, 540), (960, 540), (960, 540), (960, 540), (960, 540), (960, 540), (960, 540), (960, 540), (960, 540), (960, 540), (960, 540), (960, 540), (960, 540), (960, 540), (960, 540), (960, 540), (960, 540), (960, 540), (960, 540), (960, 540), (960, 540), (960, 540), (960, 540), (960, 540), (960, 540), (960, 540), (960, 540), (960, 541), (965, 543), (975, 544), (987, 546), (1015, 552), (1029, 557), (1043, 560), (1056, 563), (1085, 574), (1100, 582), (1118, 589), (1151, 604), (1170, 612), (1185, 618), (1203, 627), (1241, 642), (1261, 650), (1279, 656), (1299, 662), (1343, 674)]",19.283382369542917,"[1, 7, 8, 3, 5, 2, 4, 6, 9]","(0, 0.25)",DOT006D,DOT,D,English,Tue Aug 28 13:00:05 2018,Mouse
1,3,4,0,78,6,4,0,-771,461,310,133,0,500,200,8000,"[(960, 540), (960, 540), (960, 540), (960, 540), (960, 540), (960, 540), (960, 540), (960, 540), (960, 540), (960, 540), (960, 540), (960, 540), (960, 540), (960, 540), (960, 540), (960, 540), (960, 540), (960, 540), (960, 540), (960, 540), (960, 540), (960, 540), (960, 540), (960, 540), (960, 540), (960, 540), (960, 540), (960, 540), (960, 540), (960, 540), (960, 540), (960, 540), (960, 540), (960, 540), (960, 540), (960, 540), (960, 540), (960, 540), (960, 540), (960, 540), (960, 540), (960, 540), (960, 540), (960, 540), (960, 540), (960, 540), (960, 539), (960, 539), (960, 538), (960, 538), (960, 537), (960, 536), (960, 535), (960, 535), (960, 535), (960, 533), (960, 532), (960, 530), (960, 529), (960, 526), (960, 524), (961, 521), (963, 516), (963, 501), (963, 491), (963, 476), (962, 464), (956, 435), (953, 414), (950, 395), (950, 376), (948, 335), (943, 313), (940, 290), (937, 261), (929, 197), (925, 157), (925, 132)]",265.0969245236595,"[1, 7, 8, 3, 5, 2, 4, 6, 9]","(0, 0.25)",DOT006D,DOT,D,English,Tue Aug 28 13:00:05 2018,Mouse
1,3,4,0,79,6,6,1,811,231,580,134,0,500,200,8000,"[(960, 540), (960, 540), (960, 540), (960, 540), (960, 540), (960, 540), (960, 540), (960, 540), (960, 540), (960, 540), (960, 540), (960, 540), (960, 540), (960, 540), (960, 540), (960, 540), (960, 540), (960, 540), (960, 540), (960, 540), (960, 540), (960, 540), (960, 540), (960, 542), (959, 543), (959, 543), (958, 543), (958, 543), (958, 543), (958, 544), (958, 544), (958, 544), (958, 544), (958, 544), (958, 544), (958, 544), (958, 544), (958, 544), (958, 543), (959, 541), (960, 540), (964, 536), (968, 534), (971, 533), (976, 530), (985, 524), (989, 522), (995, 518), (1000, 514), (1011, 506), (1014, 502), (1017, 499), (1021, 495), (1029, 484), (1031, 481), (1035, 478), (1037, 476), (1040, 468), (1043, 466), (1043, 463), (1046, 456), (1051, 444), (1052, 438), (1053, 431), (1056, 425), (1060, 413), (1061, 408), (1063, 402), (1066, 394), (1072, 380), (1074, 370), (1078, 359), (1082, 346), (1090, 320), (1093, 307), (1099, 294), (1105, 283), (1119, 258), (1129, 245), (1138, 233), (1148, 221), (1171, 198)]",301.6728870330908,"[1, 7, 8, 3, 5, 2, 4, 6, 9]","(0, 0.25)",DOT006D,DOT,D,English,Tue Aug 28 13:00:05 2018,Mouse
1,3,4,0,80,1,1,1,450,90,360,134,0,500,200,8000,"[(960, 540), (960, 540), (960, 540), (960, 540), (960, 540), (960, 540), (960, 540), (960, 540), (960, 543), (960, 544), (960, 547), (960, 549), (960, 550), (960, 551), (960, 554), (963, 557), (965, 559), (967, 561), (982, 572), (990, 576), (999, 582), (1009, 586), (1028, 598), (1037, 602), (1049, 606), (1059, 611), (1087, 621), (1102, 628), (1113, 631), (1127, 634), (1153, 642), (1163, 646), (1176, 650), (1188, 654), (1214, 664), (1226, 669), (1238, 673), (1249, 676), (1271, 683), (1282, 686), (1292, 689), (1302, 691), (1318, 696), (1323, 697), (1330, 698)]",23.12379188836927,"[1, 7, 8, 3, 5, 2, 4, 6, 9]","(0, 0.25)",DOT006D,DOT,D,English,Tue Aug 28 13:00:05 2018,Mouse
1,3,4,0,81,7,6,0,-429,129,300,133,0,500,200,8000,"[(960, 540), (960, 540), (960, 540), (960, 540), (960, 540), (960, 540), (960, 540), (960, 540), (960, 540), (960, 540), (960, 540), (960, 540), (960, 538), (960, 538), (960, 538), (960, 537), (960, 530), (963, 524), (964, 520), (965, 513), (965, 502), (965, 495), (965, 484), (965, 470), (965, 441), (965, 428), (965, 412), (965, 395), (979, 345), (985, 320), (994, 299), (1002, 284), (1014, 253), (1020, 241), (1026, 228), (1032, 215), (1046, 193), (1051, 187), (1057, 178), (1063, 173), (1075, 164), (1084, 161), (1088, 158)]",288.524895027703,"[1, 7, 8, 3, 5, 2, 4, 6, 9]","(0, 0.25)",DOT006D,DOT,D,English,Tue Aug 28 13:00:05 2018,Mouse
1,3,4,0,82,8,6,0,-748,418,330,134,0,500,200,8000,"[(960, 540), (960, 540), (960, 540), (960, 540), (960, 540), (960, 540), (960, 540), (960, 540), (960, 540), (960, 540), (960, 540), (960, 540), (960, 540), (960, 540), (960, 540), (960, 540), (960, 540), (960, 540), (960, 540), (960, 540), (960, 540), (960, 540), (960, 540), (960, 540), (960, 540), (960, 540), (960, 540), (960, 540), (960, 540), (960, 540), (960, 540), (960, 540), (960, 540), (960, 540), (960, 540), (960, 540), (960, 540), (960, 540), (960, 540), (960, 540), (960, 540), (963, 535), (967, 532), (970, 528), (972, 525), (981, 508), (983, 498), (987, 486), (992, 474), (1001, 450), (1004, 439), (1010, 426), (1014, 414), (1020, 394), (1022, 384), (1026, 373), (1028, 362), (1033, 339), (1038, 328), (1040, 317), (1042, 305), (1047, 280), (1050, 270), (1054, 259), (1056, 250), (1060, 236), (1065, 228), (1068, 222), (1072, 217), (1084, 204), (1092, 198), (1099, 193), (1108, 186), (1124, 176), (1133, 171)]",295.1188129309561,"[1, 7, 8, 3, 5, 2, 4, 6, 9]","(0, 0.25)",DOT006D,DOT,D,English,Tue Aug 28 13:00:05 2018,Mouse
1,3,4,0,83,9,9,1,571,221,350,135,0,500,200,8000,"[(960, 540), (960, 540), (960, 540), (960, 540), (960, 540), (960, 540), (960, 540), (960, 540), (960, 540), (960, 540), (960, 540), (960, 540), (960, 540), (960, 540), (960, 540), (960, 540), (960, 540), (960, 540), (960, 540), (960, 540), (960, 540), (960, 540), (960, 542), (961, 542), (961, 542), (961, 542), (967, 541), (970, 537), (974, 533), (982, 529), (991, 521), (999, 518), (1005, 514), (1012, 510), (1026, 504), (1036, 499), (1042, 497), (1052, 493), (1072, 484), (1081, 481), (1094, 475), (1107, 469), (1134, 457), (1147, 451), (1159, 447), (1171, 441), (1195, 428), (1206, 424), (1218, 419), (1243, 413), (1255, 408), (1268, 406), (1277, 402), (1289, 400), (1310, 392), (1318, 390), (1324, 389), (1333, 386)]",337.5658050561984,"[1, 7, 8, 3, 5, 2, 4, 6, 9]","(0, 0.25)",DOT006D,DOT,D,English,Tue Aug 28 13:00:05 2018,Mouse
1,3,4,0,84,2,2,1,790,290,500,135,0,500,200,8000,"[(960, 540), (960, 540), (960, 540), (960, 540), (960, 540), (960, 540), (960, 540), (960, 540), (960, 540), (960, 540), (960, 540), (960, 540), (960, 540), (960, 540), (960, 540), (960, 540), (960, 540), (960, 540), (960, 540), (960, 540), (960, 540), (960, 540), (960, 540), (960, 540), (960, 540), (960, 540), (960, 540), (960, 540), (960, 539), (959, 538), (944, 538), (937, 538), (932, 538), (930, 538), (928, 538), (928, 538), (928, 538), (925, 538), (922, 537), (920, 535), (917, 533), (916, 533), (914, 531), (913, 531), (912, 530), (912, 530), (912, 530), (912, 530), (912, 530), (912, 530), (912, 530), (912, 530), (912, 530), (912, 530), (912, 530), (912, 530), (912, 530), (912, 530), (912, 530), (912, 530), (912, 530), (912, 530), (910, 529), (910, 525), (908, 523), (905, 519), (896, 503), (892, 495), (883, 484), (877, 475), (852, 444), (831, 424), (808, 406), (783, 389), (728, 355), (701, 340), (677, 325), (658, 315), (625, 296)]",216.06803030892576,"[1, 7, 8, 3, 5, 2, 4, 6, 9]","(0, 0.25)",DOT006D,DOT,D,English,Tue Aug 28 13:00:05 2018,Mouse
1,3,4,0,85,4,4,1,630,370,260,134,0,500,200,8000,"[(960, 540), (960, 540), (960, 540), (960, 540), (960, 540), (960, 540), (960, 540), (960, 540), (960, 540), (960, 540), (960, 540), (960, 540), (960, 540), (960, 540), (960, 540), (960, 540), (960, 540), (960, 540), (960, 540), (960, 540), (960, 540), (960, 540), (960, 540), (960, 540), (960, 540), (960, 540), (960, 540), (960, 540), (960, 540), (960, 540), (960, 540), (960, 540), (960, 540), (960, 540), (960, 540), (960, 540), (959, 540), (959, 540), (959, 540), (959, 540), (958, 540), (958, 540), (957, 540), (956, 539), (953, 538), (953, 537), (952, 532), (952, 529), (952, 525), (952, 518), (952, 499), (950, 485), (949, 470), (946, 453), (941, 411), (934, 381), (931, 352), (924, 319), (916, 263), (905, 227), (897, 199), (889, 171), (872, 115)]",258.3017152750314,"[1, 7, 8, 3, 5, 2, 4, 6, 9]","(0, 0.25)",DOT006D,DOT,D,English,Tue Aug 28 13:00:05 2018,Mouse
1,3,4,0,86,1,1,1,500,250,250,133,0,500,200,8000,"[(960, 540), (960, 540), (960, 540), (960, 540), (960, 540), (960, 540), (960, 540), (960, 540), (960, 540), (960, 540), (960, 540), (960, 540), (960, 540), (960, 540), (960, 540), (960, 540), (960, 540), (960, 540), (960, 540), (960, 540), (960, 540), (960, 540), (960, 540), (960, 540), (964, 540), (967, 540), (976, 540), (980, 540), (989, 543), (996, 544), (1011, 549), (1019, 551), (1026, 553), (1034, 555), (1049, 561), (1059, 564), (1070, 567), (1079, 572), (1102, 582), (1115, 588), (1130, 594), (1150, 603), (1195, 623), (1210, 629), (1233, 638), (1253, 645), (1292, 661), (1307, 667), (1321, 672), (1338, 677)]",19.922231300954746,"[1, 7, 8, 3, 5, 2, 4, 6, 9]","(0, 0.25)",DOT006D,DOT,D,English,Tue Aug 28 13:00:05 2018,Mouse
1,3,4,0,87,6,6,1,1120,750,370,132,0,500,200,8000,"[(960, 540), (960, 540), (960, 540), (960, 540), (960, 540), (960, 540), (960, 540), (960, 540), (960, 540), (960, 540), (960, 540), (960, 540), (960, 540), (960, 540), (960, 540), (960, 540), (960, 540), (960, 540), (960, 540), (960, 540), (960, 540), (960, 540), (960, 540), (960, 540), (960, 540), (960, 540), (960, 540), (960, 540), (960, 540), (960, 540), (960, 540), (960, 540), (960, 540), (960, 540), (960, 540), (960, 540), (960, 540), (960, 540), (960, 540), (960, 540), (960, 540), (960, 540), (960, 540), (960, 540), (960, 540), (960, 540), (960, 540), (960, 540), (960, 540), (960, 540), (960, 540), (960, 540), (960, 540), (960, 540), (960, 540), (960, 540), (960, 540), (960, 540), (960, 540), (960, 540), (960, 540), (960, 540), (960, 540), (960, 540), (960, 540), (960, 540), (960, 540), (960, 540), (960, 540), (960, 540), (960, 540), (960, 540), (960, 540), (960, 540), (960, 538), (960, 536), (960, 536), (960, 535), (960, 534), (961, 533), (962, 531), (962, 531), (962, 531), (962, 531), (962, 530), (962, 529), (962, 529), (964, 527), (965, 525), (966, 523), (966, 521), (968, 519), (970, 514), (971, 512), (972, 509), (979, 497), (985, 488), (989, 479), (994, 470), (1007, 447), (1016, 434), (1026, 415), (1038, 396), (1063, 357), (1080, 332), (1097, 311), (1107, 292), (1136, 251), (1149, 231), (1156, 221), (1164, 209), (1174, 194)]",301.7366712565937,"[1, 7, 8, 3, 5, 2, 4, 6, 9]","(0, 0.25)",DOT006D,DOT,D,English,Tue Aug 28 13:00:05 2018,Mouse
1,3,4,0,88,2,1,0,-489,279,210,131,0,500,200,8000,"[(960, 540), (960, 540), (960, 540), (960, 540), (960, 540), (960, 540), (960, 540), (960, 540), (960, 540), (960, 540), (960, 540), (960, 540), (960, 540), (960, 540), (960, 540), (960, 540), (960, 540), (960, 540), (960, 540), (960, 540), (960, 540), (960, 540), (960, 540), (960, 540), (960, 540), (960, 540), (960, 540), (960, 545), (964, 548), (966, 551), (971, 554), (976, 558), (979, 560), (984, 564), (988, 567), (1004, 575), (1014, 582), (1024, 590), (1034, 596), (1067, 610), (1085, 618), (1109, 629), (1137, 641), (1187, 662), (1221, 675), (1246, 681), (1271, 689), (1324, 705), (1347, 711)]",23.838740183171723,"[1, 7, 8, 3, 5, 2, 4, 6, 9]","(0, 0.25)",DOT006D,DOT,D,English,Tue Aug 28 13:00:05 2018,Mouse
