NativeLangNumber,LanuageNumber,SessionNumber,Block,TrialNum,ConditionNumber,Response,Accuracy,RT,MovementOnsetTime,TimeInMotion,SignalContrast,SignalContrastNumber,StimDisplayTime,MaskTime,MaxResponseTime,MousePositionXY,MouseAngle,WheelOrder,NoiseMuSigma,ParticipantID,LanuageTested,SessionTested,NativeLanuage,Date,ResponseDevice
1,0,2,0,1,7,7,1,679,479,200,153,0,500,200,8000,"[(960, 540), (960, 540), (960, 540), (960, 540), (960, 540), (960, 540), (960, 540), (960, 540), (960, 540), (960, 540), (960, 540), (960, 540), (960, 540), (960, 540), (960, 540), (960, 540), (960, 540), (960, 540), (960, 540), (960, 540), (960, 540), (960, 540), (960, 540), (960, 540), (960, 540), (960, 540), (960, 540), (960, 540), (960, 540), (960, 540), (960, 540), (960, 540), (960, 540), (960, 540), (960, 540), (960, 540), (960, 540), (960, 540), (960, 540), (960, 540), (960, 540), (960, 540), (960, 540), (960, 540), (960, 540), (960, 540), (960, 540), (959, 541), (959, 541), (959, 541), (959, 541), (959, 541), (959, 541), (959, 541), (959, 541), (959, 541), (959, 541), (958, 542), (955, 539), (942, 503), (928, 471), (913, 434), (896, 397), (867, 310), (849, 277), (835, 245), (827, 220), (816, 166)]",248.9419602117472,"[9, 2, 5, 1, 8, 6, 7, 4, 3]","(0, 0.25)",ENG002B,ENG,B,English,Tue Aug 07 11:19:09 2018,Mouse
1,0,2,0,2,2,2,1,399,319,80,153,0,500,200,8000,"[(960, 540), (960, 540), (960, 540), (960, 540), (960, 540), (960, 540), (960, 540), (960, 540), (960, 540), (960, 540), (960, 540), (960, 540), (960, 540), (960, 540), (960, 540), (960, 540), (960, 540), (960, 540), (960, 540), (960, 540), (960, 540), (960, 540), (960, 540), (960, 540), (960, 540), (960, 540), (960, 540), (960, 540), (960, 540), (960, 540), (960, 540), (962, 540), (962, 546), (963, 554), (965, 568), (982, 648), (996, 706), (1011, 774), (1029, 854), (1066, 994)]",76.85799889132785,"[9, 2, 5, 1, 8, 6, 7, 4, 3]","(0, 0.25)",ENG002B,ENG,B,English,Tue Aug 07 11:19:09 2018,Mouse
1,0,2,0,3,4,4,1,850,720,130,152,0,500,200,8000,"[(960, 540), (960, 540), (960, 540), (960, 540), (960, 540), (960, 540), (960, 540), (960, 540), (960, 540), (960, 540), (960, 540), (960, 540), (960, 540), (960, 540), (960, 540), (960, 540), (960, 540), (960, 540), (960, 540), (960, 540), (960, 540), (960, 540), (960, 540), (960, 540), (960, 540), (960, 540), (960, 540), (960, 540), (960, 540), (960, 540), (960, 540), (960, 540), (960, 540), (960, 540), (960, 540), (960, 540), (960, 540), (960, 540), (960, 540), (960, 540), (960, 540), (960, 540), (960, 540), (960, 540), (960, 540), (960, 540), (960, 540), (960, 540), (960, 540), (960, 540), (960, 540), (960, 540), (960, 540), (960, 540), (960, 540), (960, 540), (960, 540), (960, 540), (960, 540), (960, 540), (960, 540), (960, 540), (960, 540), (960, 540), (960, 540), (960, 540), (960, 540), (960, 540), (960, 540), (960, 540), (960, 540), (960, 539), (963, 537), (974, 525), (982, 514), (989, 501), (998, 478), (1027, 409), (1035, 365), (1045, 337), (1053, 307), (1071, 238), (1082, 199), (1092, 168), (1101, 149)]",289.8300040839034,"[9, 2, 5, 1, 8, 6, 7, 4, 3]","(0, 0.25)",ENG002B,ENG,B,English,Tue Aug 07 11:19:09 2018,Mouse
1,0,2,0,4,5,5,1,800,760,40,151,0,500,200,8000,"[(960, 540), (960, 540), (960, 540), (960, 540), (960, 540), (960, 540), (960, 540), (960, 540), (960, 540), (960, 540), (960, 540), (960, 540), (960, 540), (960, 540), (960, 540), (960, 540), (960, 540), (960, 540), (960, 540), (960, 540), (960, 540), (960, 540), (960, 540), (960, 540), (960, 540), (960, 540), (960, 540), (960, 540), (960, 540), (960, 540), (960, 540), (960, 540), (960, 540), (960, 540), (960, 540), (960, 540), (960, 540), (960, 540), (960, 540), (960, 540), (960, 540), (960, 540), (960, 540), (960, 540), (960, 540), (960, 540), (960, 540), (960, 540), (960, 540), (960, 540), (960, 540), (960, 540), (960, 540), (960, 540), (960, 540), (960, 540), (960, 540), (960, 540), (960, 540), (960, 540), (960, 540), (960, 540), (960, 540), (960, 540), (960, 540), (960, 540), (960, 540), (960, 540), (960, 540), (960, 540), (960, 540), (960, 540), (960, 540), (960, 540), (960, 540), (960, 565), (960, 610), (960, 687), (948, 777), (926, 948)]",94.76364169072617,"[9, 2, 5, 1, 8, 6, 7, 4, 3]","(0, 0.25)",ENG002B,ENG,B,English,Tue Aug 07 11:19:09 2018,Mouse
1,0,2,0,5,8,8,1,729,669,60,150,0,500,200,8000,"[(960, 540), (960, 540), (960, 540), (960, 540), (960, 540), (960, 540), (960, 540), (960, 540), (960, 540), (960, 540), (960, 540), (960, 540), (960, 540), (960, 540), (960, 540), (960, 540), (960, 540), (960, 540), (960, 540), (960, 540), (960, 540), (960, 540), (960, 540), (960, 540), (960, 540), (960, 540), (960, 540), (960, 540), (960, 540), (960, 540), (960, 540), (960, 540), (960, 540), (960, 540), (960, 540), (960, 540), (960, 540), (960, 540), (960, 540), (960, 540), (960, 540), (960, 540), (960, 540), (960, 540), (960, 540), (960, 540), (960, 540), (960, 540), (960, 540), (960, 540), (960, 540), (960, 540), (960, 540), (960, 540), (960, 540), (960, 540), (960, 540), (960, 540), (960, 540), (960, 540), (960, 540), (960, 540), (960, 540), (960, 540), (960, 540), (960, 540), (950, 545), (924, 551), (877, 551), (810, 551), (652, 553), (564, 553), (486, 553)]",178.42899058685614,"[9, 2, 5, 1, 8, 6, 7, 4, 3]","(0, 0.25)",ENG002B,ENG,B,English,Tue Aug 07 11:19:09 2018,Mouse
1,0,2,0,6,6,6,1,790,730,60,149,0,500,200,8000,"[(960, 540), (960, 540), (960, 540), (960, 540), (960, 540), (960, 540), (960, 540), (960, 540), (960, 540), (960, 540), (960, 540), (960, 540), (960, 540), (960, 540), (960, 540), (960, 540), (960, 540), (960, 540), (960, 540), (960, 540), (960, 540), (960, 540), (960, 540), (960, 540), (960, 540), (960, 540), (960, 540), (960, 540), (960, 540), (960, 540), (960, 540), (960, 540), (960, 540), (960, 540), (960, 540), (960, 540), (960, 540), (960, 540), (960, 540), (960, 540), (960, 540), (960, 540), (960, 540), (960, 540), (960, 540), (960, 540), (960, 540), (960, 540), (960, 540), (960, 540), (960, 540), (960, 540), (960, 540), (960, 540), (960, 540), (960, 540), (960, 540), (960, 540), (960, 540), (960, 540), (960, 540), (960, 540), (960, 540), (960, 540), (960, 540), (960, 540), (960, 540), (960, 540), (960, 540), (960, 540), (960, 540), (960, 540), (959, 534), (944, 509), (918, 477), (879, 429), (769, 339), (713, 298), (661, 267)]",222.3974377975002,"[9, 2, 5, 1, 8, 6, 7, 4, 3]","(0, 0.25)",ENG002B,ENG,B,English,Tue Aug 07 11:19:09 2018,Mouse
1,0,2,0,7,9,9,1,531,371,160,148,0,500,200,8000,"[(960, 540), (960, 540), (960, 540), (960, 540), (960, 540), (960, 540), (960, 540), (960, 540), (960, 540), (960, 540), (960, 540), (960, 540), (960, 540), (960, 540), (960, 540), (960, 540), (960, 540), (960, 540), (960, 540), (960, 540), (960, 540), (960, 540), (960, 540), (960, 540), (960, 540), (960, 540), (960, 540), (960, 540), (960, 540), (960, 540), (960, 540), (960, 540), (960, 540), (960, 540), (960, 540), (960, 540), (960, 540), (959, 541), (959, 541), (959, 541), (959, 541), (959, 541), (959, 541), (959, 541), (959, 541), (959, 541), (959, 542), (961, 545), (972, 549), (1051, 569), (1128, 589), (1234, 605), (1349, 624), (1582, 661)]",11.008471853890011,"[9, 2, 5, 1, 8, 6, 7, 4, 3]","(0, 0.25)",ENG002B,ENG,B,English,Tue Aug 07 11:19:09 2018,Mouse
1,0,2,0,8,9,9,1,278,228,50,147,0,500,200,8000,"[(960, 540), (960, 540), (960, 540), (960, 540), (960, 540), (960, 540), (960, 540), (960, 540), (960, 540), (960, 540), (960, 540), (960, 540), (960, 540), (960, 540), (960, 540), (960, 540), (960, 540), (960, 540), (960, 540), (960, 540), (960, 540), (960, 540), (962, 540), (970, 540), (991, 550), (1050, 571), (1135, 594), (1429, 657)]",14.007494960799116,"[9, 2, 5, 1, 8, 6, 7, 4, 3]","(0, 0.25)",ENG002B,ENG,B,English,Tue Aug 07 11:19:09 2018,Mouse
1,0,2,0,9,6,6,1,810,700,110,146,0,500,200,8000,"[(960, 540), (960, 540), (960, 540), (960, 540), (960, 540), (960, 540), (960, 540), (960, 540), (960, 540), (960, 540), (960, 540), (960, 540), (960, 540), (960, 540), (960, 540), (960, 540), (960, 540), (960, 540), (960, 540), (960, 540), (960, 540), (960, 540), (960, 540), (960, 540), (960, 540), (960, 540), (960, 540), (960, 540), (960, 540), (960, 540), (960, 540), (960, 540), (960, 540), (960, 540), (960, 540), (960, 540), (960, 540), (960, 540), (960, 540), (960, 540), (960, 540), (960, 540), (960, 540), (960, 540), (960, 540), (960, 540), (960, 540), (960, 540), (960, 540), (960, 540), (960, 540), (960, 540), (960, 540), (960, 540), (960, 540), (960, 540), (960, 540), (960, 540), (960, 540), (960, 540), (960, 540), (960, 540), (960, 540), (960, 540), (960, 540), (960, 540), (960, 540), (960, 540), (960, 540), (960, 541), (958, 541), (957, 541), (955, 541), (949, 541), (943, 533), (929, 515), (907, 482), (819, 392), (768, 352), (713, 312), (655, 280)]",220.44623202084136,"[9, 2, 5, 1, 8, 6, 7, 4, 3]","(0, 0.25)",ENG002B,ENG,B,English,Tue Aug 07 11:19:09 2018,Mouse
1,0,2,0,10,9,9,1,420,380,40,145,0,500,200,8000,"[(960, 540), (960, 540), (960, 540), (960, 540), (960, 540), (960, 540), (960, 540), (960, 540), (960, 540), (960, 540), (960, 540), (960, 540), (960, 540), (960, 540), (960, 540), (960, 540), (960, 540), (960, 540), (960, 540), (960, 540), (960, 540), (960, 540), (960, 540), (960, 540), (960, 540), (960, 540), (960, 540), (960, 540), (960, 540), (960, 540), (960, 540), (960, 540), (960, 540), (960, 540), (960, 540), (960, 540), (960, 540), (963, 540), (988, 550), (1132, 598), (1242, 617), (1374, 646)]",14.361414661813384,"[9, 2, 5, 1, 8, 6, 7, 4, 3]","(0, 0.25)",ENG002B,ENG,B,English,Tue Aug 07 11:19:09 2018,Mouse
1,0,2,0,11,8,8,1,730,670,60,144,0,500,200,8000,"[(960, 540), (960, 540), (960, 540), (960, 540), (960, 540), (960, 540), (960, 540), (960, 540), (960, 540), (960, 540), (960, 540), (960, 540), (960, 540), (960, 540), (960, 540), (960, 540), (960, 540), (960, 540), (960, 540), (960, 540), (960, 540), (960, 540), (960, 540), (960, 540), (960, 540), (960, 540), (960, 540), (960, 540), (960, 540), (960, 540), (960, 540), (960, 540), (960, 540), (960, 540), (960, 540), (960, 540), (960, 540), (960, 540), (960, 540), (960, 540), (960, 540), (960, 540), (960, 540), (960, 540), (960, 540), (960, 540), (960, 540), (960, 540), (960, 540), (960, 540), (960, 540), (960, 540), (960, 540), (960, 540), (960, 540), (960, 540), (960, 540), (960, 540), (960, 540), (960, 540), (960, 540), (960, 540), (960, 540), (960, 540), (960, 540), (960, 540), (960, 541), (951, 545), (904, 550), (840, 550), (765, 550), (674, 550), (470, 550)]",178.8308606720926,"[9, 2, 5, 1, 8, 6, 7, 4, 3]","(0, 0.25)",ENG002B,ENG,B,English,Tue Aug 07 11:19:09 2018,Mouse
1,0,2,0,12,5,5,1,480,390,90,143,0,500,200,8000,"[(960, 540), (960, 540), (960, 540), (960, 540), (960, 540), (960, 540), (960, 540), (960, 540), (960, 540), (960, 540), (960, 540), (960, 540), (960, 540), (960, 540), (960, 540), (960, 540), (960, 540), (960, 540), (960, 540), (960, 540), (960, 540), (960, 540), (960, 540), (960, 540), (960, 540), (960, 540), (960, 540), (960, 540), (960, 540), (960, 540), (960, 540), (960, 540), (960, 540), (960, 540), (960, 540), (960, 540), (960, 540), (960, 540), (961, 541), (961, 549), (961, 574), (961, 610), (958, 697), (954, 737), (949, 772), (941, 800), (922, 893), (903, 946)]",97.99175475942508,"[9, 2, 5, 1, 8, 6, 7, 4, 3]","(0, 0.25)",ENG002B,ENG,B,English,Tue Aug 07 11:19:09 2018,Mouse
1,0,2,0,13,1,1,1,561,501,60,142,0,500,200,8000,"[(960, 540), (960, 540), (960, 540), (960, 540), (960, 540), (960, 540), (960, 540), (960, 540), (960, 540), (960, 540), (960, 540), (960, 540), (960, 540), (960, 540), (960, 540), (960, 540), (960, 540), (960, 540), (960, 540), (960, 540), (960, 540), (960, 540), (960, 540), (960, 540), (960, 540), (960, 540), (960, 540), (960, 540), (960, 540), (960, 540), (960, 540), (960, 540), (960, 540), (960, 540), (960, 540), (960, 540), (960, 540), (960, 540), (960, 540), (960, 540), (960, 540), (960, 540), (960, 540), (960, 540), (960, 540), (960, 540), (960, 540), (960, 540), (960, 540), (960, 540), (960, 543), (950, 550), (932, 565), (906, 609), (824, 754), (775, 847), (727, 924)]",121.24815478195944,"[9, 2, 5, 1, 8, 6, 7, 4, 3]","(0, 0.25)",ENG002B,ENG,B,English,Tue Aug 07 11:19:09 2018,Mouse
1,0,2,0,14,4,4,1,628,558,70,141,0,500,200,8000,"[(960, 540), (960, 540), (960, 540), (960, 540), (960, 540), (960, 540), (960, 540), (960, 540), (960, 540), (960, 540), (960, 540), (960, 540), (960, 540), (960, 540), (960, 540), (960, 540), (960, 540), (960, 540), (960, 540), (960, 540), (960, 540), (960, 540), (960, 540), (960, 540), (960, 540), (960, 540), (960, 540), (960, 540), (960, 540), (960, 540), (960, 540), (960, 540), (960, 540), (960, 540), (960, 540), (960, 540), (960, 540), (960, 540), (960, 540), (960, 540), (960, 540), (960, 540), (960, 540), (960, 540), (960, 540), (960, 540), (960, 540), (960, 540), (960, 540), (960, 540), (960, 540), (960, 540), (960, 540), (960, 540), (960, 540), (961, 540), (962, 540), (975, 521), (994, 486), (1019, 432), (1042, 365), (1084, 221), (1106, 147)]",290.3800955843363,"[9, 2, 5, 1, 8, 6, 7, 4, 3]","(0, 0.25)",ENG002B,ENG,B,English,Tue Aug 07 11:19:09 2018,Mouse
1,0,2,0,15,1,1,1,360,300,60,140,0,500,200,8000,"[(960, 540), (960, 540), (960, 540), (960, 540), (960, 540), (960, 540), (960, 540), (960, 540), (960, 540), (960, 540), (960, 540), (960, 540), (960, 540), (960, 540), (960, 540), (960, 540), (960, 540), (960, 540), (960, 540), (960, 540), (960, 540), (960, 540), (960, 540), (960, 540), (960, 540), (960, 540), (960, 540), (960, 540), (960, 540), (956, 542), (942, 553), (915, 580), (881, 620), (764, 757), (690, 826), (612, 893)]",134.59133517900986,"[9, 2, 5, 1, 8, 6, 7, 4, 3]","(0, 0.25)",ENG002B,ENG,B,English,Tue Aug 07 11:19:09 2018,Mouse
1,0,2,0,16,1,1,1,250,130,120,139,0,500,200,8000,"[(960, 540), (960, 540), (960, 540), (960, 540), (960, 540), (960, 540), (960, 540), (960, 540), (960, 540), (960, 540), (960, 540), (960, 540), (960, 539), (960, 539), (960, 539), (955, 539), (952, 540), (946, 543), (938, 548), (902, 576), (862, 607), (817, 644), (766, 684), (650, 762), (598, 791)]",145.26371526297226,"[9, 2, 5, 1, 8, 6, 7, 4, 3]","(0, 0.25)",ENG002B,ENG,B,English,Tue Aug 07 11:19:09 2018,Mouse
1,0,2,0,17,7,7,1,600,560,40,138,0,500,200,8000,"[(960, 540), (960, 540), (960, 540), (960, 540), (960, 540), (960, 540), (960, 540), (960, 540), (960, 540), (960, 540), (960, 540), (960, 540), (960, 540), (960, 540), (960, 540), (960, 540), (960, 540), (960, 540), (960, 540), (960, 540), (960, 540), (960, 540), (960, 540), (960, 540), (960, 540), (960, 540), (960, 540), (960, 540), (960, 540), (960, 540), (960, 540), (960, 540), (960, 540), (960, 540), (960, 540), (960, 540), (960, 540), (960, 540), (960, 540), (960, 540), (960, 540), (960, 540), (960, 540), (960, 540), (960, 540), (960, 540), (960, 540), (960, 540), (960, 540), (960, 540), (960, 540), (960, 540), (960, 540), (960, 540), (960, 540), (961, 535), (961, 498), (961, 319), (955, 213), (935, 106)]",266.7031951195732,"[9, 2, 5, 1, 8, 6, 7, 4, 3]","(0, 0.25)",ENG002B,ENG,B,English,Tue Aug 07 11:19:09 2018,Mouse
1,0,2,0,18,7,7,1,240,180,60,137,0,500,200,8000,"[(961, 540), (961, 540), (961, 540), (961, 540), (961, 540), (961, 540), (961, 540), (961, 540), (961, 540), (961, 540), (961, 540), (961, 540), (961, 540), (961, 540), (961, 540), (961, 540), (961, 540), (961, 538), (961, 526), (961, 497), (961, 361), (958, 275), (945, 204), (921, 135)]",264.4995885297981,"[9, 2, 5, 1, 8, 6, 7, 4, 3]","(0, 0.25)",ENG002B,ENG,B,English,Tue Aug 07 11:19:09 2018,Mouse
1,0,2,0,19,3,3,1,659,549,110,136,0,500,200,8000,"[(960, 540), (960, 540), (960, 540), (960, 540), (960, 540), (960, 540), (960, 540), (960, 540), (960, 540), (960, 540), (960, 540), (960, 540), (960, 540), (960, 540), (960, 540), (960, 540), (960, 540), (960, 540), (960, 540), (960, 540), (960, 540), (960, 540), (960, 540), (960, 540), (960, 540), (960, 540), (960, 540), (960, 540), (960, 540), (960, 540), (960, 540), (960, 540), (960, 540), (960, 540), (960, 540), (960, 540), (960, 540), (960, 540), (960, 540), (960, 540), (960, 540), (960, 540), (960, 540), (960, 540), (960, 540), (960, 540), (960, 540), (960, 540), (960, 540), (960, 540), (960, 540), (960, 540), (960, 540), (960, 540), (961, 540), (964, 540), (967, 540), (971, 540), (978, 540), (1012, 535), (1041, 532), (1090, 524), (1145, 512), (1276, 469), (1343, 439), (1405, 411)]",343.8337794783726,"[9, 2, 5, 1, 8, 6, 7, 4, 3]","(0, 0.25)",ENG002B,ENG,B,English,Tue Aug 07 11:19:09 2018,Mouse
1,0,2,0,20,4,4,1,420,330,90,135,0,500,200,8000,"[(960, 540), (960, 540), (960, 540), (960, 540), (960, 540), (960, 540), (960, 540), (960, 540), (960, 540), (960, 540), (960, 540), (960, 540), (960, 540), (960, 540), (960, 540), (960, 540), (960, 540), (960, 540), (960, 540), (960, 540), (960, 540), (960, 540), (960, 540), (960, 540), (960, 540), (960, 540), (960, 540), (960, 540), (960, 540), (960, 540), (960, 540), (960, 540), (960, 535), (970, 523), (991, 506), (1011, 482), (1043, 437), (1065, 406), (1094, 367), (1123, 320), (1169, 228), (1191, 177)]",302.4711922908485,"[9, 2, 5, 1, 8, 6, 7, 4, 3]","(0, 0.25)",ENG002B,ENG,B,English,Tue Aug 07 11:19:09 2018,Mouse
1,0,2,0,21,1,1,1,619,429,190,134,0,500,200,8000,"[(960, 540), (960, 540), (960, 540), (960, 540), (960, 540), (960, 540), (960, 540), (960, 540), (960, 540), (960, 540), (960, 540), (960, 540), (960, 540), (960, 540), (960, 540), (960, 540), (960, 540), (960, 540), (960, 540), (960, 540), (960, 540), (960, 540), (960, 540), (960, 540), (960, 540), (960, 540), (960, 540), (960, 540), (960, 540), (960, 540), (960, 540), (960, 540), (960, 540), (960, 540), (960, 540), (960, 540), (960, 540), (960, 540), (960, 540), (960, 540), (960, 540), (960, 540), (957, 567), (954, 607), (946, 653), (938, 702), (927, 782), (924, 811), (919, 826), (912, 843), (900, 861), (895, 866), (889, 868), (883, 871), (867, 871), (850, 871), (828, 871), (808, 871), (776, 871), (759, 871), (748, 873), (731, 873)]",124.515824603471,"[9, 2, 5, 1, 8, 6, 7, 4, 3]","(0, 0.25)",ENG002B,ENG,B,English,Tue Aug 07 11:19:09 2018,Mouse
1,0,2,0,22,3,3,1,621,551,70,133,0,500,200,8000,"[(960, 540), (960, 540), (960, 540), (960, 540), (960, 540), (960, 540), (960, 540), (960, 540), (960, 540), (960, 540), (960, 540), (960, 540), (960, 540), (960, 540), (960, 540), (960, 540), (960, 540), (960, 540), (960, 540), (960, 540), (960, 540), (960, 540), (960, 540), (960, 540), (960, 540), (960, 540), (960, 540), (960, 540), (960, 540), (960, 540), (960, 540), (960, 540), (960, 540), (960, 540), (960, 540), (960, 540), (960, 540), (960, 540), (960, 540), (960, 540), (960, 540), (960, 540), (960, 540), (960, 540), (960, 540), (960, 540), (960, 540), (960, 540), (960, 540), (960, 540), (960, 540), (960, 540), (960, 540), (960, 540), (960, 540), (964, 538), (974, 534), (992, 528), (1021, 517), (1066, 497), (1209, 437), (1282, 411), (1353, 391)]",339.236535710569,"[9, 2, 5, 1, 8, 6, 7, 4, 3]","(0, 0.25)",ENG002B,ENG,B,English,Tue Aug 07 11:19:09 2018,Mouse
1,0,2,0,23,3,8,0,-929,729,200,132,0,500,200,8000,"[(960, 540), (960, 540), (960, 540), (960, 540), (960, 540), (960, 540), (960, 540), (960, 540), (960, 540), (960, 540), (960, 540), (960, 540), (960, 540), (960, 540), (960, 540), (960, 540), (960, 540), (960, 540), (960, 540), (960, 540), (960, 540), (960, 540), (960, 540), (960, 540), (960, 540), (960, 540), (960, 540), (960, 540), (960, 540), (960, 540), (960, 540), (960, 540), (960, 540), (960, 540), (960, 540), (960, 540), (960, 540), (960, 540), (960, 540), (960, 540), (960, 540), (960, 540), (960, 540), (960, 540), (960, 540), (960, 540), (960, 540), (960, 540), (960, 540), (960, 540), (960, 540), (960, 540), (960, 540), (960, 540), (960, 540), (960, 540), (960, 540), (960, 540), (960, 540), (960, 540), (960, 540), (960, 540), (960, 540), (960, 540), (960, 540), (960, 540), (960, 540), (960, 540), (960, 540), (960, 540), (960, 540), (960, 540), (959, 540), (959, 540), (959, 540), (959, 540), (959, 540), (958, 540), (958, 540), (957, 540), (956, 540), (956, 540), (954, 540), (950, 542), (945, 542), (935, 543), (922, 544), (853, 544), (798, 544), (737, 544), (676, 544), (562, 544), (510, 544)]",179.4907175950225,"[9, 2, 5, 1, 8, 6, 7, 4, 3]","(0, 0.25)",ENG002B,ENG,B,English,Tue Aug 07 11:19:09 2018,Mouse
1,0,2,0,24,9,1,0,-610,540,70,133,0,500,200,8000,"[(960, 540), (960, 540), (960, 540), (960, 540), (960, 540), (960, 540), (960, 540), (960, 540), (960, 540), (960, 540), (960, 540), (960, 540), (960, 540), (960, 540), (960, 540), (960, 540), (960, 540), (960, 540), (960, 540), (960, 540), (960, 540), (960, 540), (960, 540), (960, 540), (960, 540), (960, 540), (960, 540), (960, 540), (960, 540), (960, 540), (960, 540), (960, 540), (960, 540), (960, 540), (960, 540), (960, 540), (960, 540), (960, 540), (960, 540), (960, 540), (960, 540), (960, 540), (960, 540), (960, 540), (960, 540), (960, 540), (960, 540), (960, 540), (960, 540), (960, 540), (960, 540), (960, 540), (960, 540), (952, 545), (942, 551), (919, 563), (876, 582), (755, 631), (690, 664), (627, 701), (564, 738)]",153.434948822922,"[9, 2, 5, 1, 8, 6, 7, 4, 3]","(0, 0.25)",ENG002B,ENG,B,English,Tue Aug 07 11:19:09 2018,Mouse
1,0,2,0,25,9,3,0,-451,361,90,134,0,500,200,8000,"[(960, 540), (960, 540), (960, 540), (960, 540), (960, 540), (960, 540), (960, 540), (960, 540), (960, 540), (960, 540), (960, 540), (960, 540), (960, 540), (960, 540), (960, 540), (960, 540), (960, 540), (960, 540), (960, 540), (960, 540), (960, 540), (960, 540), (960, 540), (960, 540), (960, 540), (960, 540), (960, 540), (960, 540), (960, 540), (960, 540), (960, 540), (960, 540), (960, 540), (960, 540), (960, 540), (967, 538), (973, 535), (983, 530), (1000, 526), (1058, 513), (1102, 504), (1143, 492), (1196, 474), (1316, 410), (1377, 366)]",337.35087265434396,"[9, 2, 5, 1, 8, 6, 7, 4, 3]","(0, 0.25)",ENG002B,ENG,B,English,Tue Aug 07 11:19:09 2018,Mouse
1,0,2,0,26,5,1,0,-840,730,110,135,0,500,200,8000,"[(960, 540), (960, 540), (960, 540), (960, 540), (960, 540), (960, 540), (960, 540), (960, 540), (960, 540), (960, 540), (960, 540), (960, 540), (960, 540), (960, 540), (960, 540), (960, 540), (960, 540), (960, 540), (960, 540), (960, 540), (960, 540), (960, 540), (960, 540), (960, 540), (960, 540), (960, 540), (960, 540), (960, 540), (960, 540), (960, 540), (960, 540), (960, 540), (960, 540), (960, 540), (960, 540), (960, 540), (960, 540), (960, 540), (960, 540), (960, 540), (960, 540), (960, 540), (960, 540), (960, 540), (960, 540), (960, 540), (960, 540), (960, 540), (960, 540), (960, 540), (960, 540), (960, 540), (960, 540), (960, 540), (960, 540), (960, 540), (960, 540), (960, 540), (960, 540), (960, 540), (960, 540), (960, 540), (960, 540), (960, 540), (960, 540), (960, 540), (960, 540), (960, 540), (960, 540), (960, 540), (960, 540), (960, 540), (960, 541), (954, 543), (950, 545), (940, 549), (926, 555), (873, 589), (834, 616), (792, 648), (750, 678), (664, 738), (634, 758), (605, 779)]",146.05000525097242,"[9, 2, 5, 1, 8, 6, 7, 4, 3]","(0, 0.25)",ENG002B,ENG,B,English,Tue Aug 07 11:19:09 2018,Mouse
1,0,2,0,27,1,1,1,258,208,50,136,0,500,200,8000,"[(960, 540), (960, 540), (960, 540), (960, 540), (960, 540), (960, 540), (960, 540), (960, 540), (960, 540), (960, 540), (960, 540), (960, 540), (960, 540), (960, 540), (960, 540), (960, 540), (960, 540), (960, 540), (960, 540), (960, 540), (957, 546), (919, 601), (879, 654), (820, 722), (754, 790), (617, 909)]",132.90866764196667,"[9, 2, 5, 1, 8, 6, 7, 4, 3]","(0, 0.25)",ENG002B,ENG,B,English,Tue Aug 07 11:19:09 2018,Mouse
1,0,2,0,28,7,7,1,680,630,50,136,0,500,200,8000,"[(960, 540), (960, 540), (960, 540), (960, 540), (960, 540), (960, 540), (960, 540), (960, 540), (960, 540), (960, 540), (960, 540), (960, 540), (960, 540), (960, 540), (960, 540), (960, 540), (960, 540), (960, 540), (960, 540), (960, 540), (960, 540), (960, 540), (960, 540), (960, 540), (960, 540), (960, 540), (960, 540), (960, 540), (960, 540), (960, 540), (960, 540), (960, 540), (960, 540), (960, 540), (960, 540), (960, 540), (960, 540), (960, 540), (960, 540), (960, 540), (960, 540), (960, 540), (960, 540), (960, 540), (960, 540), (960, 540), (960, 540), (960, 540), (960, 540), (960, 540), (960, 540), (960, 540), (960, 540), (960, 540), (960, 540), (960, 540), (960, 540), (960, 540), (960, 540), (960, 540), (960, 540), (960, 540), (961, 539), (961, 525), (961, 481), (957, 414), (918, 200), (885, 87)]",260.59921995897616,"[9, 2, 5, 1, 8, 6, 7, 4, 3]","(0, 0.25)",ENG002B,ENG,B,English,Tue Aug 07 11:19:09 2018,Mouse
1,0,2,0,29,5,1,0,-361,301,60,135,0,500,200,8000,"[(960, 540), (960, 540), (960, 540), (960, 540), (960, 540), (960, 540), (960, 540), (960, 540), (960, 540), (960, 540), (960, 540), (960, 540), (960, 540), (960, 540), (960, 540), (960, 540), (960, 540), (960, 540), (960, 540), (960, 540), (960, 540), (960, 540), (960, 540), (960, 540), (960, 540), (960, 540), (960, 540), (960, 540), (960, 540), (960, 540), (958, 541), (949, 548), (923, 566), (824, 650), (756, 711), (670, 774), (574, 842)]",141.96096302624858,"[9, 2, 5, 1, 8, 6, 7, 4, 3]","(0, 0.25)",ENG002B,ENG,B,English,Tue Aug 07 11:19:09 2018,Mouse
1,0,2,0,30,2,2,1,970,900,70,136,0,500,200,8000,"[(960, 540), (960, 540), (960, 540), (960, 540), (960, 540), (960, 540), (960, 540), (960, 540), (960, 540), (960, 540), (960, 540), (960, 540), (960, 540), (960, 540), (960, 540), (960, 540), (960, 540), (960, 540), (960, 540), (960, 540), (960, 540), (960, 540), (960, 540), (960, 540), (960, 540), (960, 540), (960, 540), (960, 540), (960, 540), (960, 540), (960, 540), (960, 540), (960, 540), (960, 540), (960, 540), (960, 540), (960, 540), (960, 540), (960, 540), (960, 540), (960, 540), (960, 540), (960, 540), (960, 540), (960, 540), (960, 540), (960, 540), (960, 540), (960, 540), (960, 540), (960, 540), (960, 540), (960, 540), (960, 540), (960, 540), (960, 540), (960, 540), (960, 540), (960, 540), (960, 540), (960, 540), (960, 540), (960, 540), (960, 540), (960, 540), (960, 540), (960, 540), (960, 540), (960, 540), (960, 540), (960, 540), (960, 540), (960, 540), (960, 540), (960, 540), (960, 540), (960, 540), (960, 540), (960, 540), (960, 540), (960, 540), (960, 540), (960, 540), (960, 540), (960, 540), (960, 540), (960, 540), (960, 540), (960, 540), (961, 540), (962, 540), (969, 555), (976, 579), (988, 626), (1019, 696), (1099, 839), (1150, 908)]",62.69249647926145,"[9, 2, 5, 1, 8, 6, 7, 4, 3]","(0, 0.25)",ENG002B,ENG,B,English,Tue Aug 07 11:19:09 2018,Mouse
1,0,2,0,31,1,1,1,218,28,190,136,0,500,200,8000,"[(960, 540), (960, 540), (958, 539), (953, 539), (948, 539), (932, 542), (929, 543), (921, 546), (919, 546), (913, 547), (909, 548), (906, 549), (901, 551), (891, 557), (881, 565), (869, 576), (851, 593), (788, 657), (750, 698), (704, 739), (666, 780), (607, 835)]",140.11469645222687,"[9, 2, 5, 1, 8, 6, 7, 4, 3]","(0, 0.25)",ENG002B,ENG,B,English,Tue Aug 07 11:19:09 2018,Mouse
1,0,2,0,32,1,1,1,280,230,50,135,0,500,200,8000,"[(960, 540), (960, 540), (960, 540), (960, 540), (960, 540), (960, 540), (960, 540), (960, 540), (960, 540), (960, 540), (960, 540), (960, 540), (960, 540), (960, 540), (960, 540), (960, 540), (960, 540), (960, 540), (960, 540), (960, 540), (960, 540), (960, 540), (952, 554), (937, 570), (902, 612), (851, 679), (725, 836), (664, 903)]",129.19473163326384,"[9, 2, 5, 1, 8, 6, 7, 4, 3]","(0, 0.25)",ENG002B,ENG,B,English,Tue Aug 07 11:19:09 2018,Mouse
1,0,2,0,33,8,8,1,799,539,260,134,0,500,200,8000,"[(960, 540), (960, 540), (960, 540), (960, 540), (960, 540), (960, 540), (960, 540), (960, 540), (960, 540), (960, 540), (960, 540), (960, 540), (960, 540), (960, 540), (960, 540), (960, 540), (960, 540), (960, 540), (960, 540), (960, 540), (960, 540), (960, 540), (960, 540), (960, 540), (960, 540), (960, 540), (960, 540), (960, 540), (960, 540), (960, 540), (960, 540), (960, 540), (960, 540), (960, 540), (960, 540), (960, 540), (960, 540), (960, 540), (960, 540), (960, 540), (960, 540), (960, 540), (960, 540), (960, 540), (960, 540), (960, 540), (960, 540), (960, 540), (960, 540), (960, 540), (960, 540), (960, 540), (960, 540), (962, 539), (974, 536), (983, 534), (992, 532), (1001, 530), (1016, 528), (1019, 528), (1021, 528), (1021, 528), (1021, 528), (1021, 528), (1021, 528), (1021, 528), (1021, 528), (1021, 528), (1021, 528), (1021, 528), (1021, 528), (1021, 528), (1021, 528), (1020, 528), (987, 536), (950, 539), (884, 550), (807, 550), (630, 550), (533, 550)]",178.6584236964536,"[9, 2, 5, 1, 8, 6, 7, 4, 3]","(0, 0.25)",ENG002B,ENG,B,English,Tue Aug 07 11:19:09 2018,Mouse
1,0,2,0,34,1,1,1,259,179,80,133,0,500,200,8000,"[(960, 540), (960, 540), (960, 540), (960, 540), (960, 540), (960, 540), (960, 540), (960, 540), (960, 540), (960, 540), (960, 540), (960, 540), (960, 540), (960, 540), (960, 540), (960, 540), (960, 540), (957, 540), (954, 540), (950, 540), (940, 545), (879, 580), (818, 619), (755, 663), (685, 717), (535, 823)]",146.3410545673815,"[9, 2, 5, 1, 8, 6, 7, 4, 3]","(0, 0.25)",ENG002B,ENG,B,English,Tue Aug 07 11:19:09 2018,Mouse
1,0,2,0,35,2,2,1,1041,961,80,132,0,500,200,8000,"[(960, 540), (960, 540), (960, 540), (960, 540), (960, 540), (960, 540), (960, 540), (960, 540), (960, 540), (960, 540), (960, 540), (960, 540), (960, 540), (960, 540), (960, 540), (960, 540), (960, 540), (960, 540), (960, 540), (960, 540), (960, 540), (960, 540), (960, 540), (960, 540), (960, 540), (960, 540), (960, 540), (960, 540), (960, 540), (960, 540), (960, 540), (960, 540), (960, 540), (960, 540), (960, 540), (960, 540), (960, 540), (960, 540), (960, 540), (960, 540), (960, 540), (960, 540), (960, 540), (960, 540), (960, 540), (960, 540), (960, 540), (960, 540), (960, 540), (960, 540), (960, 540), (960, 540), (960, 540), (960, 540), (960, 540), (960, 540), (960, 540), (960, 540), (960, 540), (960, 540), (960, 540), (960, 540), (960, 540), (960, 540), (960, 540), (960, 540), (960, 540), (960, 540), (960, 540), (960, 540), (960, 540), (960, 540), (960, 540), (960, 540), (960, 540), (960, 540), (960, 540), (960, 540), (960, 540), (960, 540), (960, 540), (960, 540), (960, 540), (960, 540), (960, 540), (960, 540), (960, 540), (960, 540), (960, 540), (960, 540), (960, 540), (960, 540), (960, 540), (960, 540), (960, 540), (960, 540), (961, 539), (961, 539), (972, 554), (982, 579), (998, 624), (1014, 682), (1072, 804), (1099, 855), (1141, 909)]",63.87136090168718,"[9, 2, 5, 1, 8, 6, 7, 4, 3]","(0, 0.25)",ENG002B,ENG,B,English,Tue Aug 07 11:19:09 2018,Mouse
1,0,2,0,36,7,7,1,1450,1340,110,131,0,500,200,8000,"[(960, 540), (960, 540), (960, 540), (960, 540), (960, 540), (960, 540), (960, 540), (960, 540), (960, 540), (960, 540), (960, 540), (960, 540), (960, 540), (960, 540), (960, 540), (960, 540), (960, 540), (960, 540), (960, 540), (960, 540), (960, 540), (960, 540), (960, 540), (960, 540), (960, 540), (960, 540), (960, 540), (960, 540), (960, 540), (960, 540), (960, 540), (960, 540), (960, 540), (960, 540), (960, 540), (960, 540), (960, 540), (960, 540), (960, 540), (960, 540), (960, 540), (960, 540), (960, 540), (960, 540), (960, 540), (960, 540), (960, 540), (960, 540), (960, 540), (960, 540), (960, 540), (960, 540), (960, 540), (960, 540), (960, 540), (960, 540), (960, 540), (960, 540), (960, 540), (960, 540), (960, 540), (960, 540), (960, 540), (960, 540), (960, 540), (960, 540), (960, 540), (960, 540), (960, 540), (960, 540), (960, 540), (960, 540), (960, 540), (960, 540), (960, 540), (960, 540), (960, 540), (960, 540), (960, 540), (960, 540), (960, 540), (960, 540), (960, 540), (960, 540), (960, 540), (960, 540), (960, 540), (960, 540), (960, 540), (960, 540), (960, 540), (960, 540), (960, 540), (960, 540), (960, 540), (960, 540), (960, 540), (960, 540), (960, 540), (960, 540), (960, 540), (960, 540), (960, 540), (960, 540), (960, 540), (960, 540), (960, 540), (960, 540), (960, 540), (960, 540), (960, 540), (960, 540), (960, 540), (960, 540), (960, 540), (960, 540), (960, 540), (960, 540), (960, 540), (960, 540), (960, 540), (960, 540), (960, 540), (960, 540), (960, 540), (960, 540), (960, 540), (960, 540), (960, 540), (960, 540), (960, 540), (960, 540), (960, 540), (959, 540), (959, 540), (958, 540), (955, 535), (952, 524), (949, 504), (941, 458), (918, 330), (899, 266), (891, 207), (887, 156), (883, 61)]",260.8677413220064,"[9, 2, 5, 1, 8, 6, 7, 4, 3]","(0, 0.25)",ENG002B,ENG,B,English,Tue Aug 07 11:19:09 2018,Mouse
1,0,2,0,37,8,3,0,-661,170,491,130,0,500,200,8000,"[(960, 540), (960, 540), (960, 540), (960, 540), (960, 540), (960, 540), (960, 540), (960, 540), (960, 540), (960, 540), (960, 540), (960, 540), (960, 540), (960, 540), (960, 540), (960, 540), (960, 541), (960, 541), (960, 541), (960, 541), (960, 541), (960, 541), (960, 541), (960, 543), (960, 543), (960, 543), (960, 543), (960, 543), (960, 543), (960, 543), (960, 543), (960, 543), (960, 543), (960, 543), (960, 543), (960, 543), (960, 543), (960, 543), (960, 543), (960, 543), (960, 543), (960, 543), (960, 543), (960, 543), (960, 543), (960, 544), (960, 544), (960, 544), (960, 544), (960, 544), (960, 544), (960, 544), (960, 544), (960, 544), (960, 544), (960, 544), (960, 544), (960, 544), (960, 544), (961, 544), (965, 544), (980, 544), (1079, 532), (1175, 513), (1285, 485), (1412, 449)]",348.6169551290236,"[9, 2, 5, 1, 8, 6, 7, 4, 3]","(0, 0.25)",ENG002B,ENG,B,English,Tue Aug 07 11:19:09 2018,Mouse
1,0,2,0,38,7,1,0,-310,120,190,131,0,500,200,8000,"[(960, 540), (960, 540), (960, 540), (960, 540), (960, 540), (960, 540), (960, 540), (960, 540), (960, 540), (960, 540), (960, 540), (959, 540), (959, 540), (959, 540), (959, 540), (959, 540), (959, 540), (959, 540), (959, 540), (958, 540), (957, 540), (956, 540), (952, 541), (941, 544), (934, 547), (921, 553), (902, 567), (817, 654), (756, 727), (689, 803), (621, 871)]",135.68409620114198,"[9, 2, 5, 1, 8, 6, 7, 4, 3]","(0, 0.25)",ENG002B,ENG,B,English,Tue Aug 07 11:19:09 2018,Mouse
1,0,2,0,39,1,8,0,-629,249,380,132,0,500,200,8000,"[(960, 540), (960, 540), (960, 540), (960, 540), (960, 540), (960, 540), (960, 540), (960, 540), (960, 540), (960, 540), (960, 540), (960, 540), (960, 540), (960, 540), (960, 540), (960, 540), (960, 540), (960, 540), (960, 540), (960, 540), (960, 540), (960, 540), (960, 540), (960, 540), (967, 538), (976, 537), (983, 533), (989, 532), (991, 532), (991, 532), (991, 532), (991, 532), (991, 532), (991, 532), (991, 532), (991, 532), (991, 532), (991, 532), (991, 532), (991, 532), (991, 532), (991, 532), (991, 532), (991, 532), (991, 532), (991, 532), (991, 532), (991, 532), (991, 532), (991, 532), (991, 532), (991, 532), (991, 532), (991, 532), (991, 532), (991, 532), (991, 532), (991, 532), (972, 533), (918, 537), (755, 537), (656, 539), (551, 539)]",180.14008720132705,"[9, 2, 5, 1, 8, 6, 7, 4, 3]","(0, 0.25)",ENG002B,ENG,B,English,Tue Aug 07 11:19:09 2018,Mouse
1,0,2,0,40,2,2,1,609,389,220,133,0,500,200,8000,"[(960, 540), (960, 540), (960, 540), (960, 540), (960, 540), (960, 540), (960, 540), (960, 540), (960, 540), (960, 540), (960, 540), (960, 540), (960, 540), (960, 540), (960, 540), (960, 540), (960, 540), (960, 540), (960, 540), (960, 540), (960, 540), (960, 540), (960, 540), (960, 540), (960, 540), (960, 540), (960, 540), (960, 540), (960, 540), (960, 540), (960, 540), (960, 540), (960, 540), (960, 540), (960, 540), (960, 540), (960, 540), (960, 540), (960, 541), (960, 541), (960, 542), (960, 542), (960, 542), (960, 542), (960, 542), (960, 542), (960, 542), (960, 542), (960, 544), (960, 544), (960, 544), (961, 546), (963, 549), (965, 555), (970, 563), (972, 576), (981, 627), (988, 665), (1006, 718), (1032, 782), (1139, 917)]",64.60158265058995,"[9, 2, 5, 1, 8, 6, 7, 4, 3]","(0, 0.25)",ENG002B,ENG,B,English,Tue Aug 07 11:19:09 2018,Mouse
1,0,2,0,41,6,1,0,-379,19,360,133,0,500,200,8000,"[(960, 541), (959, 543), (959, 543), (959, 543), (959, 543), (958, 543), (958, 543), (958, 543), (958, 543), (958, 543), (958, 543), (958, 543), (958, 543), (958, 543), (958, 543), (958, 543), (958, 543), (958, 543), (958, 543), (958, 543), (958, 543), (958, 543), (958, 543), (958, 543), (958, 543), (958, 545), (958, 545), (958, 545), (958, 545), (956, 548), (953, 550), (946, 558), (937, 566), (891, 597), (852, 627), (796, 672), (728, 730), (594, 838)]",140.8472554412732,"[9, 2, 5, 1, 8, 6, 7, 4, 3]","(0, 0.25)",ENG002B,ENG,B,English,Tue Aug 07 11:19:09 2018,Mouse
1,0,2,0,42,1,1,1,190,120,70,134,0,500,200,8000,"[(960, 540), (960, 540), (960, 540), (960, 540), (960, 540), (960, 540), (960, 540), (960, 540), (960, 540), (960, 540), (960, 540), (961, 540), (959, 542), (948, 550), (908, 595), (868, 645), (821, 712), (768, 779), (639, 930)]",129.45700791249592,"[9, 2, 5, 1, 8, 6, 7, 4, 3]","(0, 0.25)",ENG002B,ENG,B,English,Tue Aug 07 11:19:09 2018,Mouse
1,0,2,0,43,3,3,1,480,300,180,134,0,500,200,8000,"[(960, 540), (960, 540), (960, 540), (960, 540), (960, 540), (960, 540), (960, 540), (960, 540), (960, 540), (960, 540), (960, 540), (960, 540), (960, 540), (960, 540), (960, 540), (960, 540), (960, 540), (960, 540), (960, 540), (960, 540), (960, 540), (960, 540), (960, 540), (960, 540), (960, 540), (960, 540), (960, 540), (960, 540), (960, 540), (959, 540), (959, 540), (958, 540), (958, 540), (958, 540), (958, 540), (958, 540), (958, 540), (958, 540), (958, 540), (961, 540), (977, 536), (1006, 524), (1077, 493), (1128, 473), (1171, 455), (1219, 435), (1305, 396), (1335, 376)]",336.37863790716347,"[9, 2, 5, 1, 8, 6, 7, 4, 3]","(0, 0.25)",ENG002B,ENG,B,English,Tue Aug 07 11:19:09 2018,Mouse
1,0,2,0,44,1,1,1,310,20,290,133,0,500,200,8000,"[(959, 542), (951, 548), (946, 554), (936, 566), (919, 584), (890, 614), (870, 629), (853, 639), (832, 649), (815, 656), (813, 656), (812, 656), (812, 656), (812, 656), (812, 656), (812, 656), (812, 656), (808, 660), (801, 672), (789, 689), (778, 704), (764, 724), (755, 733), (748, 738), (743, 742), (735, 748), (731, 751), (725, 762), (719, 773), (692, 833), (674, 881)]",129.98688624496418,"[9, 2, 5, 1, 8, 6, 7, 4, 3]","(0, 0.25)",ENG002B,ENG,B,English,Tue Aug 07 11:19:09 2018,Mouse
1,0,2,0,45,3,3,1,1188,1138,50,132,0,500,200,8000,"[(960, 540), (960, 540), (960, 540), (960, 540), (960, 540), (960, 540), (960, 540), (960, 540), (960, 540), (960, 540), (960, 540), (960, 540), (960, 540), (960, 540), (960, 540), (960, 540), (960, 540), (960, 540), (960, 540), (960, 540), (960, 540), (960, 540), (960, 540), (960, 540), (960, 540), (960, 540), (960, 540), (960, 540), (960, 540), (960, 540), (960, 540), (960, 540), (960, 540), (960, 540), (960, 540), (960, 540), (960, 540), (960, 540), (960, 540), (960, 540), (960, 540), (960, 540), (960, 540), (960, 540), (960, 540), (960, 540), (960, 540), (960, 540), (960, 540), (960, 540), (960, 540), (960, 540), (960, 540), (960, 540), (960, 540), (960, 540), (960, 540), (960, 540), (960, 540), (960, 540), (960, 540), (960, 540), (960, 540), (960, 540), (960, 540), (960, 540), (960, 540), (960, 540), (960, 540), (960, 540), (960, 540), (960, 540), (960, 540), (960, 540), (960, 540), (960, 540), (960, 540), (960, 540), (960, 540), (960, 540), (960, 540), (960, 540), (960, 540), (960, 540), (960, 540), (960, 540), (960, 540), (960, 540), (960, 540), (960, 540), (960, 540), (960, 540), (960, 540), (960, 540), (960, 540), (960, 540), (960, 540), (960, 540), (960, 540), (960, 540), (960, 540), (960, 540), (960, 540), (960, 540), (960, 540), (960, 540), (960, 540), (960, 540), (960, 540), (960, 540), (960, 540), (960, 540), (960, 540), (972, 538), (1042, 528), (1099, 515), (1168, 494), (1246, 469), (1397, 407)]",343.07248693585296,"[9, 2, 5, 1, 8, 6, 7, 4, 3]","(0, 0.25)",ENG002B,ENG,B,English,Tue Aug 07 11:19:09 2018,Mouse
1,0,2,0,46,8,1,0,-230,180,50,131,0,500,200,8000,"[(960, 540), (960, 540), (960, 540), (960, 540), (960, 540), (960, 540), (960, 540), (960, 540), (960, 540), (960, 540), (960, 540), (960, 540), (960, 540), (960, 540), (960, 540), (960, 540), (960, 540), (960, 541), (916, 588), (865, 647), (809, 723), (744, 801), (623, 931)]",130.75780720667709,"[9, 2, 5, 1, 8, 6, 7, 4, 3]","(0, 0.25)",ENG002B,ENG,B,English,Tue Aug 07 11:19:09 2018,Mouse
1,0,2,0,47,7,4,0,-428,208,220,132,0,500,200,8000,"[(960, 540), (960, 540), (960, 540), (960, 540), (960, 540), (960, 540), (960, 540), (960, 540), (960, 540), (960, 540), (960, 540), (960, 540), (960, 540), (960, 540), (960, 540), (960, 540), (960, 540), (960, 540), (960, 540), (960, 540), (959, 540), (959, 540), (959, 540), (959, 540), (959, 540), (959, 540), (959, 540), (959, 540), (959, 540), (959, 540), (959, 540), (959, 540), (959, 540), (959, 540), (959, 540), (959, 540), (959, 540), (963, 520), (983, 474), (1008, 418), (1031, 359), (1088, 221), (1110, 149)]",290.9883975628126,"[9, 2, 5, 1, 8, 6, 7, 4, 3]","(0, 0.25)",ENG002B,ENG,B,English,Tue Aug 07 11:19:09 2018,Mouse
1,0,2,0,48,3,3,1,481,421,60,133,0,500,200,8000,"[(960, 540), (960, 540), (960, 540), (960, 540), (960, 540), (960, 540), (960, 540), (960, 540), (960, 540), (960, 540), (960, 540), (960, 540), (960, 540), (960, 540), (960, 540), (960, 540), (960, 540), (960, 540), (960, 540), (960, 540), (960, 540), (960, 540), (960, 540), (960, 540), (960, 540), (960, 540), (960, 540), (960, 540), (960, 540), (960, 540), (960, 540), (960, 540), (960, 540), (960, 540), (960, 540), (960, 540), (960, 540), (960, 540), (960, 540), (960, 540), (960, 540), (960, 540), (961, 538), (969, 533), (995, 520), (1042, 502), (1207, 462), (1323, 426), (1442, 391)]",342.8221235928925,"[9, 2, 5, 1, 8, 6, 7, 4, 3]","(0, 0.25)",ENG002B,ENG,B,English,Tue Aug 07 11:19:09 2018,Mouse
1,0,2,0,49,5,3,0,-529,479,50,133,0,500,200,8000,"[(960, 540), (960, 540), (960, 540), (960, 540), (960, 540), (960, 540), (960, 540), (960, 540), (960, 540), (960, 540), (960, 540), (960, 540), (960, 540), (960, 540), (960, 540), (960, 540), (960, 540), (960, 540), (960, 540), (960, 540), (960, 540), (960, 540), (960, 540), (960, 540), (960, 540), (960, 540), (960, 540), (960, 540), (960, 540), (960, 540), (960, 540), (960, 540), (960, 540), (960, 540), (960, 540), (960, 540), (960, 540), (960, 540), (960, 540), (960, 540), (960, 540), (960, 540), (960, 540), (960, 540), (960, 540), (960, 540), (960, 540), (968, 540), (1012, 528), (1054, 509), (1113, 486), (1187, 448), (1334, 374)]",336.0659456531187,"[9, 2, 5, 1, 8, 6, 7, 4, 3]","(0, 0.25)",ENG002B,ENG,B,English,Tue Aug 07 11:19:09 2018,Mouse
1,0,2,0,50,2,2,1,570,470,100,134,0,500,200,8000,"[(960, 540), (960, 540), (960, 540), (960, 540), (960, 540), (960, 540), (960, 540), (960, 540), (960, 540), (960, 540), (960, 540), (960, 540), (960, 540), (960, 540), (960, 540), (960, 540), (960, 540), (960, 540), (960, 540), (960, 540), (960, 540), (960, 540), (960, 540), (960, 540), (960, 540), (960, 540), (960, 540), (960, 540), (960, 540), (960, 540), (960, 540), (960, 540), (960, 540), (960, 540), (960, 540), (960, 540), (960, 540), (960, 540), (960, 540), (960, 540), (960, 540), (960, 540), (960, 540), (960, 540), (960, 540), (960, 540), (960, 547), (960, 555), (966, 566), (977, 583), (1008, 631), (1029, 659), (1050, 694), (1071, 738), (1128, 828), (1161, 876), (1197, 916)]",57.77598382679746,"[9, 2, 5, 1, 8, 6, 7, 4, 3]","(0, 0.25)",ENG002B,ENG,B,English,Tue Aug 07 11:19:09 2018,Mouse
1,0,2,0,51,1,1,1,130,20,110,134,0,500,200,8000,"[(959, 540), (958, 540), (957, 540), (956, 540), (953, 540), (949, 542), (947, 543), (942, 545), (922, 558), (888, 589), (842, 632), (778, 703), (640, 855)]",135.4511385467873,"[9, 2, 5, 1, 8, 6, 7, 4, 3]","(0, 0.25)",ENG002B,ENG,B,English,Tue Aug 07 11:19:09 2018,Mouse
1,0,2,0,52,4,1,0,-199,149,50,133,0,500,200,8000,"[(960, 540), (960, 540), (960, 540), (960, 540), (960, 540), (960, 540), (960, 540), (960, 540), (960, 540), (960, 540), (960, 540), (960, 540), (960, 540), (960, 540), (956, 540), (934, 569), (901, 613), (858, 672), (805, 731), (686, 849)]",131.56441114226695,"[9, 2, 5, 1, 8, 6, 7, 4, 3]","(0, 0.25)",ENG002B,ENG,B,English,Tue Aug 07 11:19:09 2018,Mouse
1,0,2,0,53,5,2,0,-530,440,90,134,0,500,200,8000,"[(960, 540), (960, 540), (960, 540), (960, 540), (960, 540), (960, 540), (960, 540), (960, 540), (960, 540), (960, 540), (960, 540), (960, 540), (960, 540), (960, 540), (960, 540), (960, 540), (960, 540), (960, 540), (960, 540), (960, 540), (960, 540), (960, 540), (960, 540), (960, 540), (960, 540), (960, 540), (960, 540), (960, 540), (960, 540), (960, 540), (960, 540), (960, 540), (960, 540), (960, 540), (960, 540), (960, 540), (960, 540), (960, 540), (960, 540), (960, 540), (960, 540), (960, 540), (960, 540), (960, 542), (963, 551), (968, 563), (980, 611), (995, 653), (1018, 709), (1044, 751), (1109, 828), (1144, 863), (1182, 888)]",57.46493284206499,"[9, 2, 5, 1, 8, 6, 7, 4, 3]","(0, 0.25)",ENG002B,ENG,B,English,Tue Aug 07 11:19:09 2018,Mouse
1,0,2,0,54,2,2,1,240,150,90,135,0,500,200,8000,"[(960, 540), (960, 540), (960, 540), (960, 540), (960, 540), (960, 540), (960, 540), (960, 540), (960, 540), (960, 540), (960, 540), (960, 540), (960, 540), (960, 540), (960, 542), (960, 546), (971, 564), (982, 583), (999, 610), (1042, 697), (1070, 741), (1096, 787), (1118, 831), (1159, 899)]",60.99962757380748,"[9, 2, 5, 1, 8, 6, 7, 4, 3]","(0, 0.25)",ENG002B,ENG,B,English,Tue Aug 07 11:19:09 2018,Mouse
1,0,2,0,55,4,4,1,730,300,430,135,0,500,200,8000,"[(960, 540), (960, 540), (960, 540), (960, 540), (960, 540), (960, 540), (960, 540), (960, 540), (960, 540), (960, 540), (960, 540), (960, 540), (960, 540), (960, 540), (960, 540), (960, 540), (960, 540), (960, 540), (960, 540), (960, 540), (960, 540), (960, 540), (960, 540), (960, 540), (960, 540), (960, 540), (960, 540), (960, 540), (960, 540), (959, 541), (959, 541), (959, 542), (959, 542), (959, 542), (957, 543), (957, 544), (957, 544), (956, 544), (956, 544), (956, 544), (956, 544), (956, 544), (956, 544), (956, 544), (956, 544), (956, 544), (956, 544), (956, 544), (956, 544), (956, 544), (956, 544), (956, 544), (956, 544), (956, 544), (956, 544), (956, 544), (956, 544), (956, 544), (956, 544), (956, 544), (958, 544), (962, 542), (975, 529), (982, 522), (989, 509), (998, 485), (1018, 416), (1032, 366), (1043, 322), (1054, 280), (1078, 213), (1086, 185), (1094, 157)]",289.2833823695429,"[9, 2, 5, 1, 8, 6, 7, 4, 3]","(0, 0.25)",ENG002B,ENG,B,English,Tue Aug 07 11:19:09 2018,Mouse
1,0,2,0,56,4,4,1,178,128,50,134,0,500,200,8000,"[(960, 540), (960, 540), (960, 540), (960, 540), (960, 540), (960, 540), (960, 540), (960, 540), (960, 540), (960, 540), (960, 540), (960, 540), (977, 522), (1008, 475), (1043, 427), (1080, 364), (1152, 230), (1184, 170)]",301.1909392412187,"[9, 2, 5, 1, 8, 6, 7, 4, 3]","(0, 0.25)",ENG002B,ENG,B,English,Tue Aug 07 11:19:09 2018,Mouse
1,0,2,0,57,6,1,0,-651,501,150,133,0,500,200,8000,"[(960, 540), (960, 540), (960, 540), (960, 540), (960, 540), (960, 540), (960, 540), (960, 540), (960, 540), (960, 540), (960, 540), (960, 540), (960, 540), (960, 540), (960, 540), (960, 540), (960, 540), (960, 540), (960, 540), (960, 540), (960, 540), (960, 540), (960, 540), (960, 540), (960, 540), (960, 540), (960, 540), (960, 540), (960, 540), (960, 540), (960, 540), (960, 540), (960, 540), (960, 540), (960, 540), (960, 540), (960, 540), (960, 540), (960, 540), (960, 540), (960, 540), (960, 540), (960, 540), (960, 540), (960, 540), (960, 540), (960, 540), (960, 540), (960, 540), (960, 540), (958, 540), (958, 540), (958, 540), (958, 540), (958, 540), (958, 540), (958, 540), (956, 541), (951, 544), (944, 549), (935, 558), (917, 577), (828, 657), (769, 708), (702, 756), (639, 798)]",141.20982614718628,"[9, 2, 5, 1, 8, 6, 7, 4, 3]","(0, 0.25)",ENG002B,ENG,B,English,Tue Aug 07 11:19:09 2018,Mouse
1,0,2,0,58,7,2,0,-590,360,230,134,0,500,200,8000,"[(960, 540), (960, 540), (960, 540), (960, 540), (960, 540), (960, 540), (960, 540), (960, 540), (960, 540), (960, 540), (960, 540), (960, 540), (960, 540), (960, 540), (960, 540), (960, 540), (960, 540), (960, 540), (960, 540), (960, 540), (960, 540), (960, 540), (960, 540), (960, 540), (960, 540), (960, 540), (960, 540), (960, 540), (960, 540), (960, 540), (960, 540), (960, 540), (960, 540), (960, 540), (960, 540), (961, 540), (962, 540), (962, 540), (962, 540), (962, 540), (962, 540), (963, 540), (963, 540), (963, 540), (963, 540), (963, 541), (965, 543), (966, 544), (975, 556), (982, 569), (990, 585), (1004, 617), (1039, 700), (1055, 734), (1070, 771), (1092, 805), (1126, 850), (1145, 876), (1163, 896)]",60.307142701635854,"[9, 2, 5, 1, 8, 6, 7, 4, 3]","(0, 0.25)",ENG002B,ENG,B,English,Tue Aug 07 11:19:09 2018,Mouse
1,0,2,0,59,7,7,1,389,119,270,135,0,500,200,8000,"[(960, 540), (960, 540), (960, 540), (960, 540), (960, 540), (960, 540), (960, 540), (960, 540), (960, 540), (960, 540), (960, 540), (960, 541), (960, 541), (960, 541), (960, 541), (960, 541), (960, 541), (960, 541), (960, 541), (960, 541), (960, 541), (960, 541), (960, 541), (960, 541), (960, 541), (959, 541), (959, 541), (959, 541), (959, 541), (959, 541), (959, 541), (958, 541), (949, 533), (936, 502), (918, 449), (888, 392), (834, 258), (812, 183), (792, 108)]",248.74949449286675,"[9, 2, 5, 1, 8, 6, 7, 4, 3]","(0, 0.25)",ENG002B,ENG,B,English,Tue Aug 07 11:19:09 2018,Mouse
1,0,2,0,60,5,5,1,1449,549,900,135,0,500,200,8000,"[(960, 540), (960, 540), (960, 540), (960, 540), (960, 540), (960, 540), (960, 540), (960, 540), (960, 540), (960, 540), (960, 540), (960, 540), (960, 540), (960, 540), (960, 540), (960, 540), (960, 540), (960, 540), (960, 540), (960, 540), (960, 540), (960, 540), (960, 540), (960, 540), (960, 540), (960, 540), (960, 540), (960, 540), (960, 540), (960, 540), (960, 540), (960, 540), (960, 540), (960, 540), (960, 540), (960, 540), (960, 540), (960, 540), (960, 540), (960, 540), (960, 540), (960, 540), (960, 540), (960, 540), (960, 540), (960, 540), (960, 540), (960, 540), (960, 540), (960, 540), (960, 540), (960, 540), (960, 540), (960, 540), (953, 540), (928, 547), (916, 550), (908, 551), (898, 553), (887, 555), (873, 557), (872, 557), (869, 557), (868, 557), (868, 557), (868, 557), (868, 557), (868, 557), (868, 557), (868, 557), (868, 557), (868, 557), (868, 557), (868, 557), (868, 557), (868, 557), (868, 557), (868, 557), (868, 557), (868, 557), (868, 557), (868, 557), (868, 557), (868, 557), (868, 557), (868, 557), (868, 557), (868, 557), (868, 557), (868, 557), (868, 557), (868, 557), (868, 557), (868, 557), (868, 557), (868, 557), (868, 557), (868, 557), (868, 557), (868, 557), (868, 557), (868, 557), (868, 557), (868, 557), (868, 557), (868, 557), (868, 557), (868, 557), (868, 557), (868, 557), (868, 557), (868, 557), (868, 557), (868, 557), (868, 557), (868, 557), (868, 557), (868, 557), (868, 557), (868, 557), (868, 557), (868, 556), (868, 556), (870, 556), (872, 556), (873, 557), (876, 558), (881, 560), (882, 560), (883, 561), (885, 561), (889, 564), (890, 565), (892, 567), (894, 569), (898, 577), (899, 584), (900, 593), (901, 608), (901, 672), (901, 730), (901, 780), (901, 830), (901, 935), (901, 985)]",97.55247071353035,"[9, 2, 5, 1, 8, 6, 7, 4, 3]","(0, 0.25)",ENG002B,ENG,B,English,Tue Aug 07 11:19:09 2018,Mouse
1,0,2,0,61,1,1,1,339,279,60,134,0,500,200,8000,"[(960, 540), (960, 540), (960, 540), (960, 540), (960, 540), (960, 540), (960, 540), (960, 540), (960, 540), (960, 540), (960, 540), (960, 540), (960, 540), (960, 540), (960, 540), (960, 540), (960, 540), (960, 540), (960, 540), (960, 540), (960, 540), (960, 540), (960, 540), (960, 540), (960, 540), (960, 540), (960, 540), (958, 542), (942, 556), (884, 620), (842, 670), (787, 730), (734, 789), (648, 883)]",132.29031334321988,"[9, 2, 5, 1, 8, 6, 7, 4, 3]","(0, 0.25)",ENG002B,ENG,B,English,Tue Aug 07 11:19:09 2018,Mouse
1,0,2,0,62,8,8,1,1269,379,890,133,0,500,200,8000,"[(960, 540), (960, 540), (960, 540), (960, 540), (960, 540), (960, 540), (960, 540), (960, 540), (960, 540), (960, 540), (960, 540), (960, 540), (960, 540), (960, 540), (960, 540), (960, 540), (960, 540), (960, 540), (960, 540), (960, 540), (960, 540), (960, 540), (960, 540), (960, 540), (960, 540), (960, 540), (960, 540), (960, 540), (960, 540), (960, 540), (960, 540), (960, 540), (960, 540), (960, 540), (960, 540), (960, 540), (960, 540), (960, 541), (958, 541), (958, 541), (958, 541), (958, 541), (958, 541), (958, 541), (958, 541), (958, 541), (958, 541), (958, 541), (958, 541), (958, 541), (958, 541), (958, 541), (958, 541), (958, 541), (958, 541), (958, 541), (958, 541), (958, 541), (958, 541), (958, 541), (958, 541), (958, 541), (958, 541), (958, 541), (958, 541), (958, 541), (963, 543), (966, 543), (968, 544), (970, 545), (976, 547), (977, 547), (979, 547), (980, 547), (980, 548), (980, 548), (980, 548), (980, 548), (980, 548), (980, 548), (980, 548), (980, 548), (980, 548), (980, 548), (981, 548), (981, 550), (982, 550), (982, 552), (982, 553), (982, 554), (982, 557), (982, 559), (982, 559), (982, 560), (982, 562), (982, 564), (982, 567), (981, 569), (977, 574), (976, 574), (975, 574), (975, 574), (975, 574), (975, 574), (975, 574), (975, 574), (974, 574), (973, 574), (971, 574), (969, 574), (965, 574), (964, 574), (962, 574), (960, 574), (954, 573), (950, 573), (945, 572), (938, 571), (924, 569), (913, 568), (894, 564), (860, 564), (761, 552), (702, 552), (636, 552), (567, 550), (453, 550)]",178.87005224251914,"[9, 2, 5, 1, 8, 6, 7, 4, 3]","(0, 0.25)",ENG002B,ENG,B,English,Tue Aug 07 11:19:09 2018,Mouse
1,0,2,0,63,8,3,0,-521,451,70,132,0,500,200,8000,"[(960, 540), (960, 540), (960, 540), (960, 540), (960, 540), (960, 540), (960, 540), (960, 540), (960, 540), (960, 540), (960, 540), (960, 540), (960, 540), (960, 540), (960, 540), (960, 540), (960, 540), (960, 540), (960, 540), (960, 540), (960, 540), (960, 540), (960, 540), (960, 540), (960, 540), (960, 540), (960, 540), (960, 540), (960, 540), (960, 540), (960, 540), (960, 540), (960, 540), (960, 540), (960, 540), (960, 540), (960, 540), (960, 540), (960, 540), (960, 540), (960, 540), (960, 540), (960, 540), (960, 540), (960, 540), (962, 540), (972, 540), (1013, 529), (1050, 512), (1111, 491), (1162, 473), (1297, 436), (1361, 415)]",342.68666260268344,"[9, 2, 5, 1, 8, 6, 7, 4, 3]","(0, 0.25)",ENG002B,ENG,B,English,Tue Aug 07 11:19:09 2018,Mouse
1,0,2,0,64,6,6,1,148,38,110,133,0,500,200,8000,"[(960, 540), (960, 540), (960, 540), (958, 540), (956, 540), (951, 540), (931, 540), (917, 539), (896, 529), (866, 512), (772, 448), (719, 410), (664, 376), (614, 347), (527, 298)]",209.20045166611945,"[9, 2, 5, 1, 8, 6, 7, 4, 3]","(0, 0.25)",ENG002B,ENG,B,English,Tue Aug 07 11:19:09 2018,Mouse
1,0,2,0,65,4,4,1,350,290,60,133,0,500,200,8000,"[(960, 540), (960, 540), (960, 540), (960, 540), (960, 540), (960, 540), (960, 540), (960, 540), (960, 540), (960, 540), (960, 540), (960, 540), (960, 540), (960, 540), (960, 540), (960, 540), (960, 540), (960, 540), (960, 540), (960, 540), (960, 540), (960, 540), (960, 540), (960, 540), (960, 540), (960, 540), (960, 540), (960, 540), (961, 540), (972, 524), (1021, 430), (1053, 370), (1090, 304), (1122, 241), (1190, 113)]",298.30875685232684,"[9, 2, 5, 1, 8, 6, 7, 4, 3]","(0, 0.25)",ENG002B,ENG,B,English,Tue Aug 07 11:19:09 2018,Mouse
1,0,2,0,66,6,3,0,-891,831,60,132,0,500,200,8000,"[(960, 540), (960, 540), (960, 540), (960, 540), (960, 540), (960, 540), (960, 540), (960, 540), (960, 540), (960, 540), (960, 540), (960, 540), (960, 540), (960, 540), (960, 540), (960, 540), (960, 540), (960, 540), (960, 540), (960, 540), (960, 540), (960, 540), (960, 540), (960, 540), (960, 540), (960, 540), (960, 540), (960, 540), (960, 540), (960, 540), (960, 540), (960, 540), (960, 540), (960, 540), (960, 540), (960, 540), (960, 540), (960, 540), (960, 540), (960, 540), (960, 540), (960, 540), (960, 540), (960, 540), (960, 540), (960, 540), (960, 540), (960, 540), (960, 540), (960, 540), (960, 540), (960, 540), (960, 540), (960, 540), (960, 540), (960, 540), (960, 540), (960, 540), (960, 540), (960, 540), (960, 540), (960, 540), (960, 540), (960, 540), (960, 540), (960, 540), (960, 540), (960, 540), (960, 540), (960, 540), (960, 540), (960, 540), (960, 540), (960, 540), (960, 540), (960, 540), (960, 540), (960, 540), (960, 540), (960, 540), (960, 540), (960, 540), (960, 540), (983, 534), (1004, 527), (1048, 513), (1101, 497), (1235, 474), (1311, 463), (1378, 454)]",348.37410135669137,"[9, 2, 5, 1, 8, 6, 7, 4, 3]","(0, 0.25)",ENG002B,ENG,B,English,Tue Aug 07 11:19:09 2018,Mouse
1,0,2,0,67,3,8,0,-449,349,100,133,0,500,200,8000,"[(960, 540), (960, 540), (960, 540), (960, 540), (960, 540), (960, 540), (960, 540), (960, 540), (960, 540), (960, 540), (960, 540), (960, 540), (960, 540), (960, 540), (960, 540), (960, 540), (960, 540), (960, 540), (960, 540), (960, 540), (960, 540), (960, 540), (960, 540), (960, 540), (960, 540), (960, 540), (960, 540), (960, 540), (960, 540), (960, 540), (960, 540), (960, 540), (960, 540), (960, 540), (959, 540), (958, 543), (955, 543), (952, 544), (944, 545), (912, 550), (878, 552), (826, 552), (756, 552), (618, 552), (546, 552)]",178.33971763101718,"[9, 2, 5, 1, 8, 6, 7, 4, 3]","(0, 0.25)",ENG002B,ENG,B,English,Tue Aug 07 11:19:09 2018,Mouse
1,0,2,0,68,5,8,0,-780,510,270,134,0,500,200,8000,"[(960, 540), (960, 540), (960, 540), (960, 540), (960, 540), (960, 540), (960, 540), (960, 540), (960, 540), (960, 540), (960, 540), (960, 540), (960, 540), (960, 540), (960, 540), (960, 540), (960, 540), (960, 540), (960, 540), (960, 540), (960, 540), (960, 540), (960, 540), (960, 540), (960, 540), (960, 540), (960, 540), (960, 540), (960, 540), (960, 540), (960, 540), (960, 540), (960, 540), (960, 540), (960, 540), (960, 540), (960, 540), (960, 540), (960, 540), (960, 540), (960, 540), (960, 540), (960, 540), (960, 540), (960, 540), (960, 540), (960, 540), (960, 540), (960, 540), (960, 540), (960, 541), (960, 541), (960, 541), (960, 541), (960, 541), (960, 541), (960, 541), (960, 541), (960, 541), (960, 541), (960, 541), (960, 541), (960, 541), (960, 541), (960, 541), (960, 541), (960, 543), (958, 545), (952, 548), (916, 555), (882, 557), (830, 565), (778, 565), (678, 565), (634, 565), (597, 565), (575, 565), (560, 565)]",176.42366562500266,"[9, 2, 5, 1, 8, 6, 7, 4, 3]","(0, 0.25)",ENG002B,ENG,B,English,Tue Aug 07 11:19:09 2018,Mouse
1,0,2,0,69,9,9,1,159,69,90,135,0,500,200,8000,"[(960, 540), (960, 540), (960, 540), (960, 540), (960, 540), (960, 540), (963, 541), (965, 544), (967, 546), (973, 549), (1005, 565), (1045, 582), (1093, 602), (1157, 625), (1307, 672), (1398, 701)]",20.182413629155096,"[9, 2, 5, 1, 8, 6, 7, 4, 3]","(0, 0.25)",ENG002B,ENG,B,English,Tue Aug 07 11:19:09 2018,Mouse
1,0,2,0,70,3,4,0,-619,539,80,135,0,500,200,8000,"[(960, 540), (960, 540), (960, 540), (960, 540), (960, 540), (960, 540), (960, 540), (960, 540), (960, 540), (960, 540), (960, 540), (960, 540), (960, 540), (960, 540), (960, 540), (960, 540), (960, 540), (960, 540), (960, 540), (960, 540), (960, 540), (960, 540), (960, 540), (960, 540), (960, 540), (960, 540), (960, 540), (960, 540), (960, 540), (960, 540), (960, 540), (960, 540), (960, 540), (960, 540), (960, 540), (960, 540), (960, 540), (960, 540), (960, 540), (960, 540), (960, 540), (960, 540), (960, 540), (960, 540), (960, 540), (960, 540), (960, 540), (960, 540), (960, 540), (960, 540), (960, 540), (960, 540), (960, 540), (965, 521), (975, 490), (986, 459), (1002, 406), (1040, 313), (1060, 268), (1081, 224), (1102, 186), (1138, 121)]",293.01680468733014,"[9, 2, 5, 1, 8, 6, 7, 4, 3]","(0, 0.25)",ENG002B,ENG,B,English,Tue Aug 07 11:19:09 2018,Mouse
1,0,2,0,71,4,4,1,79,19,60,136,0,500,200,8000,"[(963, 539), (975, 527), (1005, 500), (1075, 402), (1112, 339), (1147, 276), (1186, 210), (1259, 92)]",303.7195710143675,"[9, 2, 5, 1, 8, 6, 7, 4, 3]","(0, 0.25)",ENG002B,ENG,B,English,Tue Aug 07 11:19:09 2018,Mouse
1,0,2,0,72,8,8,1,789,719,70,136,0,500,200,8000,"[(960, 540), (960, 540), (960, 540), (960, 540), (960, 540), (960, 540), (960, 540), (960, 540), (960, 540), (960, 540), (960, 540), (960, 540), (960, 540), (960, 540), (960, 540), (960, 540), (960, 540), (960, 540), (960, 540), (960, 540), (960, 540), (960, 540), (960, 540), (960, 540), (960, 540), (960, 540), (960, 540), (960, 540), (960, 540), (960, 540), (960, 540), (960, 540), (960, 540), (960, 540), (960, 540), (960, 540), (960, 540), (960, 540), (960, 540), (960, 540), (960, 540), (960, 540), (960, 540), (960, 540), (960, 540), (960, 540), (960, 540), (960, 540), (960, 540), (960, 540), (960, 540), (960, 540), (960, 540), (960, 540), (960, 540), (960, 540), (960, 540), (960, 540), (960, 540), (960, 540), (960, 540), (960, 540), (960, 540), (960, 540), (960, 540), (960, 540), (960, 540), (960, 540), (960, 540), (960, 540), (960, 540), (956, 540), (947, 544), (927, 549), (833, 558), (772, 558), (703, 558), (622, 558), (481, 558)]",177.84793530610008,"[9, 2, 5, 1, 8, 6, 7, 4, 3]","(0, 0.25)",ENG002B,ENG,B,English,Tue Aug 07 11:19:09 2018,Mouse
1,0,2,0,73,6,6,1,700,600,100,135,0,500,200,8000,"[(960, 540), (960, 540), (960, 540), (960, 540), (960, 540), (960, 540), (960, 540), (960, 540), (960, 540), (960, 540), (960, 540), (960, 540), (960, 540), (960, 540), (960, 540), (960, 540), (960, 540), (960, 540), (960, 540), (960, 540), (960, 540), (960, 540), (960, 540), (960, 540), (960, 540), (960, 540), (960, 540), (960, 540), (960, 540), (960, 540), (960, 540), (960, 540), (960, 540), (960, 540), (960, 540), (960, 540), (960, 540), (960, 540), (960, 540), (960, 540), (960, 540), (960, 540), (960, 540), (960, 540), (960, 540), (960, 540), (960, 540), (960, 540), (960, 540), (960, 540), (960, 540), (960, 540), (960, 540), (960, 540), (960, 540), (960, 540), (960, 540), (960, 540), (960, 540), (959, 540), (958, 540), (955, 540), (951, 537), (941, 522), (924, 484), (866, 380), (818, 322), (771, 270), (720, 228), (635, 157)]",229.68326421783323,"[9, 2, 5, 1, 8, 6, 7, 4, 3]","(0, 0.25)",ENG002B,ENG,B,English,Tue Aug 07 11:19:09 2018,Mouse
1,0,2,0,74,7,7,1,400,320,80,134,0,500,200,8000,"[(960, 540), (960, 540), (960, 540), (960, 540), (960, 540), (960, 540), (960, 540), (960, 540), (960, 540), (960, 540), (960, 540), (960, 540), (960, 540), (960, 540), (960, 540), (960, 540), (960, 540), (960, 540), (960, 540), (960, 540), (960, 540), (960, 540), (960, 540), (960, 540), (960, 540), (960, 540), (960, 540), (960, 540), (960, 540), (960, 540), (960, 540), (960, 541), (958, 541), (956, 534), (941, 439), (930, 379), (916, 321), (895, 268), (867, 168), (856, 127)]",255.86587089920974,"[9, 2, 5, 1, 8, 6, 7, 4, 3]","(0, 0.25)",ENG002B,ENG,B,English,Tue Aug 07 11:19:09 2018,Mouse
1,0,2,0,75,3,6,0,-380,320,60,133,0,500,200,8000,"[(960, 540), (960, 540), (960, 540), (960, 540), (960, 540), (960, 540), (960, 540), (960, 540), (960, 540), (960, 540), (960, 540), (960, 540), (960, 540), (960, 540), (960, 540), (960, 540), (960, 540), (960, 540), (960, 540), (960, 540), (960, 540), (960, 540), (960, 540), (960, 540), (960, 540), (960, 540), (960, 540), (960, 540), (960, 540), (960, 540), (960, 540), (955, 541), (938, 537), (876, 471), (840, 419), (799, 363), (757, 312), (684, 230)]",228.32060570762332,"[9, 2, 5, 1, 8, 6, 7, 4, 3]","(0, 0.25)",ENG002B,ENG,B,English,Tue Aug 07 11:19:09 2018,Mouse
1,0,2,0,76,3,6,0,-231,171,60,134,0,500,200,8000,"[(960, 540), (960, 540), (960, 540), (960, 540), (960, 540), (960, 540), (960, 540), (960, 540), (960, 540), (960, 540), (960, 540), (960, 540), (960, 540), (960, 540), (960, 540), (960, 540), (960, 540), (956, 539), (939, 531), (856, 454), (802, 400), (737, 341), (665, 287), (509, 173)]",219.1368773160886,"[9, 2, 5, 1, 8, 6, 7, 4, 3]","(0, 0.25)",ENG002B,ENG,B,English,Tue Aug 07 11:19:09 2018,Mouse
1,0,2,0,77,2,2,1,669,599,70,135,0,500,200,8000,"[(960, 540), (960, 540), (960, 540), (960, 540), (960, 540), (960, 540), (960, 540), (960, 540), (960, 540), (960, 540), (960, 540), (960, 540), (960, 540), (960, 540), (960, 540), (960, 540), (960, 540), (960, 540), (960, 540), (960, 540), (960, 540), (960, 540), (960, 540), (960, 540), (960, 540), (960, 540), (960, 540), (960, 540), (960, 540), (960, 540), (960, 540), (960, 540), (960, 540), (960, 540), (960, 540), (960, 540), (960, 540), (960, 540), (960, 540), (960, 540), (960, 540), (960, 540), (960, 540), (960, 540), (960, 540), (960, 540), (960, 540), (960, 540), (960, 540), (960, 540), (960, 540), (960, 540), (960, 540), (960, 540), (960, 540), (960, 540), (960, 540), (960, 540), (960, 540), (963, 544), (969, 557), (978, 579), (992, 614), (1050, 730), (1089, 794), (1127, 846), (1164, 894)]",60.0463918321985,"[9, 2, 5, 1, 8, 6, 7, 4, 3]","(0, 0.25)",ENG002B,ENG,B,English,Tue Aug 07 11:19:09 2018,Mouse
1,0,2,0,78,7,7,1,350,290,60,135,0,500,200,8000,"[(960, 540), (960, 540), (960, 540), (960, 540), (960, 540), (960, 540), (960, 540), (960, 540), (960, 540), (960, 540), (960, 540), (960, 540), (960, 540), (960, 540), (960, 540), (960, 540), (960, 540), (960, 540), (960, 540), (960, 540), (960, 540), (960, 540), (960, 540), (960, 540), (960, 540), (960, 540), (960, 540), (960, 540), (957, 535), (952, 517), (948, 466), (917, 321), (895, 243), (873, 163), (862, 95)]",257.5803009987833,"[9, 2, 5, 1, 8, 6, 7, 4, 3]","(0, 0.25)",ENG002B,ENG,B,English,Tue Aug 07 11:19:09 2018,Mouse
1,0,2,0,79,9,6,0,-790,440,350,134,0,500,200,8000,"[(960, 540), (960, 540), (960, 540), (960, 540), (960, 540), (960, 540), (960, 540), (960, 540), (960, 540), (960, 540), (960, 540), (960, 540), (960, 540), (960, 540), (960, 540), (960, 540), (960, 540), (960, 540), (960, 540), (960, 540), (960, 540), (960, 540), (960, 540), (960, 540), (960, 540), (960, 540), (960, 540), (960, 540), (960, 540), (960, 540), (960, 540), (960, 540), (960, 540), (960, 540), (960, 540), (960, 540), (960, 540), (960, 540), (960, 540), (960, 540), (960, 540), (960, 540), (960, 540), (959, 541), (959, 541), (959, 541), (959, 541), (959, 541), (959, 541), (959, 541), (959, 541), (959, 541), (959, 541), (959, 541), (959, 541), (959, 541), (959, 541), (959, 541), (959, 541), (959, 541), (959, 541), (959, 541), (959, 541), (959, 541), (959, 541), (959, 541), (959, 541), (959, 541), (959, 541), (959, 541), (959, 541), (957, 541), (953, 541), (935, 537), (900, 519), (783, 434), (719, 386), (652, 332), (513, 224)]",215.2578322940415,"[9, 2, 5, 1, 8, 6, 7, 4, 3]","(0, 0.25)",ENG002B,ENG,B,English,Tue Aug 07 11:19:09 2018,Mouse
1,0,2,0,80,4,4,1,731,641,90,135,0,500,200,8000,"[(960, 540), (960, 540), (960, 540), (960, 540), (960, 540), (960, 540), (960, 540), (960, 540), (960, 540), (960, 540), (960, 540), (960, 540), (960, 540), (960, 540), (960, 540), (960, 540), (960, 540), (960, 540), (960, 540), (960, 540), (960, 540), (960, 540), (960, 540), (960, 540), (960, 540), (960, 540), (960, 540), (960, 540), (960, 540), (960, 540), (960, 540), (960, 540), (960, 540), (960, 540), (960, 540), (960, 540), (960, 540), (960, 540), (960, 540), (960, 540), (960, 540), (960, 540), (960, 540), (960, 540), (960, 540), (960, 540), (960, 540), (960, 540), (960, 540), (960, 540), (960, 540), (960, 540), (960, 540), (960, 540), (960, 540), (960, 540), (960, 540), (960, 540), (960, 540), (960, 540), (960, 540), (960, 540), (960, 540), (960, 540), (961, 540), (968, 536), (978, 520), (1016, 455), (1037, 414), (1064, 367), (1091, 326), (1140, 244), (1165, 210), (1178, 183)]",301.41008608946265,"[9, 2, 5, 1, 8, 6, 7, 4, 3]","(0, 0.25)",ENG002B,ENG,B,English,Tue Aug 07 11:19:09 2018,Mouse
1,0,2,0,81,2,2,1,860,290,570,135,0,500,200,8000,"[(960, 540), (960, 540), (960, 540), (960, 540), (960, 540), (960, 540), (960, 540), (960, 540), (960, 540), (960, 540), (960, 540), (960, 540), (960, 540), (960, 540), (960, 540), (960, 540), (960, 540), (960, 540), (960, 540), (960, 540), (960, 540), (960, 540), (960, 540), (960, 540), (960, 540), (960, 540), (960, 540), (960, 540), (959, 540), (959, 540), (959, 540), (959, 540), (959, 540), (959, 540), (959, 540), (959, 540), (959, 540), (959, 540), (959, 540), (959, 540), (959, 540), (959, 540), (959, 540), (959, 540), (959, 540), (959, 540), (959, 540), (959, 540), (959, 540), (959, 540), (959, 540), (959, 540), (959, 540), (959, 540), (959, 540), (959, 540), (959, 540), (959, 540), (959, 540), (959, 540), (959, 540), (959, 540), (959, 540), (959, 540), (959, 540), (959, 540), (959, 540), (959, 540), (959, 540), (959, 540), (959, 540), (958, 540), (966, 590), (971, 639), (983, 686), (995, 730), (1017, 792), (1027, 815), (1036, 839), (1042, 851), (1052, 878), (1055, 887), (1062, 900), (1069, 909), (1080, 921), (1086, 927)]",71.96571443287014,"[9, 2, 5, 1, 8, 6, 7, 4, 3]","(0, 0.25)",ENG002B,ENG,B,English,Tue Aug 07 11:19:09 2018,Mouse
1,0,2,0,82,9,5,0,-562,152,410,134,0,500,200,8000,"[(960, 540), (960, 540), (960, 540), (960, 540), (960, 540), (960, 540), (960, 540), (960, 540), (960, 540), (960, 540), (960, 540), (960, 540), (960, 540), (960, 540), (960, 540), (959, 540), (959, 540), (958, 540), (958, 540), (957, 540), (957, 540), (957, 540), (955, 540), (955, 540), (955, 540), (955, 540), (955, 540), (955, 540), (955, 540), (955, 540), (955, 540), (955, 540), (955, 540), (955, 540), (954, 541), (954, 541), (954, 541), (954, 541), (954, 541), (954, 541), (954, 541), (954, 541), (953, 541), (953, 541), (953, 541), (953, 541), (952, 541), (952, 541), (950, 543), (945, 550), (929, 576), (908, 611), (889, 654), (872, 712), (833, 827), (818, 890), (802, 940)]",111.55401992047884,"[9, 2, 5, 1, 8, 6, 7, 4, 3]","(0, 0.25)",ENG002B,ENG,B,English,Tue Aug 07 11:19:09 2018,Mouse
1,0,2,0,83,8,8,1,419,369,50,135,0,500,200,8000,"[(960, 540), (960, 540), (960, 540), (960, 540), (960, 540), (960, 540), (960, 540), (960, 540), (960, 540), (960, 540), (960, 540), (960, 540), (960, 540), (960, 540), (960, 540), (960, 540), (960, 540), (960, 540), (960, 540), (960, 540), (960, 540), (960, 540), (960, 540), (960, 540), (960, 540), (960, 540), (960, 540), (960, 540), (960, 540), (960, 540), (960, 540), (960, 540), (960, 540), (960, 540), (960, 540), (960, 540), (955, 540), (871, 540), (798, 532), (719, 521), (638, 508), (466, 481)]",186.8107569350348,"[9, 2, 5, 1, 8, 6, 7, 4, 3]","(0, 0.25)",ENG002B,ENG,B,English,Tue Aug 07 11:19:09 2018,Mouse
1,0,2,0,84,6,6,1,349,159,190,135,0,500,200,8000,"[(960, 540), (960, 540), (960, 540), (960, 540), (960, 540), (960, 540), (960, 540), (960, 540), (960, 540), (960, 540), (960, 540), (960, 540), (960, 540), (960, 540), (960, 540), (959, 541), (959, 541), (959, 541), (958, 541), (958, 541), (958, 541), (958, 541), (958, 541), (958, 541), (957, 541), (957, 541), (953, 541), (951, 541), (947, 541), (935, 533), (889, 463), (842, 397), (786, 330), (732, 275), (617, 158)]",228.0791500394568,"[9, 2, 5, 1, 8, 6, 7, 4, 3]","(0, 0.25)",ENG002B,ENG,B,English,Tue Aug 07 11:19:09 2018,Mouse
1,0,2,0,85,2,2,1,829,29,800,134,0,500,200,8000,"[(960, 540), (960, 540), (960, 541), (960, 541), (960, 541), (960, 541), (959, 541), (959, 541), (959, 541), (959, 541), (959, 541), (959, 541), (959, 541), (959, 541), (959, 541), (959, 541), (959, 541), (959, 541), (958, 541), (958, 541), (958, 541), (958, 541), (958, 541), (958, 541), (958, 541), (958, 541), (958, 541), (958, 541), (958, 541), (958, 541), (958, 541), (958, 541), (958, 541), (958, 541), (958, 541), (958, 541), (958, 541), (958, 541), (958, 541), (958, 541), (958, 541), (958, 541), (958, 541), (958, 541), (958, 541), (958, 541), (958, 542), (957, 542), (957, 543), (956, 543), (955, 544), (955, 544), (954, 545), (954, 545), (952, 546), (952, 546), (951, 547), (949, 550), (941, 564), (937, 579), (929, 607), (922, 637), (914, 693), (913, 708), (913, 721), (913, 729), (914, 732), (914, 733), (915, 734), (916, 734), (922, 732), (926, 731), (932, 731), (939, 731), (961, 741), (979, 756), (994, 774), (1016, 797), (1058, 847), (1075, 865), (1089, 881), (1104, 895), (1142, 925)]",64.69862137458028,"[9, 2, 5, 1, 8, 6, 7, 4, 3]","(0, 0.25)",ENG002B,ENG,B,English,Tue Aug 07 11:19:09 2018,Mouse
1,0,2,0,86,6,4,0,-1180,700,480,133,0,500,200,8000,"[(960, 540), (960, 540), (960, 540), (960, 540), (960, 540), (960, 540), (960, 540), (960, 540), (960, 540), (960, 540), (960, 540), (960, 540), (960, 540), (960, 540), (960, 540), (960, 540), (960, 540), (960, 540), (960, 540), (960, 540), (960, 540), (960, 540), (960, 540), (960, 540), (960, 540), (960, 540), (960, 540), (960, 540), (960, 540), (960, 540), (960, 540), (960, 540), (960, 540), (960, 540), (960, 540), (960, 540), (960, 540), (960, 540), (960, 540), (960, 540), (960, 540), (960, 540), (960, 540), (960, 540), (960, 540), (960, 540), (960, 540), (960, 540), (960, 540), (960, 540), (960, 540), (960, 540), (960, 540), (960, 540), (960, 540), (960, 540), (960, 540), (960, 540), (960, 540), (960, 540), (960, 540), (960, 540), (960, 540), (960, 540), (960, 540), (960, 540), (960, 540), (960, 540), (960, 540), (959, 540), (959, 540), (959, 541), (959, 541), (959, 541), (959, 541), (959, 541), (959, 541), (959, 541), (959, 541), (959, 541), (959, 541), (958, 542), (958, 542), (958, 542), (958, 542), (958, 542), (958, 542), (957, 542), (957, 542), (954, 542), (952, 542), (951, 542), (950, 542), (947, 542), (947, 542), (945, 542), (945, 542), (945, 542), (945, 542), (945, 542), (945, 542), (945, 542), (945, 542), (945, 542), (945, 542), (945, 542), (945, 542), (945, 542), (945, 542), (945, 541), (950, 533), (964, 517), (984, 484), (1034, 392), (1064, 335), (1093, 280), (1116, 221), (1176, 104)]",296.3544058779226,"[9, 2, 5, 1, 8, 6, 7, 4, 3]","(0, 0.25)",ENG002B,ENG,B,English,Tue Aug 07 11:19:09 2018,Mouse
1,0,2,0,87,9,6,0,-489,109,380,134,0,500,200,8000,"[(960, 540), (960, 540), (960, 540), (960, 540), (960, 540), (960, 540), (960, 540), (960, 540), (960, 540), (960, 540), (960, 541), (960, 541), (960, 541), (960, 541), (960, 541), (960, 541), (960, 541), (960, 541), (960, 541), (960, 541), (960, 541), (960, 541), (960, 541), (960, 541), (960, 541), (960, 541), (960, 541), (960, 541), (960, 541), (960, 541), (960, 541), (960, 541), (960, 541), (960, 541), (960, 541), (960, 541), (960, 541), (960, 541), (958, 541), (953, 536), (945, 527), (927, 510), (869, 462), (822, 429), (781, 401), (744, 374), (671, 333), (640, 311), (614, 292)]",215.63155391689415,"[9, 2, 5, 1, 8, 6, 7, 4, 3]","(0, 0.25)",ENG002B,ENG,B,English,Tue Aug 07 11:19:09 2018,Mouse
1,0,2,0,88,8,8,1,1051,131,920,135,0,500,200,8000,"[(960, 540), (960, 540), (960, 540), (960, 540), (960, 540), (960, 540), (960, 540), (960, 540), (960, 540), (960, 540), (960, 540), (960, 540), (960, 540), (959, 540), (959, 540), (959, 540), (959, 540), (959, 541), (958, 541), (958, 541), (958, 542), (958, 542), (958, 542), (957, 542), (957, 542), (957, 542), (957, 542), (957, 542), (957, 542), (957, 542), (957, 542), (957, 542), (957, 542), (957, 542), (957, 542), (957, 542), (957, 542), (957, 542), (957, 542), (957, 542), (957, 542), (957, 542), (957, 542), (957, 542), (957, 542), (957, 542), (957, 542), (957, 542), (957, 543), (957, 543), (957, 543), (957, 543), (957, 543), (957, 543), (957, 543), (957, 543), (957, 543), (957, 544), (957, 544), (957, 544), (957, 545), (957, 546), (957, 546), (957, 546), (957, 547), (957, 547), (957, 547), (957, 547), (957, 547), (957, 548), (957, 548), (957, 548), (957, 548), (957, 548), (957, 550), (957, 551), (957, 552), (957, 553), (957, 554), (957, 555), (956, 555), (956, 555), (956, 555), (956, 555), (956, 555), (955, 555), (955, 555), (954, 555), (954, 555), (953, 556), (953, 556), (953, 556), (953, 556), (952, 557), (949, 558), (943, 559), (933, 561), (902, 564), (877, 564), (846, 564), (805, 564), (710, 564), (661, 564), (608, 564), (569, 564), (492, 560)]",177.5529513576764,"[9, 2, 5, 1, 8, 6, 7, 4, 3]","(0, 0.25)",ENG002B,ENG,B,English,Tue Aug 07 11:19:09 2018,Mouse
1,0,2,0,89,2,2,1,439,299,140,135,0,500,200,8000,"[(960, 540), (960, 540), (960, 540), (960, 540), (960, 540), (960, 540), (960, 540), (960, 540), (960, 540), (960, 540), (960, 540), (960, 540), (960, 540), (960, 540), (960, 540), (960, 540), (960, 540), (960, 540), (960, 540), (960, 540), (960, 540), (960, 540), (960, 540), (960, 540), (960, 540), (960, 540), (960, 540), (960, 540), (960, 540), (960, 541), (960, 541), (960, 542), (960, 542), (960, 543), (960, 543), (960, 545), (961, 547), (964, 551), (969, 561), (998, 620), (1025, 672), (1062, 735), (1104, 809), (1190, 936)]",59.85163396799903,"[9, 2, 5, 1, 8, 6, 7, 4, 3]","(0, 0.25)",ENG002B,ENG,B,English,Tue Aug 07 11:19:09 2018,Mouse
1,0,2,0,90,5,5,1,1399,669,730,134,0,500,200,8000,"[(960, 540), (960, 540), (960, 540), (960, 540), (960, 540), (960, 540), (960, 540), (960, 540), (960, 540), (960, 540), (960, 540), (960, 540), (960, 540), (960, 540), (960, 540), (960, 540), (960, 540), (960, 540), (960, 540), (960, 540), (960, 540), (960, 540), (960, 540), (960, 540), (960, 540), (960, 540), (960, 540), (960, 540), (960, 540), (960, 540), (960, 540), (960, 540), (960, 540), (960, 540), (960, 540), (960, 540), (960, 540), (960, 540), (960, 540), (960, 540), (960, 540), (960, 540), (960, 540), (960, 540), (960, 540), (960, 540), (960, 540), (960, 540), (960, 540), (960, 540), (960, 540), (960, 540), (960, 540), (960, 540), (960, 540), (960, 540), (960, 540), (960, 540), (960, 540), (960, 540), (960, 540), (960, 540), (960, 540), (960, 540), (960, 540), (960, 540), (960, 539), (958, 539), (956, 539), (954, 539), (949, 540), (946, 540), (943, 540), (942, 540), (941, 540), (940, 540), (940, 540), (940, 540), (940, 540), (940, 540), (940, 540), (940, 540), (940, 540), (940, 540), (940, 540), (940, 540), (940, 540), (940, 540), (940, 540), (940, 540), (940, 540), (940, 540), (940, 540), (940, 540), (940, 540), (940, 540), (940, 540), (940, 540), (940, 540), (940, 540), (940, 540), (940, 540), (940, 540), (940, 540), (940, 540), (940, 540), (940, 540), (940, 540), (940, 540), (940, 540), (940, 540), (940, 540), (940, 540), (940, 540), (940, 540), (940, 540), (940, 540), (940, 540), (940, 540), (940, 540), (940, 540), (940, 540), (940, 540), (940, 540), (940, 540), (940, 540), (940, 540), (940, 540), (940, 540), (940, 540), (940, 540), (941, 540), (941, 541), (941, 542), (941, 559), (936, 585), (926, 639), (902, 719), (844, 921), (811, 1018)]",107.31306495336894,"[9, 2, 5, 1, 8, 6, 7, 4, 3]","(0, 0.25)",ENG002B,ENG,B,English,Tue Aug 07 11:19:09 2018,Mouse
1,0,2,0,91,1,1,1,549,489,60,133,0,500,200,8000,"[(960, 540), (960, 540), (960, 540), (960, 540), (960, 540), (960, 540), (960, 540), (960, 540), (960, 540), (960, 540), (960, 540), (960, 540), (960, 540), (960, 540), (960, 540), (960, 540), (960, 540), (960, 540), (960, 540), (960, 540), (960, 540), (960, 540), (960, 540), (960, 540), (960, 540), (960, 540), (960, 540), (960, 540), (960, 540), (960, 540), (960, 540), (960, 540), (960, 540), (960, 540), (960, 540), (960, 540), (960, 540), (960, 540), (960, 540), (960, 540), (960, 540), (960, 540), (960, 540), (960, 540), (960, 540), (960, 540), (960, 540), (960, 540), (946, 546), (928, 554), (889, 563), (834, 580), (699, 636), (627, 681), (559, 723)]",155.4699832797819,"[9, 2, 5, 1, 8, 6, 7, 4, 3]","(0, 0.25)",ENG002B,ENG,B,English,Tue Aug 07 11:19:09 2018,Mouse
1,0,2,0,92,1,2,0,-1149,569,580,132,0,500,200,8000,"[(960, 540), (960, 540), (960, 540), (960, 540), (960, 540), (960, 540), (960, 540), (960, 540), (960, 540), (960, 540), (960, 540), (960, 540), (960, 540), (960, 540), (960, 540), (960, 540), (960, 540), (960, 540), (960, 540), (960, 540), (960, 540), (960, 540), (960, 540), (960, 540), (960, 540), (960, 540), (960, 540), (960, 540), (960, 540), (960, 540), (960, 540), (960, 540), (960, 540), (960, 540), (960, 540), (960, 540), (960, 540), (960, 540), (960, 540), (960, 540), (960, 540), (960, 540), (960, 540), (960, 540), (960, 540), (960, 540), (960, 540), (960, 540), (960, 540), (960, 540), (960, 540), (960, 540), (960, 540), (960, 540), (960, 540), (960, 540), (961, 540), (961, 539), (961, 539), (961, 539), (963, 539), (964, 539), (966, 539), (968, 539), (981, 539), (994, 544), (1011, 551), (1039, 563), (1102, 586), (1127, 594), (1155, 602), (1186, 610), (1239, 627), (1261, 632), (1276, 637), (1284, 639), (1294, 641), (1296, 641), (1296, 641), (1297, 642), (1297, 642), (1297, 642), (1297, 642), (1297, 642), (1297, 642), (1297, 642), (1297, 642), (1297, 642), (1297, 642), (1297, 642), (1297, 642), (1297, 642), (1297, 639), (1296, 638), (1292, 634), (1287, 632), (1276, 624), (1269, 621), (1261, 617), (1254, 614), (1238, 608), (1227, 604), (1221, 603), (1214, 603), (1203, 602), (1195, 602), (1190, 602), (1185, 606), (1172, 621), (1166, 640), (1157, 670), (1152, 702), (1150, 794), (1160, 833), (1180, 876)]",56.7847485062628,"[9, 2, 5, 1, 8, 6, 7, 4, 3]","(0, 0.25)",ENG002B,ENG,B,English,Tue Aug 07 11:19:09 2018,Mouse
1,0,2,0,93,9,3,0,-1680,260,1420,133,0,500,200,8000,"[(960, 540), (960, 540), (960, 540), (960, 540), (960, 540), (960, 540), (960, 540), (960, 540), (960, 540), (960, 540), (960, 540), (960, 540), (960, 540), (960, 540), (960, 540), (960, 540), (960, 540), (960, 540), (960, 540), (960, 540), (960, 540), (960, 540), (960, 540), (960, 540), (960, 540), (959, 540), (959, 540), (959, 540), (959, 540), (959, 540), (959, 540), (959, 540), (959, 540), (958, 540), (957, 541), (957, 541), (957, 541), (957, 541), (957, 541), (957, 541), (957, 541), (957, 541), (957, 541), (957, 541), (957, 541), (957, 541), (957, 541), (957, 541), (957, 541), (956, 541), (956, 541), (956, 541), (956, 541), (956, 541), (956, 541), (956, 541), (956, 541), (956, 541), (956, 541), (956, 541), (956, 541), (956, 541), (956, 541), (956, 541), (956, 541), (956, 541), (956, 541), (956, 541), (956, 541), (956, 541), (956, 541), (956, 541), (956, 542), (956, 542), (956, 542), (956, 542), (956, 542), (956, 542), (956, 542), (956, 542), (956, 542), (956, 542), (956, 542), (956, 542), (956, 542), (956, 542), (956, 542), (956, 542), (956, 542), (956, 542), (956, 542), (956, 542), (956, 542), (956, 542), (956, 542), (956, 542), (956, 542), (956, 542), (956, 542), (956, 542), (956, 543), (956, 543), (956, 543), (956, 543), (956, 543), (956, 543), (956, 543), (956, 543), (956, 543), (956, 543), (956, 543), (956, 543), (956, 543), (956, 543), (956, 543), (956, 543), (956, 543), (956, 543), (956, 543), (956, 543), (956, 543), (956, 543), (956, 543), (956, 543), (956, 543), (956, 543), (956, 543), (955, 543), (955, 543), (955, 544), (955, 544), (955, 544), (955, 544), (954, 544), (954, 544), (954, 544), (954, 544), (954, 544), (954, 544), (954, 544), (954, 544), (954, 544), (954, 544), (954, 544), (954, 544), (954, 544), (954, 544), (954, 544), (954, 544), (954, 544), (954, 544), (954, 544), (954, 544), (954, 544), (954, 544), (954, 544), (954, 544), (954, 544), (954, 544), (954, 544), (976, 539), (1001, 529), (1039, 518), (1089, 506), (1214, 466), (1278, 447), (1339, 426), (1378, 414)]",343.2253335460608,"[9, 2, 5, 1, 8, 6, 7, 4, 3]","(0, 0.25)",ENG002B,ENG,B,English,Tue Aug 07 11:19:09 2018,Mouse
1,0,2,0,94,5,5,1,589,539,50,134,0,500,200,8000,"[(960, 540), (960, 540), (960, 540), (960, 540), (960, 540), (960, 540), (960, 540), (960, 540), (960, 540), (960, 540), (960, 540), (960, 540), (960, 540), (960, 540), (960, 540), (960, 540), (960, 540), (960, 540), (960, 540), (960, 540), (960, 540), (960, 540), (960, 540), (960, 540), (960, 540), (960, 540), (960, 540), (960, 540), (960, 540), (960, 540), (960, 540), (960, 540), (960, 540), (960, 540), (960, 540), (960, 540), (960, 540), (960, 540), (960, 540), (960, 540), (960, 540), (960, 540), (960, 540), (960, 540), (960, 540), (960, 540), (960, 540), (960, 540), (960, 540), (960, 540), (960, 540), (960, 540), (960, 540), (957, 540), (947, 548), (936, 573), (886, 725), (850, 850), (817, 974)]",108.23669432172282,"[9, 2, 5, 1, 8, 6, 7, 4, 3]","(0, 0.25)",ENG002B,ENG,B,English,Tue Aug 07 11:19:09 2018,Mouse
1,0,2,0,95,9,9,1,469,409,60,134,0,500,200,8000,"[(960, 540), (960, 540), (960, 540), (960, 540), (960, 540), (960, 540), (960, 540), (960, 540), (960, 540), (960, 540), (960, 540), (960, 540), (960, 540), (960, 540), (960, 540), (960, 540), (960, 540), (960, 540), (960, 540), (960, 540), (960, 540), (960, 540), (960, 540), (960, 540), (960, 540), (960, 540), (960, 540), (960, 540), (960, 540), (960, 540), (960, 540), (960, 540), (960, 540), (960, 540), (960, 540), (960, 540), (960, 540), (960, 540), (960, 540), (960, 540), (968, 549), (985, 566), (1012, 581), (1053, 604), (1173, 646), (1250, 668), (1341, 693)]",21.879151337575287,"[9, 2, 5, 1, 8, 6, 7, 4, 3]","(0, 0.25)",ENG002B,ENG,B,English,Tue Aug 07 11:19:09 2018,Mouse
1,0,2,0,96,7,7,1,599,549,50,133,0,500,200,8000,"[(960, 540), (960, 540), (960, 540), (960, 540), (960, 540), (960, 540), (960, 540), (960, 540), (960, 540), (960, 540), (960, 540), (960, 540), (960, 540), (960, 540), (960, 540), (960, 540), (960, 540), (960, 540), (960, 540), (960, 540), (960, 540), (960, 540), (960, 540), (960, 540), (960, 540), (960, 540), (960, 540), (960, 540), (960, 540), (960, 540), (960, 540), (960, 540), (960, 540), (960, 540), (960, 540), (960, 540), (960, 540), (960, 540), (960, 540), (960, 540), (960, 540), (960, 540), (960, 540), (960, 540), (960, 540), (960, 540), (960, 540), (960, 540), (960, 540), (960, 540), (960, 540), (960, 540), (960, 540), (960, 540), (960, 526), (960, 468), (940, 321), (927, 248), (919, 175), (910, 110)]",263.36748538486154,"[9, 2, 5, 1, 8, 6, 7, 4, 3]","(0, 0.25)",ENG002B,ENG,B,English,Tue Aug 07 11:19:09 2018,Mouse
1,0,2,0,97,3,3,1,469,419,50,132,0,500,200,8000,"[(960, 540), (960, 540), (960, 540), (960, 540), (960, 540), (960, 540), (960, 540), (960, 540), (960, 540), (960, 540), (960, 540), (960, 540), (960, 540), (960, 540), (960, 540), (960, 540), (960, 540), (960, 540), (960, 540), (960, 540), (960, 540), (960, 540), (960, 540), (960, 540), (960, 540), (960, 540), (960, 540), (960, 540), (960, 540), (960, 540), (960, 540), (960, 540), (960, 540), (960, 540), (960, 540), (960, 540), (960, 540), (960, 540), (960, 540), (960, 540), (960, 540), (967, 541), (1055, 529), (1131, 518), (1214, 498), (1302, 473), (1477, 417)]",346.61749105010745,"[9, 2, 5, 1, 8, 6, 7, 4, 3]","(0, 0.25)",ENG002B,ENG,B,English,Tue Aug 07 11:19:09 2018,Mouse
1,0,2,0,98,9,2,0,-551,481,70,131,0,500,200,8000,"[(960, 540), (960, 540), (960, 540), (960, 540), (960, 540), (960, 540), (960, 540), (960, 540), (960, 540), (960, 540), (960, 540), (960, 540), (960, 540), (960, 540), (960, 540), (960, 540), (960, 540), (960, 540), (960, 540), (960, 540), (960, 540), (960, 540), (960, 540), (960, 540), (960, 540), (960, 540), (960, 540), (960, 540), (960, 540), (960, 540), (960, 540), (960, 540), (960, 540), (960, 540), (960, 540), (960, 540), (960, 540), (960, 540), (960, 540), (960, 540), (960, 540), (960, 540), (960, 540), (960, 540), (960, 540), (960, 540), (960, 540), (960, 540), (960, 549), (974, 580), (991, 623), (1025, 721), (1047, 767), (1073, 811), (1107, 853), (1188, 928)]",59.56027561935687,"[9, 2, 5, 1, 8, 6, 7, 4, 3]","(0, 0.25)",ENG002B,ENG,B,English,Tue Aug 07 11:19:09 2018,Mouse
1,0,2,0,99,8,2,0,-240,170,70,132,0,500,200,8000,"[(960, 540), (960, 540), (960, 540), (960, 540), (960, 540), (960, 540), (960, 540), (960, 540), (960, 540), (960, 540), (960, 540), (960, 540), (960, 540), (960, 540), (960, 540), (960, 540), (960, 548), (966, 578), (993, 694), (1012, 755), (1032, 808), (1045, 845), (1094, 915), (1116, 938)]",68.59681714720628,"[9, 2, 5, 1, 8, 6, 7, 4, 3]","(0, 0.25)",ENG002B,ENG,B,English,Tue Aug 07 11:19:09 2018,Mouse
1,0,2,0,100,2,7,0,-398,338,60,133,0,500,200,8000,"[(960, 540), (960, 540), (960, 540), (960, 540), (960, 540), (960, 540), (960, 540), (960, 540), (960, 540), (960, 540), (960, 540), (960, 540), (960, 540), (960, 540), (960, 540), (960, 540), (960, 540), (960, 540), (960, 540), (960, 540), (960, 540), (960, 540), (960, 540), (960, 540), (960, 540), (960, 540), (960, 540), (960, 540), (960, 540), (960, 540), (960, 540), (960, 540), (960, 540), (961, 523), (961, 495), (961, 448), (961, 395), (949, 264), (938, 179), (925, 111)]",265.3358492406526,"[9, 2, 5, 1, 8, 6, 7, 4, 3]","(0, 0.25)",ENG002B,ENG,B,English,Tue Aug 07 11:19:09 2018,Mouse
1,0,2,0,101,6,6,1,488,248,240,134,0,500,200,8000,"[(960, 540), (960, 540), (960, 540), (960, 540), (960, 540), (960, 540), (960, 540), (960, 540), (960, 540), (960, 540), (960, 540), (960, 540), (960, 540), (960, 540), (960, 540), (960, 540), (960, 540), (960, 540), (960, 540), (960, 540), (960, 540), (960, 540), (960, 540), (960, 540), (961, 541), (934, 542), (908, 542), (883, 542), (870, 542), (852, 542), (852, 542), (852, 542), (852, 542), (851, 542), (851, 537), (857, 526), (863, 516), (871, 497), (873, 488), (874, 477), (874, 465), (871, 434), (863, 412), (844, 376), (826, 344), (783, 282), (764, 254), (738, 225), (717, 204)]",234.12500864793594,"[9, 2, 5, 1, 8, 6, 7, 4, 3]","(0, 0.25)",ENG002B,ENG,B,English,Tue Aug 07 11:19:09 2018,Mouse
1,0,2,0,102,9,9,1,360,270,90,134,0,500,200,8000,"[(960, 540), (960, 540), (960, 540), (960, 540), (960, 540), (960, 540), (960, 540), (960, 540), (960, 540), (960, 540), (960, 540), (960, 540), (960, 540), (960, 540), (960, 540), (960, 540), (960, 540), (960, 540), (960, 540), (960, 540), (960, 540), (960, 540), (960, 540), (960, 540), (960, 540), (960, 540), (962, 541), (966, 543), (972, 547), (983, 552), (999, 559), (1096, 586), (1165, 604), (1251, 631), (1338, 646), (1510, 675)]",13.790866897360983,"[9, 2, 5, 1, 8, 6, 7, 4, 3]","(0, 0.25)",ENG002B,ENG,B,English,Tue Aug 07 11:19:09 2018,Mouse
1,0,2,0,103,6,3,0,-1141,1051,90,133,0,500,200,8000,"[(960, 540), (960, 540), (960, 540), (960, 540), (960, 540), (960, 540), (960, 540), (960, 540), (960, 540), (960, 540), (960, 540), (960, 540), (960, 540), (960, 540), (960, 540), (960, 540), (960, 540), (960, 540), (960, 540), (960, 540), (960, 540), (960, 540), (960, 540), (960, 540), (960, 540), (960, 540), (960, 540), (960, 540), (960, 540), (960, 540), (960, 540), (960, 540), (960, 540), (960, 540), (960, 540), (960, 540), (960, 540), (960, 540), (960, 540), (960, 540), (960, 540), (960, 540), (960, 540), (960, 540), (960, 540), (960, 540), (960, 540), (960, 540), (960, 540), (960, 540), (960, 540), (960, 540), (960, 540), (960, 540), (960, 540), (960, 540), (960, 540), (960, 540), (960, 540), (960, 540), (960, 540), (960, 540), (960, 540), (960, 540), (960, 540), (960, 540), (960, 540), (960, 540), (960, 540), (960, 540), (960, 540), (960, 540), (960, 540), (960, 540), (960, 540), (960, 540), (960, 540), (960, 540), (960, 540), (960, 540), (960, 540), (960, 540), (960, 540), (960, 540), (960, 540), (960, 540), (960, 540), (960, 540), (960, 540), (960, 540), (960, 540), (960, 540), (960, 540), (960, 540), (960, 540), (960, 540), (960, 540), (960, 540), (960, 540), (960, 540), (960, 540), (960, 540), (960, 540), (960, 540), (960, 540), (963, 539), (975, 535), (1031, 517), (1077, 499), (1118, 486), (1204, 449), (1247, 429), (1289, 412), (1326, 401), (1370, 389)]",339.7816168635385,"[9, 2, 5, 1, 8, 6, 7, 4, 3]","(0, 0.25)",ENG002B,ENG,B,English,Tue Aug 07 11:19:09 2018,Mouse
1,0,2,0,104,6,6,1,750,550,200,134,0,500,200,8000,"[(960, 540), (960, 540), (960, 540), (960, 540), (960, 540), (960, 540), (960, 540), (960, 540), (960, 540), (960, 540), (960, 540), (960, 540), (960, 540), (960, 540), (960, 540), (960, 540), (960, 540), (960, 540), (960, 540), (960, 540), (960, 540), (960, 540), (960, 540), (960, 540), (960, 540), (960, 540), (960, 540), (960, 540), (960, 540), (960, 540), (960, 540), (960, 540), (960, 540), (960, 540), (960, 540), (960, 540), (960, 540), (960, 540), (960, 540), (960, 540), (960, 540), (960, 540), (960, 540), (960, 540), (960, 540), (960, 540), (960, 540), (960, 540), (960, 540), (960, 540), (960, 540), (960, 540), (960, 540), (960, 540), (958, 540), (956, 540), (954, 540), (953, 540), (948, 541), (946, 541), (945, 541), (944, 543), (944, 543), (944, 543), (944, 543), (943, 543), (940, 543), (935, 543), (924, 538), (904, 522), (840, 466), (793, 431), (750, 392), (702, 350), (615, 288)]",216.14569181167815,"[9, 2, 5, 1, 8, 6, 7, 4, 3]","(0, 0.25)",ENG002B,ENG,B,English,Tue Aug 07 11:19:09 2018,Mouse
1,0,2,0,105,4,4,1,451,391,60,134,0,500,200,8000,"[(960, 540), (960, 540), (960, 540), (960, 540), (960, 540), (960, 540), (960, 540), (960, 540), (960, 540), (960, 540), (960, 540), (960, 540), (960, 540), (960, 540), (960, 540), (960, 540), (960, 540), (960, 540), (960, 540), (960, 540), (960, 540), (960, 540), (960, 540), (960, 540), (960, 540), (960, 540), (960, 540), (960, 540), (960, 540), (960, 540), (960, 540), (960, 540), (960, 540), (960, 540), (960, 540), (960, 540), (960, 540), (960, 540), (963, 534), (973, 510), (996, 461), (1021, 402), (1084, 295), (1116, 238), (1147, 186)]",297.8451907366829,"[9, 2, 5, 1, 8, 6, 7, 4, 3]","(0, 0.25)",ENG002B,ENG,B,English,Tue Aug 07 11:19:09 2018,Mouse
1,0,2,0,106,3,6,0,-430,130,300,133,0,500,200,8000,"[(960, 540), (960, 540), (960, 540), (960, 540), (960, 540), (960, 540), (960, 540), (960, 540), (960, 540), (960, 540), (960, 540), (960, 540), (959, 541), (959, 542), (959, 542), (959, 542), (959, 543), (959, 543), (959, 543), (959, 543), (959, 543), (959, 543), (959, 543), (959, 543), (959, 543), (959, 543), (959, 543), (959, 543), (959, 543), (959, 543), (959, 543), (959, 543), (959, 543), (957, 544), (950, 544), (936, 538), (880, 514), (832, 493), (789, 474), (741, 454), (655, 415), (622, 393), (591, 371)]",204.60752303776903,"[9, 2, 5, 1, 8, 6, 7, 4, 3]","(0, 0.25)",ENG002B,ENG,B,English,Tue Aug 07 11:19:09 2018,Mouse
1,0,2,0,107,8,8,1,949,539,410,134,0,500,200,8000,"[(960, 540), (960, 540), (960, 540), (960, 540), (960, 540), (960, 540), (960, 540), (960, 540), (960, 540), (960, 540), (960, 540), (960, 540), (960, 540), (960, 540), (960, 540), (960, 540), (960, 540), (960, 540), (960, 540), (960, 540), (960, 540), (960, 540), (960, 540), (960, 540), (960, 540), (960, 540), (960, 540), (960, 540), (960, 540), (960, 540), (960, 540), (960, 540), (960, 540), (960, 540), (960, 540), (960, 540), (960, 540), (960, 540), (960, 540), (960, 540), (960, 540), (960, 540), (960, 540), (960, 540), (960, 540), (960, 540), (960, 540), (960, 540), (960, 540), (960, 540), (960, 540), (960, 540), (960, 540), (960, 542), (959, 543), (949, 545), (934, 548), (875, 549), (836, 549), (792, 549), (742, 549), (656, 549), (630, 549), (613, 549), (601, 549), (592, 549), (592, 549), (592, 549), (592, 549), (592, 549), (592, 549), (593, 549), (597, 549), (607, 546), (614, 544), (622, 542), (625, 541), (639, 537), (646, 536), (655, 534), (662, 533), (681, 533), (689, 533), (699, 533), (703, 533), (712, 533), (714, 533), (714, 533), (714, 533), (714, 533), (711, 535), (699, 539), (677, 544), (584, 549), (523, 549)]",178.82016217916996,"[9, 2, 5, 1, 8, 6, 7, 4, 3]","(0, 0.25)",ENG002B,ENG,B,English,Tue Aug 07 11:19:09 2018,Mouse
1,0,2,0,108,5,5,1,701,31,670,134,0,500,200,8000,"[(960, 540), (960, 540), (960, 540), (961, 541), (961, 541), (961, 541), (961, 541), (961, 541), (961, 541), (961, 541), (961, 541), (961, 541), (961, 542), (961, 542), (961, 542), (961, 542), (961, 542), (961, 542), (961, 542), (961, 542), (961, 542), (961, 542), (961, 542), (961, 542), (961, 542), (961, 542), (961, 542), (961, 542), (961, 542), (961, 542), (961, 542), (961, 542), (961, 542), (961, 542), (961, 542), (961, 542), (961, 542), (961, 542), (961, 542), (961, 542), (961, 542), (961, 542), (961, 542), (961, 542), (961, 542), (961, 542), (961, 542), (961, 542), (961, 542), (961, 542), (961, 542), (961, 542), (961, 542), (961, 542), (961, 542), (961, 542), (961, 542), (961, 542), (961, 542), (961, 542), (961, 542), (961, 542), (961, 544), (961, 546), (961, 555), (961, 567), (951, 634), (943, 685), (936, 753), (926, 818), (911, 939)]",97.00126755749534,"[9, 2, 5, 1, 8, 6, 7, 4, 3]","(0, 0.25)",ENG002B,ENG,B,English,Tue Aug 07 11:19:09 2018,Mouse
1,0,2,0,109,4,4,1,381,331,50,133,0,500,200,8000,"[(960, 540), (960, 540), (960, 540), (960, 540), (960, 540), (960, 540), (960, 540), (960, 540), (960, 540), (960, 540), (960, 540), (960, 540), (960, 540), (960, 540), (960, 540), (960, 540), (960, 540), (960, 540), (960, 540), (960, 540), (960, 540), (960, 540), (960, 540), (960, 540), (960, 540), (960, 540), (960, 540), (960, 540), (960, 540), (960, 540), (960, 540), (960, 540), (960, 540), (973, 526), (1032, 447), (1070, 392), (1102, 334), (1138, 261), (1168, 196)]",301.1593045083444,"[9, 2, 5, 1, 8, 6, 7, 4, 3]","(0, 0.25)",ENG002B,ENG,B,English,Tue Aug 07 11:19:09 2018,Mouse
1,0,2,0,110,5,6,0,-509,469,40,132,0,500,200,8000,"[(960, 540), (960, 540), (960, 540), (960, 540), (960, 540), (960, 540), (960, 540), (960, 540), (960, 540), (960, 540), (960, 540), (960, 540), (960, 540), (960, 540), (960, 540), (960, 540), (960, 540), (960, 540), (960, 540), (960, 540), (960, 540), (960, 540), (960, 540), (960, 540), (960, 540), (960, 540), (960, 540), (960, 540), (960, 540), (960, 540), (960, 540), (960, 540), (960, 540), (960, 540), (960, 540), (960, 540), (960, 540), (960, 540), (960, 540), (960, 540), (960, 540), (960, 540), (960, 540), (960, 540), (960, 540), (960, 540), (934, 511), (889, 434), (832, 359), (765, 283), (638, 160)]",229.72311178979027,"[9, 2, 5, 1, 8, 6, 7, 4, 3]","(0, 0.25)",ENG002B,ENG,B,English,Tue Aug 07 11:19:09 2018,Mouse
1,0,2,0,111,4,3,0,-590,540,50,133,0,500,200,8000,"[(960, 540), (960, 540), (960, 540), (960, 540), (960, 540), (960, 540), (960, 540), (960, 540), (960, 540), (960, 540), (960, 540), (960, 540), (960, 540), (960, 540), (960, 540), (960, 540), (960, 540), (960, 540), (960, 540), (960, 540), (960, 540), (960, 540), (960, 540), (960, 540), (960, 540), (960, 540), (960, 540), (960, 540), (960, 540), (960, 540), (960, 540), (960, 540), (960, 540), (960, 540), (960, 540), (960, 540), (960, 540), (960, 540), (960, 540), (960, 540), (960, 540), (960, 540), (960, 540), (960, 540), (960, 540), (960, 540), (960, 540), (960, 540), (960, 540), (960, 540), (960, 540), (960, 540), (960, 540), (963, 540), (1004, 532), (1055, 514), (1133, 482), (1239, 437), (1480, 352)]",340.1231278053967,"[9, 2, 5, 1, 8, 6, 7, 4, 3]","(0, 0.25)",ENG002B,ENG,B,English,Tue Aug 07 11:19:09 2018,Mouse
1,0,2,0,112,9,9,1,310,240,70,134,0,500,200,8000,"[(960, 540), (960, 540), (960, 540), (960, 540), (960, 540), (960, 540), (960, 540), (960, 540), (960, 540), (960, 540), (960, 540), (960, 540), (960, 540), (960, 540), (960, 540), (960, 540), (960, 540), (960, 540), (960, 540), (960, 540), (960, 540), (960, 540), (960, 540), (961, 540), (968, 546), (984, 559), (1043, 606), (1093, 635), (1150, 667), (1212, 690), (1354, 745)]",27.488166131690388,"[9, 2, 5, 1, 8, 6, 7, 4, 3]","(0, 0.25)",ENG002B,ENG,B,English,Tue Aug 07 11:19:09 2018,Mouse
1,0,2,0,113,6,6,1,409,339,70,134,0,500,200,8000,"[(960, 540), (960, 540), (960, 540), (960, 540), (960, 540), (960, 540), (960, 540), (960, 540), (960, 540), (960, 540), (960, 540), (960, 540), (960, 540), (960, 540), (960, 540), (960, 540), (960, 540), (960, 540), (960, 540), (960, 540), (960, 540), (960, 540), (960, 540), (960, 540), (960, 540), (960, 540), (960, 540), (960, 540), (960, 540), (960, 540), (960, 540), (960, 540), (960, 540), (958, 540), (954, 540), (925, 514), (893, 486), (851, 454), (795, 415), (675, 342), (611, 305)]",213.95444960247403,"[9, 2, 5, 1, 8, 6, 7, 4, 3]","(0, 0.25)",ENG002B,ENG,B,English,Tue Aug 07 11:19:09 2018,Mouse
1,0,2,0,114,7,5,0,-680,640,40,133,0,500,200,8000,"[(960, 540), (960, 540), (960, 540), (960, 540), (960, 540), (960, 540), (960, 540), (960, 540), (960, 540), (960, 540), (960, 540), (960, 540), (960, 540), (960, 540), (960, 540), (960, 540), (960, 540), (960, 540), (960, 540), (960, 540), (960, 540), (960, 540), (960, 540), (960, 540), (960, 540), (960, 540), (960, 540), (960, 540), (960, 540), (960, 540), (960, 540), (960, 540), (960, 540), (960, 540), (960, 540), (960, 540), (960, 540), (960, 540), (960, 540), (960, 540), (960, 540), (960, 540), (960, 540), (960, 540), (960, 540), (960, 540), (960, 540), (960, 540), (960, 540), (960, 540), (960, 540), (960, 540), (960, 540), (960, 540), (960, 540), (960, 540), (960, 540), (960, 540), (960, 540), (960, 540), (960, 540), (960, 540), (960, 540), (960, 544), (956, 566), (931, 756), (904, 912), (882, 1079)]",98.23424933282932,"[9, 2, 5, 1, 8, 6, 7, 4, 3]","(0, 0.25)",ENG002B,ENG,B,English,Tue Aug 07 11:19:09 2018,Mouse
