NativeLangNumber,LanuageNumber,SessionNumber,Block,TrialNum,ConditionNumber,Response,Accuracy,RT,MovementOnsetTime,TimeInMotion,SignalContrast,SignalContrastNumber,StimDisplayTime,MaskTime,MaxResponseTime,MousePositionXY,MouseAngle,WheelOrder,NoiseMuSigma,ParticipantID,LanuageTested,SessionTested,NativeLanuage,Date,ResponseDevice
1,0,1,0,1,3,3,1,1002,812,190,153,0,500,200,8000,"[(960, 540), (960, 540), (960, 540), (960, 540), (960, 540), (960, 540), (960, 540), (960, 540), (960, 540), (960, 540), (960, 540), (960, 540), (960, 540), (960, 540), (960, 540), (960, 540), (960, 540), (960, 540), (960, 540), (960, 540), (960, 540), (960, 540), (960, 540), (960, 540), (960, 540), (960, 540), (960, 540), (960, 540), (960, 540), (960, 540), (960, 540), (960, 540), (960, 540), (960, 540), (960, 540), (960, 540), (960, 540), (960, 540), (960, 540), (960, 540), (960, 540), (960, 540), (960, 540), (960, 540), (960, 540), (960, 540), (960, 540), (960, 540), (960, 540), (960, 540), (960, 540), (960, 540), (960, 540), (960, 540), (960, 540), (960, 540), (960, 540), (960, 540), (960, 540), (960, 540), (960, 540), (960, 540), (960, 540), (960, 540), (960, 540), (960, 540), (960, 540), (960, 540), (960, 540), (960, 540), (960, 540), (960, 540), (960, 540), (960, 540), (960, 540), (960, 540), (960, 540), (960, 540), (960, 540), (960, 540), (960, 540), (966, 522), (975, 504), (982, 487), (989, 469), (1003, 426), (1008, 405), (1016, 377), (1022, 352), (1028, 307), (1029, 290), (1029, 276), (1029, 261), (1029, 233), (1027, 220), (1025, 209), (1021, 197), (1014, 170), (1011, 157), (1005, 144), (1002, 131)]",275.86312268391134,"[5, 6, 7, 8, 9, 2, 3, 1, 4]","(0, 0.25)",ENG005A,ENG,A,English,Wed Aug 15 11:09:19 2018,Mouse
1,0,1,0,2,1,1,1,770,480,290,153,0,500,200,8000,"[(960, 540), (960, 540), (960, 540), (960, 540), (960, 540), (960, 540), (960, 540), (960, 540), (960, 540), (960, 540), (960, 540), (960, 540), (960, 540), (960, 540), (960, 540), (960, 540), (960, 540), (960, 540), (960, 540), (960, 540), (960, 540), (960, 540), (960, 540), (960, 540), (960, 540), (960, 540), (960, 540), (960, 540), (960, 540), (960, 540), (960, 540), (960, 540), (960, 540), (960, 540), (960, 540), (960, 540), (960, 540), (960, 540), (960, 540), (960, 540), (960, 540), (960, 540), (960, 540), (960, 540), (960, 540), (960, 540), (960, 540), (965, 540), (974, 529), (980, 513), (990, 490), (1011, 437), (1020, 417), (1029, 396), (1036, 383), (1045, 361), (1049, 351), (1054, 341), (1056, 330), (1063, 308), (1066, 297), (1068, 287), (1071, 278), (1078, 264), (1081, 258), (1083, 254), (1087, 249), (1092, 242), (1094, 239), (1097, 235), (1101, 230), (1112, 214), (1116, 209), (1121, 202), (1127, 195), (1140, 184), (1149, 177)]",297.5042421228136,"[5, 6, 7, 8, 9, 2, 3, 1, 4]","(0, 0.25)",ENG005A,ENG,A,English,Wed Aug 15 11:09:19 2018,Mouse
1,0,1,0,3,5,5,1,730,300,430,152,0,500,200,8000,"[(960, 540), (960, 540), (960, 540), (960, 540), (960, 540), (960, 540), (960, 540), (960, 540), (960, 540), (960, 540), (960, 540), (960, 540), (960, 540), (960, 540), (960, 540), (960, 540), (960, 540), (960, 540), (960, 540), (960, 540), (960, 540), (960, 540), (960, 540), (960, 540), (960, 540), (960, 540), (960, 540), (960, 540), (960, 540), (960, 541), (958, 543), (958, 543), (957, 544), (957, 544), (957, 544), (957, 544), (957, 546), (957, 546), (957, 546), (957, 546), (957, 546), (957, 546), (957, 546), (957, 547), (959, 550), (975, 559), (981, 563), (990, 569), (1001, 576), (1019, 587), (1031, 592), (1045, 598), (1058, 604), (1090, 617), (1104, 622), (1125, 629), (1142, 634), (1168, 640), (1178, 642), (1189, 645), (1197, 648), (1217, 653), (1227, 655), (1235, 655), (1244, 657), (1261, 658), (1271, 661), (1281, 663), (1291, 664), (1312, 667), (1323, 668), (1336, 672), (1347, 674)]",19.098576822935264,"[5, 6, 7, 8, 9, 2, 3, 1, 4]","(0, 0.25)",ENG005A,ENG,A,English,Wed Aug 15 11:09:19 2018,Mouse
1,0,1,0,4,4,4,1,470,320,150,151,0,500,200,8000,"[(960, 540), (960, 540), (960, 540), (960, 540), (960, 540), (960, 540), (960, 540), (960, 540), (960, 540), (960, 540), (960, 540), (960, 540), (960, 540), (960, 540), (960, 540), (960, 540), (960, 540), (960, 540), (960, 540), (960, 540), (960, 540), (960, 540), (960, 540), (960, 540), (960, 540), (960, 540), (960, 540), (960, 540), (960, 540), (960, 540), (960, 540), (980, 532), (1035, 509), (1068, 491), (1092, 478), (1117, 463), (1162, 440), (1181, 429), (1200, 419), (1217, 413), (1239, 400), (1249, 396), (1259, 391), (1279, 380), (1294, 373), (1304, 366), (1317, 359)]",333.1148639991403,"[5, 6, 7, 8, 9, 2, 3, 1, 4]","(0, 0.25)",ENG005A,ENG,A,English,Wed Aug 15 11:09:19 2018,Mouse
1,0,1,0,5,7,7,1,710,510,200,150,0,500,200,8000,"[(960, 540), (960, 540), (960, 540), (960, 540), (960, 540), (960, 540), (960, 540), (960, 540), (960, 540), (960, 540), (960, 540), (960, 540), (960, 540), (960, 540), (960, 540), (960, 540), (960, 540), (960, 540), (960, 540), (960, 540), (960, 540), (960, 540), (960, 540), (960, 540), (960, 540), (960, 540), (960, 540), (960, 540), (960, 540), (960, 540), (960, 540), (960, 540), (960, 540), (960, 540), (960, 540), (960, 540), (960, 540), (960, 540), (960, 540), (960, 540), (960, 540), (960, 540), (960, 540), (960, 540), (960, 540), (960, 540), (960, 540), (960, 540), (960, 540), (960, 540), (959, 542), (959, 551), (958, 557), (957, 563), (955, 570), (948, 590), (946, 600), (943, 609), (941, 622), (931, 644), (926, 657), (923, 671), (917, 685), (912, 725), (911, 748), (906, 775), (899, 805), (891, 863), (888, 895), (883, 925), (881, 942)]",101.11794159059723,"[5, 6, 7, 8, 9, 2, 3, 1, 4]","(0, 0.25)",ENG005A,ENG,A,English,Wed Aug 15 11:09:19 2018,Mouse
1,0,1,0,6,4,4,1,791,491,300,149,0,500,200,8000,"[(960, 540), (960, 540), (960, 540), (960, 540), (960, 540), (960, 540), (960, 540), (960, 540), (960, 540), (960, 540), (960, 540), (960, 540), (960, 540), (960, 540), (960, 540), (960, 540), (960, 540), (960, 540), (960, 540), (960, 540), (960, 540), (960, 540), (960, 540), (960, 540), (960, 540), (960, 540), (960, 540), (960, 540), (960, 540), (960, 540), (960, 540), (960, 540), (960, 540), (960, 540), (960, 540), (960, 540), (960, 540), (960, 540), (960, 540), (960, 540), (960, 540), (960, 540), (960, 540), (960, 540), (960, 540), (960, 540), (960, 540), (960, 540), (960, 540), (963, 538), (971, 534), (983, 531), (1004, 525), (1017, 523), (1026, 518), (1036, 516), (1050, 512), (1056, 511), (1062, 507), (1071, 506), (1088, 501), (1098, 497), (1106, 496), (1116, 493), (1135, 488), (1145, 485), (1156, 482), (1165, 482), (1184, 475), (1196, 473), (1208, 470), (1221, 465), (1246, 458), (1260, 454), (1271, 450), (1285, 446), (1316, 437), (1329, 432), (1343, 428), (1355, 424)]",343.63402201399117,"[5, 6, 7, 8, 9, 2, 3, 1, 4]","(0, 0.25)",ENG005A,ENG,A,English,Wed Aug 15 11:09:19 2018,Mouse
1,0,1,0,7,9,9,1,1489,1259,230,148,0,500,200,8000,"[(960, 540), (960, 540), (960, 540), (960, 540), (960, 540), (960, 540), (960, 540), (960, 540), (960, 540), (960, 540), (960, 540), (960, 540), (960, 540), (960, 540), (960, 540), (960, 540), (960, 540), (960, 540), (960, 540), (960, 540), (960, 540), (960, 540), (960, 540), (960, 540), (960, 540), (960, 540), (960, 540), (960, 540), (960, 540), (960, 540), (960, 540), (960, 540), (960, 540), (960, 540), (960, 540), (960, 540), (960, 540), (960, 540), (960, 540), (960, 540), (960, 540), (960, 540), (960, 540), (960, 540), (960, 540), (960, 540), (960, 540), (960, 540), (960, 540), (960, 540), (960, 540), (960, 540), (960, 540), (960, 540), (960, 540), (960, 540), (960, 540), (960, 540), (960, 540), (960, 540), (960, 540), (960, 540), (960, 540), (960, 540), (960, 540), (960, 540), (960, 540), (960, 540), (960, 540), (960, 540), (960, 540), (960, 540), (960, 540), (960, 540), (960, 540), (960, 540), (960, 540), (960, 540), (960, 540), (960, 540), (960, 540), (960, 540), (960, 540), (960, 540), (960, 540), (960, 540), (960, 540), (960, 540), (960, 540), (960, 540), (960, 540), (960, 540), (960, 540), (960, 540), (960, 540), (960, 540), (960, 540), (960, 540), (960, 540), (960, 540), (960, 540), (960, 540), (960, 540), (960, 540), (960, 540), (960, 540), (960, 540), (960, 540), (960, 540), (960, 540), (960, 540), (960, 540), (960, 540), (960, 540), (960, 540), (960, 540), (960, 540), (960, 540), (960, 540), (960, 540), (960, 540), (960, 540), (960, 540), (960, 540), (960, 540), (957, 541), (952, 544), (924, 549), (909, 550), (893, 550), (873, 550), (828, 550), (809, 550), (795, 550), (784, 550), (765, 549), (758, 548), (750, 548), (741, 547), (721, 545), (708, 545), (698, 545), (685, 545), (657, 545), (640, 545), (624, 545), (607, 545), (577, 545), (557, 545)]",179.28917072092884,"[5, 6, 7, 8, 9, 2, 3, 1, 4]","(0, 0.25)",ENG005A,ENG,A,English,Wed Aug 15 11:09:19 2018,Mouse
1,0,1,0,8,2,2,1,1000,780,220,147,0,500,200,8000,"[(960, 540), (960, 540), (960, 540), (960, 540), (960, 540), (960, 540), (960, 540), (960, 540), (960, 540), (960, 540), (960, 540), (960, 540), (960, 540), (960, 540), (960, 540), (960, 540), (960, 540), (960, 540), (960, 540), (960, 540), (960, 540), (960, 540), (960, 540), (960, 540), (960, 540), (960, 540), (960, 540), (960, 540), (960, 540), (960, 540), (960, 540), (960, 540), (960, 540), (960, 540), (960, 540), (960, 540), (960, 540), (960, 540), (960, 540), (960, 540), (960, 540), (960, 540), (960, 540), (960, 540), (960, 540), (960, 540), (960, 540), (960, 540), (960, 540), (960, 540), (960, 540), (960, 540), (960, 540), (960, 540), (960, 540), (960, 540), (960, 540), (960, 540), (960, 540), (960, 540), (960, 540), (960, 540), (960, 540), (960, 540), (960, 540), (960, 540), (960, 540), (960, 540), (960, 540), (960, 540), (960, 540), (960, 540), (960, 540), (960, 540), (960, 540), (960, 540), (960, 540), (961, 538), (955, 528), (945, 516), (936, 507), (907, 483), (891, 476), (874, 463), (855, 452), (820, 425), (810, 416), (798, 406), (784, 396), (764, 379), (753, 369), (742, 360), (729, 350), (707, 333), (698, 325), (689, 317), (682, 308), (671, 292), (661, 278), (653, 269)]",221.43600853293603,"[5, 6, 7, 8, 9, 2, 3, 1, 4]","(0, 0.25)",ENG005A,ENG,A,English,Wed Aug 15 11:09:19 2018,Mouse
1,0,1,0,9,8,8,1,1179,909,270,146,0,500,200,8000,"[(960, 540), (960, 540), (960, 540), (960, 540), (960, 540), (960, 540), (960, 540), (960, 540), (960, 540), (960, 540), (960, 540), (960, 540), (960, 540), (960, 540), (960, 540), (960, 540), (960, 540), (960, 540), (960, 540), (960, 540), (960, 540), (960, 540), (960, 540), (960, 540), (960, 540), (960, 540), (960, 540), (960, 540), (960, 540), (960, 540), (960, 540), (960, 540), (960, 540), (960, 540), (960, 540), (960, 540), (960, 540), (960, 540), (960, 540), (960, 540), (960, 540), (960, 540), (960, 540), (960, 540), (960, 540), (960, 540), (960, 540), (960, 540), (960, 540), (960, 540), (960, 540), (960, 540), (960, 540), (960, 540), (960, 540), (960, 540), (960, 540), (960, 540), (960, 540), (960, 540), (960, 540), (960, 540), (960, 540), (960, 540), (960, 540), (960, 540), (960, 540), (960, 540), (960, 540), (960, 540), (960, 540), (960, 540), (960, 540), (960, 540), (960, 540), (960, 540), (960, 540), (960, 540), (960, 540), (960, 540), (960, 540), (960, 540), (960, 540), (960, 540), (960, 540), (960, 540), (960, 540), (960, 540), (960, 540), (960, 540), (960, 543), (960, 550), (955, 558), (937, 577), (929, 586), (920, 596), (908, 604), (887, 623), (875, 632), (863, 642), (852, 650), (829, 667), (818, 673), (804, 681), (787, 690), (767, 704), (758, 709), (751, 714), (743, 719), (722, 730), (709, 737), (700, 743), (691, 747), (668, 757), (660, 761), (650, 766), (638, 771), (621, 779)]",144.81559888275368,"[5, 6, 7, 8, 9, 2, 3, 1, 4]","(0, 0.25)",ENG005A,ENG,A,English,Wed Aug 15 11:09:19 2018,Mouse
1,0,1,0,10,3,3,1,722,422,300,145,0,500,200,8000,"[(960, 540), (960, 540), (960, 540), (960, 540), (960, 540), (960, 540), (960, 540), (960, 540), (960, 540), (960, 540), (960, 540), (960, 540), (960, 540), (960, 540), (960, 540), (960, 540), (960, 540), (960, 540), (960, 540), (960, 540), (960, 540), (960, 540), (960, 540), (960, 540), (960, 540), (960, 540), (960, 540), (960, 540), (960, 540), (960, 540), (960, 540), (960, 540), (960, 540), (960, 540), (960, 540), (960, 540), (960, 540), (960, 540), (960, 540), (960, 540), (960, 540), (960, 540), (964, 538), (966, 536), (970, 535), (973, 534), (976, 531), (978, 530), (979, 530), (979, 530), (980, 530), (981, 529), (982, 527), (984, 525), (989, 517), (994, 509), (998, 497), (1002, 482), (1011, 443), (1014, 419), (1014, 400), (1016, 376), (1016, 332), (1016, 304), (1016, 281), (1012, 257), (1002, 216), (997, 202), (995, 190), (990, 178), (981, 157), (978, 147), (974, 137)]",271.9896239805233,"[5, 6, 7, 8, 9, 2, 3, 1, 4]","(0, 0.25)",ENG005A,ENG,A,English,Wed Aug 15 11:09:19 2018,Mouse
1,0,1,0,11,5,5,1,990,30,960,144,0,500,200,8000,"[(960, 540), (960, 540), (960, 542), (960, 544), (960, 546), (960, 548), (960, 549), (960, 550), (960, 551), (960, 551), (960, 551), (960, 551), (960, 552), (960, 553), (959, 555), (959, 555), (957, 556), (957, 557), (955, 559), (953, 560), (953, 561), (953, 561), (953, 561), (953, 561), (953, 561), (953, 561), (953, 561), (953, 561), (953, 561), (953, 562), (953, 562), (952, 563), (952, 565), (952, 565), (952, 565), (952, 565), (952, 565), (952, 565), (952, 565), (952, 565), (952, 565), (952, 565), (952, 565), (952, 565), (952, 565), (952, 565), (952, 565), (952, 565), (952, 565), (952, 565), (952, 565), (952, 565), (952, 565), (952, 565), (952, 565), (952, 565), (952, 565), (952, 565), (951, 568), (951, 568), (951, 569), (951, 571), (951, 571), (951, 572), (952, 575), (954, 577), (957, 579), (959, 580), (970, 585), (979, 589), (989, 594), (999, 599), (1023, 612), (1035, 619), (1046, 626), (1061, 636), (1096, 656), (1115, 666), (1131, 674), (1150, 685), (1173, 693), (1183, 698), (1192, 701), (1201, 703), (1216, 709), (1222, 712), (1229, 713), (1236, 716), (1245, 716), (1249, 716), (1253, 716), (1257, 716), (1264, 713), (1269, 712), (1277, 710), (1286, 708), (1308, 706), (1320, 702), (1331, 699)]",23.19859051364819,"[5, 6, 7, 8, 9, 2, 3, 1, 4]","(0, 0.25)",ENG005A,ENG,A,English,Wed Aug 15 11:09:19 2018,Mouse
1,0,1,0,12,5,5,1,931,621,310,143,0,500,200,8000,"[(960, 540), (960, 540), (960, 540), (960, 540), (960, 540), (960, 540), (960, 540), (960, 540), (960, 540), (960, 540), (960, 540), (960, 540), (960, 540), (960, 540), (960, 540), (960, 540), (960, 540), (960, 540), (960, 540), (960, 540), (960, 540), (960, 540), (960, 540), (960, 540), (960, 540), (960, 540), (960, 540), (960, 540), (960, 540), (960, 540), (960, 540), (960, 540), (960, 540), (960, 540), (960, 540), (960, 540), (960, 540), (960, 540), (960, 540), (960, 540), (960, 540), (960, 540), (960, 540), (960, 540), (960, 540), (960, 540), (960, 540), (960, 540), (960, 540), (960, 540), (960, 540), (960, 540), (960, 540), (960, 540), (960, 540), (960, 540), (960, 540), (960, 540), (960, 540), (960, 540), (960, 540), (960, 540), (960, 539), (963, 538), (968, 537), (984, 535), (993, 533), (1001, 532), (1010, 532), (1032, 532), (1043, 532), (1051, 532), (1058, 532), (1073, 531), (1081, 531), (1089, 531), (1099, 531), (1117, 531), (1127, 532), (1135, 532), (1143, 534), (1164, 536), (1170, 538), (1178, 540), (1186, 542), (1205, 548), (1218, 551), (1234, 556), (1246, 561), (1280, 575), (1298, 582), (1319, 591), (1342, 602), (1376, 618)]",10.619655276155134,"[5, 6, 7, 8, 9, 2, 3, 1, 4]","(0, 0.25)",ENG005A,ENG,A,English,Wed Aug 15 11:09:19 2018,Mouse
1,0,1,0,13,9,9,1,1370,1150,220,142,0,500,200,8000,"[(960, 540), (960, 540), (960, 540), (960, 540), (960, 540), (960, 540), (960, 540), (960, 540), (960, 540), (960, 540), (960, 540), (960, 540), (960, 540), (960, 540), (960, 540), (960, 540), (960, 540), (960, 540), (960, 540), (960, 540), (960, 540), (960, 540), (960, 540), (960, 540), (960, 540), (960, 540), (960, 540), (960, 540), (960, 540), (960, 540), (960, 540), (960, 540), (960, 540), (960, 540), (960, 540), (960, 540), (960, 540), (960, 540), (960, 540), (960, 540), (960, 540), (960, 540), (960, 540), (960, 540), (960, 540), (960, 540), (960, 540), (960, 540), (960, 540), (960, 540), (960, 540), (960, 540), (960, 540), (960, 540), (960, 540), (960, 540), (960, 540), (960, 540), (960, 540), (960, 540), (960, 540), (960, 540), (960, 540), (960, 540), (960, 540), (960, 540), (960, 540), (960, 540), (960, 540), (960, 540), (960, 540), (960, 540), (960, 540), (960, 540), (960, 540), (960, 540), (960, 540), (960, 540), (960, 540), (960, 540), (960, 540), (960, 540), (960, 540), (960, 540), (960, 540), (960, 540), (960, 540), (960, 540), (960, 540), (960, 540), (960, 540), (960, 540), (960, 540), (960, 540), (960, 540), (960, 540), (960, 540), (960, 540), (960, 540), (960, 540), (960, 540), (960, 540), (960, 540), (960, 540), (960, 540), (960, 540), (960, 540), (960, 540), (960, 540), (960, 540), (960, 540), (960, 540), (960, 540), (960, 540), (952, 540), (941, 542), (929, 544), (917, 548), (886, 551), (870, 554), (853, 554), (839, 554), (807, 554), (795, 554), (784, 554), (770, 554), (742, 554), (727, 552), (713, 551), (696, 549), (658, 542), (643, 541), (624, 538), (609, 538), (577, 538), (561, 536), (549, 535)]",180.69699456456306,"[5, 6, 7, 8, 9, 2, 3, 1, 4]","(0, 0.25)",ENG005A,ENG,A,English,Wed Aug 15 11:09:19 2018,Mouse
1,0,1,0,14,2,2,1,1010,720,290,141,0,500,200,8000,"[(960, 540), (960, 540), (960, 540), (960, 540), (960, 540), (960, 540), (960, 540), (960, 540), (960, 540), (960, 540), (960, 540), (960, 540), (960, 540), (960, 540), (960, 540), (960, 540), (960, 540), (960, 540), (960, 540), (960, 540), (960, 540), (960, 540), (960, 540), (960, 540), (960, 540), (960, 540), (960, 540), (960, 540), (960, 540), (960, 540), (960, 540), (960, 540), (960, 540), (960, 540), (960, 540), (960, 540), (960, 540), (960, 540), (960, 540), (960, 540), (960, 540), (960, 540), (960, 540), (960, 540), (960, 540), (960, 540), (960, 540), (960, 540), (960, 540), (960, 540), (960, 540), (960, 540), (960, 540), (960, 540), (960, 540), (960, 540), (960, 540), (960, 540), (960, 540), (960, 540), (960, 540), (960, 540), (960, 540), (960, 540), (960, 540), (960, 540), (960, 540), (960, 540), (960, 540), (960, 540), (960, 540), (961, 535), (961, 523), (961, 519), (961, 517), (961, 515), (959, 513), (958, 513), (958, 513), (957, 512), (956, 511), (955, 511), (953, 511), (953, 510), (947, 508), (945, 508), (943, 508), (941, 508), (932, 505), (927, 502), (917, 498), (908, 493), (882, 480), (861, 471), (836, 462), (801, 447), (733, 422), (702, 410), (670, 396), (639, 383), (593, 360)]",206.12625181679786,"[5, 6, 7, 8, 9, 2, 3, 1, 4]","(0, 0.25)",ENG005A,ENG,A,English,Wed Aug 15 11:09:19 2018,Mouse
1,0,1,0,15,1,1,1,689,449,240,140,0,500,200,8000,"[(960, 540), (960, 540), (960, 540), (960, 540), (960, 540), (960, 540), (960, 540), (960, 540), (960, 540), (960, 540), (960, 540), (960, 540), (960, 540), (960, 540), (960, 540), (960, 540), (960, 540), (960, 540), (960, 540), (960, 540), (960, 540), (960, 540), (960, 540), (960, 540), (960, 540), (960, 540), (960, 540), (960, 540), (960, 540), (960, 540), (960, 540), (960, 540), (960, 540), (960, 540), (960, 540), (960, 540), (960, 540), (960, 540), (960, 540), (960, 540), (960, 540), (960, 540), (960, 540), (960, 540), (961, 541), (966, 536), (982, 509), (991, 495), (1001, 477), (1009, 465), (1016, 450), (1035, 420), (1043, 402), (1053, 383), (1061, 365), (1074, 339), (1085, 324), (1090, 312), (1097, 302), (1110, 283), (1114, 274), (1118, 267), (1120, 260), (1129, 240), (1132, 230), (1136, 221), (1145, 200), (1148, 191), (1152, 184)]",298.3391320358959,"[5, 6, 7, 8, 9, 2, 3, 1, 4]","(0, 0.25)",ENG005A,ENG,A,English,Wed Aug 15 11:09:19 2018,Mouse
1,0,1,0,16,5,5,1,761,541,220,139,0,500,200,8000,"[(960, 540), (960, 540), (960, 540), (960, 540), (960, 540), (960, 540), (960, 540), (960, 540), (960, 540), (960, 540), (960, 540), (960, 540), (960, 540), (960, 540), (960, 540), (960, 540), (960, 540), (960, 540), (960, 540), (960, 540), (960, 540), (960, 540), (960, 540), (960, 540), (960, 540), (960, 540), (960, 540), (960, 540), (960, 540), (960, 540), (960, 540), (960, 540), (960, 540), (960, 540), (960, 540), (960, 540), (960, 540), (960, 540), (960, 540), (960, 540), (960, 540), (960, 540), (960, 540), (960, 540), (960, 540), (960, 540), (960, 540), (960, 540), (960, 540), (960, 540), (960, 540), (960, 540), (960, 540), (960, 540), (964, 542), (975, 545), (987, 546), (1027, 559), (1045, 562), (1065, 567), (1087, 575), (1129, 585), (1151, 591), (1165, 596), (1179, 598), (1205, 606), (1215, 607), (1229, 612), (1239, 613), (1260, 620), (1270, 623), (1281, 625), (1289, 628), (1315, 635), (1323, 637), (1336, 641), (1347, 643)]",14.90376922491288,"[5, 6, 7, 8, 9, 2, 3, 1, 4]","(0, 0.25)",ENG005A,ENG,A,English,Wed Aug 15 11:09:19 2018,Mouse
1,0,1,0,17,6,6,1,1730,240,1490,138,0,500,200,8000,"[(960, 540), (960, 540), (960, 540), (960, 540), (960, 540), (960, 540), (960, 540), (960, 540), (960, 540), (960, 540), (960, 540), (960, 540), (960, 540), (960, 540), (960, 540), (960, 540), (960, 540), (960, 540), (960, 540), (960, 540), (960, 540), (960, 540), (960, 540), (959, 540), (957, 540), (957, 543), (956, 545), (956, 546), (956, 546), (956, 546), (956, 546), (956, 546), (956, 546), (956, 546), (956, 546), (956, 546), (956, 546), (956, 546), (956, 546), (956, 546), (956, 546), (956, 546), (956, 546), (956, 546), (956, 546), (956, 546), (956, 546), (956, 546), (956, 546), (956, 546), (956, 546), (956, 546), (956, 546), (956, 546), (956, 546), (956, 546), (956, 546), (956, 546), (956, 546), (956, 546), (956, 546), (956, 546), (956, 546), (956, 546), (956, 546), (956, 546), (956, 546), (956, 546), (956, 546), (956, 546), (956, 546), (954, 540), (952, 536), (951, 535), (950, 533), (949, 532), (949, 532), (949, 532), (949, 532), (949, 532), (949, 532), (949, 532), (949, 532), (949, 532), (949, 532), (949, 532), (949, 532), (949, 532), (949, 532), (949, 532), (949, 532), (949, 532), (949, 532), (949, 532), (949, 532), (949, 532), (949, 532), (949, 532), (949, 532), (947, 531), (945, 531), (941, 532), (940, 533), (936, 536), (934, 537), (934, 537), (931, 540), (931, 540), (931, 540), (931, 540), (931, 540), (931, 540), (931, 540), (931, 540), (931, 540), (931, 540), (931, 540), (931, 540), (931, 540), (931, 540), (931, 540), (931, 540), (931, 540), (931, 540), (931, 540), (931, 540), (931, 540), (931, 540), (931, 540), (931, 540), (931, 540), (931, 540), (931, 540), (931, 540), (931, 540), (931, 540), (931, 540), (931, 540), (931, 540), (931, 540), (930, 540), (931, 544), (933, 546), (943, 556), (951, 563), (957, 568), (966, 574), (982, 586), (990, 591), (999, 595), (1007, 600), (1022, 609), (1030, 616), (1038, 622), (1043, 628), (1059, 646), (1067, 654), (1074, 662), (1083, 672), (1095, 690), (1102, 699), (1106, 706), (1111, 715), (1123, 740), (1130, 755), (1133, 768), (1139, 784), (1148, 815), (1151, 829), (1154, 840), (1158, 851), (1164, 873), (1168, 886)]",58.987563972831516,"[5, 6, 7, 8, 9, 2, 3, 1, 4]","(0, 0.25)",ENG005A,ENG,A,English,Wed Aug 15 11:09:19 2018,Mouse
1,0,1,0,18,2,2,1,958,738,220,137,0,500,200,8000,"[(960, 540), (960, 540), (960, 540), (960, 540), (960, 540), (960, 540), (960, 540), (960, 540), (960, 540), (960, 540), (960, 540), (960, 540), (960, 540), (960, 540), (960, 540), (960, 540), (960, 540), (960, 540), (960, 540), (960, 540), (960, 540), (960, 540), (960, 540), (960, 540), (960, 540), (960, 540), (960, 540), (960, 540), (960, 540), (960, 540), (960, 540), (960, 540), (960, 540), (960, 540), (960, 540), (960, 540), (960, 540), (960, 540), (960, 540), (960, 540), (960, 540), (960, 540), (960, 540), (960, 540), (960, 540), (960, 540), (960, 540), (960, 540), (960, 540), (960, 540), (960, 540), (960, 540), (960, 540), (960, 540), (960, 540), (960, 540), (960, 540), (960, 540), (960, 540), (960, 540), (960, 540), (960, 540), (960, 540), (960, 540), (960, 540), (960, 540), (960, 540), (960, 540), (960, 540), (960, 540), (960, 540), (960, 540), (960, 540), (954, 536), (947, 532), (935, 525), (925, 520), (903, 506), (892, 500), (877, 492), (864, 484), (833, 464), (818, 452), (805, 441), (783, 425), (756, 404), (740, 393), (725, 383), (714, 375), (693, 360), (680, 350), (669, 343), (659, 337), (640, 322), (633, 317), (628, 312)]",214.47921568612563,"[5, 6, 7, 8, 9, 2, 3, 1, 4]","(0, 0.25)",ENG005A,ENG,A,English,Wed Aug 15 11:09:19 2018,Mouse
1,0,1,0,19,7,7,1,848,508,340,136,0,500,200,8000,"[(960, 540), (960, 540), (960, 540), (960, 540), (960, 540), (960, 540), (960, 540), (960, 540), (960, 540), (960, 540), (960, 540), (960, 540), (960, 540), (960, 540), (960, 540), (960, 540), (960, 540), (960, 540), (960, 540), (960, 540), (960, 540), (960, 540), (960, 540), (960, 540), (960, 540), (960, 540), (960, 540), (960, 540), (960, 540), (960, 540), (960, 540), (960, 540), (960, 540), (960, 540), (960, 540), (960, 540), (960, 540), (960, 540), (960, 540), (960, 540), (960, 540), (960, 540), (960, 540), (960, 540), (960, 540), (960, 540), (960, 540), (960, 540), (960, 540), (960, 540), (961, 542), (961, 544), (961, 551), (961, 554), (960, 557), (958, 561), (956, 567), (953, 574), (950, 582), (945, 592), (935, 615), (929, 629), (925, 641), (919, 653), (911, 674), (908, 687), (904, 699), (901, 713), (894, 738), (889, 752), (887, 764), (884, 775), (878, 796), (876, 806), (873, 817), (873, 826), (872, 844), (872, 854), (872, 863), (872, 874), (872, 896), (872, 905), (872, 916), (872, 927), (872, 949)]",102.1425832591539,"[5, 6, 7, 8, 9, 2, 3, 1, 4]","(0, 0.25)",ENG005A,ENG,A,English,Wed Aug 15 11:09:19 2018,Mouse
1,0,1,0,20,9,9,1,1186,416,770,135,0,500,200,8000,"[(960, 540), (960, 540), (960, 540), (960, 540), (960, 540), (960, 540), (960, 540), (960, 540), (960, 540), (960, 540), (960, 540), (960, 540), (960, 540), (960, 540), (960, 540), (960, 540), (960, 540), (960, 540), (960, 540), (960, 540), (960, 540), (960, 540), (960, 540), (960, 540), (960, 540), (960, 540), (960, 540), (960, 540), (960, 540), (960, 540), (960, 540), (960, 540), (960, 540), (960, 540), (960, 540), (960, 540), (960, 540), (960, 540), (960, 540), (960, 540), (960, 540), (961, 540), (961, 539), (961, 539), (961, 539), (961, 539), (961, 539), (961, 539), (961, 539), (961, 539), (961, 539), (961, 539), (961, 539), (961, 539), (961, 539), (961, 539), (961, 539), (961, 539), (961, 539), (961, 539), (961, 539), (961, 539), (961, 539), (961, 539), (961, 539), (961, 539), (961, 539), (963, 539), (963, 539), (963, 539), (963, 539), (964, 539), (964, 539), (964, 539), (964, 539), (964, 539), (964, 539), (964, 539), (964, 539), (964, 539), (964, 539), (964, 539), (964, 539), (964, 539), (964, 539), (964, 539), (964, 539), (964, 539), (964, 539), (964, 539), (964, 539), (964, 539), (964, 539), (964, 539), (964, 539), (959, 539), (954, 539), (948, 539), (939, 539), (920, 539), (908, 539), (896, 539), (881, 539), (851, 539), (834, 539), (820, 539), (806, 539), (781, 539), (768, 539), (755, 539), (743, 539), (720, 539), (707, 539), (693, 539), (678, 539), (635, 535), (611, 530), (587, 527), (559, 527)]",181.856818845072,"[5, 6, 7, 8, 9, 2, 3, 1, 4]","(0, 0.25)",ENG005A,ENG,A,English,Wed Aug 15 11:09:19 2018,Mouse
1,0,1,0,21,8,8,1,1350,670,680,134,0,500,200,8000,"[(960, 540), (960, 540), (960, 540), (960, 540), (960, 540), (960, 540), (960, 540), (960, 540), (960, 540), (960, 540), (960, 540), (960, 540), (960, 540), (960, 540), (960, 540), (960, 540), (960, 540), (960, 540), (960, 540), (960, 540), (960, 540), (960, 540), (960, 540), (960, 540), (960, 540), (960, 540), (960, 540), (960, 540), (960, 540), (960, 540), (960, 540), (960, 540), (960, 540), (960, 540), (960, 540), (960, 540), (960, 540), (960, 540), (960, 540), (960, 540), (960, 540), (960, 540), (960, 540), (960, 540), (960, 540), (960, 540), (960, 540), (960, 540), (960, 540), (960, 540), (960, 540), (960, 540), (960, 540), (960, 540), (960, 540), (960, 540), (960, 540), (960, 540), (960, 540), (960, 540), (960, 540), (960, 540), (960, 540), (960, 540), (960, 540), (960, 540), (961, 539), (961, 537), (961, 534), (961, 532), (960, 530), (959, 528), (959, 528), (959, 528), (959, 528), (959, 528), (959, 528), (959, 528), (959, 528), (959, 528), (959, 528), (959, 528), (959, 527), (958, 527), (958, 527), (958, 527), (955, 528), (954, 530), (954, 533), (954, 536), (951, 547), (950, 555), (950, 559), (950, 566), (950, 579), (950, 586), (950, 592), (950, 602), (951, 620), (951, 628), (951, 635), (951, 645), (951, 657), (950, 663), (950, 669), (949, 673), (949, 682), (949, 684), (949, 685), (949, 686), (949, 686), (949, 686), (949, 686), (949, 686), (949, 687), (949, 687), (948, 689), (945, 690), (933, 691), (929, 692), (921, 694), (912, 698), (883, 706), (866, 713), (843, 719), (818, 728), (771, 749), (748, 756), (728, 762), (711, 769), (688, 778), (677, 783), (665, 788), (655, 793), (636, 805)]",140.72022429886684,"[5, 6, 7, 8, 9, 2, 3, 1, 4]","(0, 0.25)",ENG005A,ENG,A,English,Wed Aug 15 11:09:19 2018,Mouse
1,0,1,0,22,7,2,0,-910,350,560,133,0,500,200,8000,"[(960, 540), (960, 540), (960, 540), (960, 540), (960, 540), (960, 540), (960, 540), (960, 540), (960, 540), (960, 540), (960, 540), (960, 540), (960, 540), (960, 540), (960, 540), (960, 540), (960, 540), (960, 540), (960, 540), (960, 540), (960, 540), (960, 540), (960, 540), (960, 540), (960, 540), (960, 540), (960, 540), (960, 540), (960, 540), (960, 540), (960, 540), (960, 540), (960, 540), (960, 540), (960, 538), (963, 530), (966, 522), (969, 512), (975, 489), (979, 478), (983, 464), (986, 453), (989, 435), (990, 429), (990, 424), (990, 418), (990, 408), (990, 404), (990, 403), (990, 401), (989, 397), (989, 396), (988, 392), (988, 391), (984, 383), (983, 379), (983, 375), (983, 370), (981, 363), (981, 362), (981, 359), (980, 358), (979, 355), (978, 353), (977, 352), (976, 352), (976, 352), (976, 352), (974, 352), (973, 352), (967, 350), (961, 347), (956, 346), (948, 342), (929, 338), (921, 336), (912, 332), (904, 330), (888, 326), (878, 324), (867, 319), (856, 318), (830, 314), (808, 310), (793, 307), (770, 301), (725, 288), (710, 280), (696, 278), (682, 273), (656, 266)]",222.02883673804936,"[5, 6, 7, 8, 9, 2, 3, 1, 4]","(0, 0.25)",ENG005A,ENG,A,English,Wed Aug 15 11:09:19 2018,Mouse
1,0,1,0,23,2,2,1,660,420,240,134,0,500,200,8000,"[(960, 540), (960, 540), (960, 540), (960, 540), (960, 540), (960, 540), (960, 540), (960, 540), (960, 540), (960, 540), (960, 540), (960, 540), (960, 540), (960, 540), (960, 540), (960, 540), (960, 540), (960, 540), (960, 540), (960, 540), (960, 540), (960, 540), (960, 540), (960, 540), (960, 540), (960, 540), (960, 540), (960, 540), (960, 540), (960, 540), (960, 540), (960, 540), (960, 540), (960, 540), (960, 540), (960, 540), (960, 540), (960, 540), (960, 540), (960, 540), (960, 540), (956, 533), (938, 513), (930, 504), (920, 492), (906, 476), (881, 455), (869, 446), (849, 432), (838, 424), (810, 405), (794, 397), (783, 390), (771, 382), (752, 369), (742, 361), (733, 354), (725, 349), (710, 338), (703, 334), (697, 331), (689, 324), (670, 311), (663, 305), (654, 299), (644, 292)]",218.12518197129575,"[5, 6, 7, 8, 9, 2, 3, 1, 4]","(0, 0.25)",ENG005A,ENG,A,English,Wed Aug 15 11:09:19 2018,Mouse
1,0,1,0,24,7,7,1,1050,810,240,134,0,500,200,8000,"[(960, 540), (960, 540), (960, 540), (960, 540), (960, 540), (960, 540), (960, 540), (960, 540), (960, 540), (960, 540), (960, 540), (960, 540), (960, 540), (960, 540), (960, 540), (960, 540), (960, 540), (960, 540), (960, 540), (960, 540), (960, 540), (960, 540), (960, 540), (960, 540), (960, 540), (960, 540), (960, 540), (960, 540), (960, 540), (960, 540), (960, 540), (960, 540), (960, 540), (960, 540), (960, 540), (960, 540), (960, 540), (960, 540), (960, 540), (960, 540), (960, 540), (960, 540), (960, 540), (960, 540), (960, 540), (960, 540), (960, 540), (960, 540), (960, 540), (960, 540), (960, 540), (960, 540), (960, 540), (960, 540), (960, 540), (960, 540), (960, 540), (960, 540), (960, 540), (960, 540), (960, 540), (960, 540), (960, 540), (960, 540), (960, 540), (960, 540), (960, 540), (960, 540), (960, 540), (960, 540), (960, 540), (960, 540), (960, 540), (960, 540), (960, 540), (960, 540), (960, 540), (960, 540), (960, 540), (960, 540), (960, 542), (960, 543), (958, 546), (955, 550), (953, 552), (951, 554), (950, 556), (948, 558), (948, 559), (948, 559), (947, 560), (946, 568), (945, 577), (943, 585), (942, 596), (937, 624), (936, 647), (931, 674), (928, 698), (920, 751), (915, 783), (912, 807), (907, 839), (898, 909), (895, 935)]",99.34467190209969,"[5, 6, 7, 8, 9, 2, 3, 1, 4]","(0, 0.25)",ENG005A,ENG,A,English,Wed Aug 15 11:09:19 2018,Mouse
1,0,1,0,25,3,9,0,-1249,919,330,133,0,500,200,8000,"[(960, 540), (960, 540), (960, 540), (960, 540), (960, 540), (960, 540), (960, 540), (960, 540), (960, 540), (960, 540), (960, 540), (960, 540), (960, 540), (960, 540), (960, 540), (960, 540), (960, 540), (960, 540), (960, 540), (960, 540), (960, 540), (960, 540), (960, 540), (960, 540), (960, 540), (960, 540), (960, 540), (960, 540), (960, 540), (960, 540), (960, 540), (960, 540), (960, 540), (960, 540), (960, 540), (960, 540), (960, 540), (960, 540), (960, 540), (960, 540), (960, 540), (960, 540), (960, 540), (960, 540), (960, 540), (960, 540), (960, 540), (960, 540), (960, 540), (960, 540), (960, 540), (960, 540), (960, 540), (960, 540), (960, 540), (960, 540), (960, 540), (960, 540), (960, 540), (960, 540), (960, 540), (960, 540), (960, 540), (960, 540), (960, 540), (960, 540), (960, 540), (960, 540), (960, 540), (960, 540), (960, 540), (960, 540), (960, 540), (960, 540), (960, 540), (960, 540), (960, 540), (960, 540), (960, 540), (960, 540), (960, 540), (960, 540), (960, 540), (960, 540), (960, 540), (960, 540), (960, 540), (960, 540), (960, 540), (960, 540), (960, 540), (959, 541), (956, 541), (954, 542), (949, 544), (947, 545), (944, 547), (941, 548), (935, 548), (932, 548), (928, 549), (924, 549), (914, 549), (910, 549), (903, 549), (896, 549), (880, 549), (870, 549), (859, 549), (848, 549), (821, 549), (809, 549), (797, 549), (787, 549), (764, 549), (749, 549), (734, 549), (721, 549), (691, 549), (674, 549), (657, 549), (637, 549), (592, 549), (573, 549), (542, 549)]",178.76654939517215,"[5, 6, 7, 8, 9, 2, 3, 1, 4]","(0, 0.25)",ENG005A,ENG,A,English,Wed Aug 15 11:09:19 2018,Mouse
1,0,1,0,26,8,8,1,641,481,160,134,0,500,200,8000,"[(960, 540), (960, 540), (960, 540), (960, 540), (960, 540), (960, 540), (960, 540), (960, 540), (960, 540), (960, 540), (960, 540), (960, 540), (960, 540), (960, 540), (960, 540), (960, 540), (960, 540), (960, 540), (960, 540), (960, 540), (960, 540), (960, 540), (960, 540), (960, 540), (960, 540), (960, 540), (960, 540), (960, 540), (960, 540), (960, 540), (960, 540), (960, 540), (960, 540), (960, 540), (960, 540), (960, 540), (960, 540), (960, 540), (960, 540), (960, 540), (960, 540), (960, 540), (960, 540), (960, 540), (960, 540), (960, 540), (960, 540), (946, 555), (937, 564), (927, 574), (918, 584), (894, 615), (880, 630), (866, 646), (848, 669), (811, 710), (793, 731), (779, 746), (765, 762), (736, 797), (722, 813), (711, 825), (698, 838), (680, 858)]",131.36401982153015,"[5, 6, 7, 8, 9, 2, 3, 1, 4]","(0, 0.25)",ENG005A,ENG,A,English,Wed Aug 15 11:09:19 2018,Mouse
1,0,1,0,27,6,6,1,829,559,270,134,0,500,200,8000,"[(960, 540), (960, 540), (960, 540), (960, 540), (960, 540), (960, 540), (960, 540), (960, 540), (960, 540), (960, 540), (960, 540), (960, 540), (960, 540), (960, 540), (960, 540), (960, 540), (960, 540), (960, 540), (960, 540), (960, 540), (960, 540), (960, 540), (960, 540), (960, 540), (960, 540), (960, 540), (960, 540), (960, 540), (960, 540), (960, 540), (960, 540), (960, 540), (960, 540), (960, 540), (960, 540), (960, 540), (960, 540), (960, 540), (960, 540), (960, 540), (960, 540), (960, 540), (960, 540), (960, 540), (960, 540), (960, 540), (960, 540), (960, 540), (960, 540), (960, 540), (960, 540), (960, 540), (960, 540), (960, 540), (960, 540), (961, 540), (967, 546), (972, 554), (984, 576), (993, 586), (1001, 598), (1011, 611), (1030, 635), (1042, 650), (1048, 661), (1053, 673), (1065, 693), (1070, 702), (1074, 709), (1077, 716), (1087, 733), (1092, 743), (1095, 751), (1098, 760), (1107, 778), (1109, 787), (1115, 797), (1120, 808), (1133, 834), (1143, 850), (1151, 863), (1159, 874), (1172, 892)]",58.94059117029002,"[5, 6, 7, 8, 9, 2, 3, 1, 4]","(0, 0.25)",ENG005A,ENG,A,English,Wed Aug 15 11:09:19 2018,Mouse
1,0,1,0,28,1,2,0,-839,319,520,133,0,500,200,8000,"[(960, 540), (960, 540), (960, 540), (960, 540), (960, 540), (960, 540), (960, 540), (960, 540), (960, 540), (960, 540), (960, 540), (960, 540), (960, 540), (960, 540), (960, 540), (960, 540), (960, 540), (960, 540), (960, 540), (960, 540), (960, 540), (960, 540), (960, 540), (960, 540), (960, 540), (960, 540), (960, 540), (960, 540), (960, 540), (960, 540), (960, 540), (959, 541), (959, 543), (958, 543), (958, 544), (958, 544), (958, 544), (958, 544), (958, 546), (958, 546), (958, 546), (958, 546), (958, 546), (957, 547), (957, 547), (957, 547), (957, 547), (957, 547), (957, 547), (957, 547), (957, 547), (957, 547), (957, 547), (957, 547), (957, 547), (957, 547), (957, 547), (957, 547), (957, 547), (957, 547), (957, 547), (957, 547), (957, 547), (957, 547), (957, 547), (951, 544), (939, 528), (932, 520), (919, 507), (901, 490), (863, 458), (840, 440), (821, 424), (799, 409), (759, 380), (742, 367), (730, 358), (716, 347), (692, 324), (681, 317), (671, 311), (662, 305), (648, 297), (640, 293)]",217.66365281259007,"[5, 6, 7, 8, 9, 2, 3, 1, 4]","(0, 0.25)",ENG005A,ENG,A,English,Wed Aug 15 11:09:19 2018,Mouse
1,0,1,0,29,9,9,1,1181,301,880,134,0,500,200,8000,"[(960, 540), (960, 540), (960, 540), (960, 540), (960, 540), (960, 540), (960, 540), (960, 540), (960, 540), (960, 540), (960, 540), (960, 540), (960, 540), (960, 540), (960, 540), (960, 540), (960, 540), (960, 540), (960, 540), (960, 540), (960, 540), (960, 540), (960, 540), (960, 540), (960, 540), (960, 540), (960, 540), (960, 540), (960, 540), (960, 540), (960, 541), (960, 541), (960, 541), (960, 541), (960, 542), (960, 543), (960, 543), (959, 544), (959, 544), (959, 544), (959, 544), (959, 544), (959, 545), (959, 545), (959, 547), (959, 548), (960, 557), (964, 567), (966, 572), (969, 578), (975, 587), (977, 591), (978, 593), (979, 594), (979, 594), (979, 594), (979, 594), (979, 594), (979, 594), (979, 594), (979, 594), (979, 594), (979, 594), (979, 594), (979, 594), (979, 594), (979, 594), (979, 594), (979, 594), (979, 594), (979, 594), (979, 594), (979, 594), (979, 594), (979, 594), (979, 594), (979, 594), (979, 594), (979, 594), (979, 594), (979, 594), (979, 594), (979, 594), (979, 594), (979, 594), (979, 594), (979, 594), (979, 594), (979, 594), (979, 594), (979, 594), (979, 595), (979, 595), (977, 597), (972, 598), (971, 598), (967, 599), (963, 602), (951, 608), (944, 612), (936, 617), (933, 618), (928, 620), (926, 621), (924, 622), (924, 622), (921, 622), (918, 622), (915, 622), (909, 622), (885, 614), (864, 606), (840, 593), (813, 577), (741, 546), (704, 529), (665, 518), (632, 509), (562, 490)]",187.16044972689113,"[5, 6, 7, 8, 9, 2, 3, 1, 4]","(0, 0.25)",ENG005A,ENG,A,English,Wed Aug 15 11:09:19 2018,Mouse
1,0,1,0,30,5,5,1,710,510,200,134,0,500,200,8000,"[(960, 540), (960, 540), (960, 540), (960, 540), (960, 540), (960, 540), (960, 540), (960, 540), (960, 540), (960, 540), (960, 540), (960, 540), (960, 540), (960, 540), (960, 540), (960, 540), (960, 540), (960, 540), (960, 540), (960, 540), (960, 540), (960, 540), (960, 540), (960, 540), (960, 540), (960, 540), (960, 540), (960, 540), (960, 540), (960, 540), (960, 540), (960, 540), (960, 540), (960, 540), (960, 540), (960, 540), (960, 540), (960, 540), (960, 540), (960, 540), (960, 540), (960, 540), (960, 540), (960, 540), (960, 540), (960, 540), (960, 540), (960, 540), (960, 540), (960, 540), (970, 545), (984, 549), (1000, 554), (1023, 560), (1071, 575), (1099, 585), (1119, 592), (1142, 602), (1180, 616), (1196, 623), (1211, 630), (1222, 634), (1240, 643), (1250, 649), (1259, 653), (1265, 656), (1287, 665), (1300, 668), (1310, 672), (1322, 675), (1342, 682)]",20.391497195485506,"[5, 6, 7, 8, 9, 2, 3, 1, 4]","(0, 0.25)",ENG005A,ENG,A,English,Wed Aug 15 11:09:19 2018,Mouse
1,0,1,0,31,5,3,0,-619,479,140,133,0,500,200,8000,"[(960, 540), (960, 540), (960, 540), (960, 540), (960, 540), (960, 540), (960, 540), (960, 540), (960, 540), (960, 540), (960, 540), (960, 540), (960, 540), (960, 540), (960, 540), (960, 540), (960, 540), (960, 540), (960, 540), (960, 540), (960, 540), (960, 540), (960, 540), (960, 540), (960, 540), (960, 540), (960, 540), (960, 540), (960, 540), (960, 540), (960, 540), (960, 540), (960, 540), (960, 540), (960, 540), (960, 540), (960, 540), (960, 540), (960, 540), (960, 540), (960, 540), (960, 540), (960, 540), (960, 540), (960, 540), (960, 540), (960, 540), (957, 539), (950, 534), (943, 528), (935, 522), (918, 504), (910, 490), (900, 472), (890, 448), (879, 389), (874, 354), (866, 311), (863, 271), (849, 205), (840, 175), (836, 148)]",252.44645517366013,"[5, 6, 7, 8, 9, 2, 3, 1, 4]","(0, 0.25)",ENG005A,ENG,A,English,Wed Aug 15 11:09:19 2018,Mouse
1,0,1,0,32,8,4,0,-1982,1822,160,134,0,500,200,8000,"[(960, 540), (960, 540), (960, 540), (960, 540), (960, 540), (960, 540), (960, 540), (960, 540), (960, 540), (960, 540), (960, 540), (960, 540), (960, 540), (960, 540), (960, 540), (960, 540), (960, 540), (960, 540), (960, 540), (960, 540), (960, 540), (960, 540), (960, 540), (960, 540), (960, 540), (960, 540), (960, 540), (960, 540), (960, 540), (960, 540), (960, 540), (960, 540), (960, 540), (960, 540), (960, 540), (960, 540), (960, 540), (960, 540), (960, 540), (960, 540), (960, 540), (960, 540), (960, 540), (960, 540), (960, 540), (960, 540), (960, 540), (960, 540), (960, 540), (960, 540), (960, 540), (960, 540), (960, 540), (960, 540), (960, 540), (960, 540), (960, 540), (960, 540), (960, 540), (960, 540), (960, 540), (960, 540), (960, 540), (960, 540), (960, 540), (960, 540), (960, 540), (960, 540), (960, 540), (960, 540), (960, 540), (960, 540), (960, 540), (960, 540), (960, 540), (960, 540), (960, 540), (960, 540), (960, 540), (960, 540), (960, 540), (960, 540), (960, 540), (960, 540), (960, 540), (960, 540), (960, 540), (960, 540), (960, 540), (960, 540), (960, 540), (960, 540), (960, 540), (960, 540), (960, 540), (960, 540), (960, 540), (960, 540), (960, 540), (960, 540), (960, 540), (960, 540), (960, 540), (960, 540), (960, 540), (960, 540), (960, 540), (960, 540), (960, 540), (960, 540), (960, 540), (960, 540), (960, 540), (960, 540), (960, 540), (960, 540), (960, 540), (960, 540), (960, 540), (960, 540), (960, 540), (960, 540), (960, 540), (960, 540), (960, 540), (960, 540), (960, 540), (960, 540), (960, 540), (960, 540), (960, 540), (960, 540), (960, 540), (960, 540), (960, 540), (960, 540), (960, 540), (960, 540), (960, 540), (960, 540), (960, 540), (960, 540), (960, 540), (960, 540), (960, 540), (960, 540), (960, 540), (960, 540), (960, 540), (960, 540), (960, 540), (960, 540), (960, 540), (960, 540), (960, 540), (960, 540), (960, 540), (960, 540), (960, 540), (960, 540), (960, 540), (960, 540), (960, 540), (960, 540), (960, 540), (960, 540), (960, 540), (960, 540), (960, 540), (960, 540), (960, 540), (960, 540), (960, 540), (960, 540), (960, 540), (960, 540), (960, 540), (960, 540), (960, 540), (960, 540), (960, 540), (960, 540), (970, 540), (985, 540), (1033, 533), (1063, 528), (1095, 524), (1130, 517), (1188, 502), (1213, 495), (1227, 492), (1240, 486), (1270, 471), (1282, 468), (1296, 464), (1309, 461), (1331, 454), (1342, 452), (1352, 448)]",346.7920715372209,"[5, 6, 7, 8, 9, 2, 3, 1, 4]","(0, 0.25)",ENG005A,ENG,A,English,Wed Aug 15 11:09:19 2018,Mouse
1,0,1,0,33,5,5,1,650,390,260,135,0,500,200,8000,"[(960, 540), (960, 540), (960, 540), (960, 540), (960, 540), (960, 540), (960, 540), (960, 540), (960, 540), (960, 540), (960, 540), (960, 540), (960, 540), (960, 540), (960, 540), (960, 540), (960, 540), (960, 540), (960, 540), (960, 540), (960, 540), (960, 540), (960, 540), (960, 540), (960, 540), (960, 540), (960, 540), (960, 540), (960, 540), (960, 540), (960, 540), (960, 540), (960, 540), (960, 540), (960, 540), (960, 540), (960, 540), (960, 540), (960, 542), (961, 545), (971, 553), (981, 557), (994, 563), (1006, 565), (1049, 578), (1071, 582), (1093, 587), (1117, 591), (1150, 596), (1168, 599), (1183, 600), (1199, 604), (1221, 607), (1228, 609), (1232, 610), (1241, 613), (1259, 616), (1268, 620), (1280, 621), (1291, 622), (1315, 626), (1324, 630), (1337, 635), (1347, 639), (1364, 647)]",14.834275844790595,"[5, 6, 7, 8, 9, 2, 3, 1, 4]","(0, 0.25)",ENG005A,ENG,A,English,Wed Aug 15 11:09:19 2018,Mouse
1,0,1,0,34,1,2,0,-799,429,370,135,0,500,200,8000,"[(960, 540), (960, 540), (960, 540), (960, 540), (960, 540), (960, 540), (960, 540), (960, 540), (960, 540), (960, 540), (960, 540), (960, 540), (960, 540), (960, 540), (960, 540), (960, 540), (960, 540), (960, 540), (960, 540), (960, 540), (960, 540), (960, 540), (960, 540), (960, 540), (960, 540), (960, 540), (960, 540), (960, 540), (960, 540), (960, 540), (960, 540), (960, 540), (960, 540), (960, 540), (960, 540), (960, 540), (960, 540), (960, 540), (960, 540), (960, 540), (960, 540), (960, 540), (959, 541), (959, 542), (959, 542), (958, 542), (958, 542), (958, 542), (958, 542), (958, 543), (958, 543), (958, 543), (958, 543), (958, 543), (958, 543), (958, 543), (958, 543), (958, 543), (958, 543), (957, 544), (957, 544), (957, 544), (957, 544), (957, 544), (957, 544), (957, 544), (957, 544), (957, 544), (951, 540), (936, 530), (886, 497), (854, 473), (832, 457), (802, 439), (742, 406), (720, 391), (692, 372), (672, 358), (638, 332), (625, 321)]",213.17390329621495,"[5, 6, 7, 8, 9, 2, 3, 1, 4]","(0, 0.25)",ENG005A,ENG,A,English,Wed Aug 15 11:09:19 2018,Mouse
1,0,1,0,35,9,9,1,1151,811,340,136,0,500,200,8000,"[(960, 540), (960, 540), (960, 540), (960, 540), (960, 540), (960, 540), (960, 540), (960, 540), (960, 540), (960, 540), (960, 540), (960, 540), (960, 540), (960, 540), (960, 540), (960, 540), (960, 540), (960, 540), (960, 540), (960, 540), (960, 540), (960, 540), (960, 540), (960, 540), (960, 540), (960, 540), (960, 540), (960, 540), (960, 540), (960, 540), (960, 540), (960, 540), (960, 540), (960, 540), (960, 540), (960, 540), (960, 540), (960, 540), (960, 540), (960, 540), (960, 540), (960, 540), (960, 540), (960, 540), (960, 540), (960, 540), (960, 540), (960, 540), (960, 540), (960, 540), (960, 540), (960, 540), (960, 540), (960, 540), (960, 540), (960, 540), (960, 540), (960, 540), (960, 540), (960, 540), (960, 540), (960, 540), (960, 540), (960, 540), (960, 540), (960, 540), (960, 540), (960, 540), (960, 540), (960, 540), (960, 540), (960, 540), (960, 540), (960, 540), (960, 540), (960, 540), (960, 540), (960, 540), (960, 540), (960, 540), (960, 540), (958, 541), (947, 543), (942, 543), (937, 543), (933, 543), (919, 543), (912, 543), (908, 543), (904, 543), (891, 543), (886, 543), (875, 543), (864, 543), (842, 543), (831, 543), (819, 543), (807, 543), (780, 543), (765, 543), (750, 543), (738, 543), (713, 543), (702, 543), (693, 543), (679, 543), (656, 543), (645, 543), (634, 543), (625, 543), (603, 545), (593, 545), (585, 547), (578, 548), (561, 548), (554, 548)]",178.87116520333936,"[5, 6, 7, 8, 9, 2, 3, 1, 4]","(0, 0.25)",ENG005A,ENG,A,English,Wed Aug 15 11:09:19 2018,Mouse
1,0,1,0,36,1,1,1,750,510,240,136,0,500,200,8000,"[(960, 540), (960, 540), (960, 540), (960, 540), (960, 540), (960, 540), (960, 540), (960, 540), (960, 540), (960, 540), (960, 540), (960, 540), (960, 540), (960, 540), (960, 540), (960, 540), (960, 540), (960, 540), (960, 540), (960, 540), (960, 540), (960, 540), (960, 540), (960, 540), (960, 540), (960, 540), (960, 540), (960, 540), (960, 540), (960, 540), (960, 540), (960, 540), (960, 540), (960, 540), (960, 540), (960, 540), (960, 540), (960, 540), (960, 540), (960, 540), (960, 540), (960, 540), (960, 540), (960, 540), (960, 540), (960, 540), (960, 540), (960, 540), (960, 540), (960, 540), (972, 524), (981, 509), (991, 492), (1001, 474), (1023, 436), (1035, 418), (1045, 402), (1058, 385), (1076, 358), (1084, 346), (1090, 335), (1095, 323), (1109, 302), (1115, 293), (1120, 283), (1126, 274), (1134, 258), (1138, 251), (1144, 241), (1148, 233), (1156, 220), (1159, 212), (1161, 204), (1164, 197), (1168, 182)]",300.1568270769711,"[5, 6, 7, 8, 9, 2, 3, 1, 4]","(0, 0.25)",ENG005A,ENG,A,English,Wed Aug 15 11:09:19 2018,Mouse
1,0,1,0,37,1,1,1,432,302,130,135,0,500,200,8000,"[(960, 540), (960, 540), (960, 540), (960, 540), (960, 540), (960, 540), (960, 540), (960, 540), (960, 540), (960, 540), (960, 540), (960, 540), (960, 540), (960, 540), (960, 540), (960, 540), (960, 540), (960, 540), (960, 540), (960, 540), (960, 540), (960, 540), (960, 540), (960, 540), (960, 540), (960, 540), (960, 540), (960, 540), (960, 540), (960, 540), (962, 539), (990, 507), (1013, 480), (1032, 452), (1056, 421), (1095, 373), (1111, 350), (1130, 329), (1147, 308), (1173, 274), (1182, 260), (1190, 248), (1204, 229), (1207, 221)]",307.75042780489093,"[5, 6, 7, 8, 9, 2, 3, 1, 4]","(0, 0.25)",ENG005A,ENG,A,English,Wed Aug 15 11:09:19 2018,Mouse
1,0,1,0,38,7,2,0,-710,470,240,134,0,500,200,8000,"[(960, 540), (960, 540), (960, 540), (960, 540), (960, 540), (960, 540), (960, 540), (960, 540), (960, 540), (960, 540), (960, 540), (960, 540), (960, 540), (960, 540), (960, 540), (960, 540), (960, 540), (960, 540), (960, 540), (960, 540), (960, 540), (960, 540), (960, 540), (960, 540), (960, 540), (960, 540), (960, 540), (960, 540), (960, 540), (960, 540), (960, 540), (960, 540), (960, 540), (960, 540), (960, 540), (960, 540), (960, 540), (960, 540), (960, 540), (960, 540), (960, 540), (960, 540), (960, 540), (960, 540), (960, 540), (960, 540), (960, 538), (960, 532), (960, 527), (958, 518), (955, 512), (954, 509), (950, 503), (941, 490), (935, 483), (927, 472), (920, 463), (900, 441), (887, 426), (878, 417), (862, 404), (836, 384), (822, 375), (810, 365), (790, 351), (759, 330), (739, 316), (720, 302), (706, 294), (673, 267), (661, 257)]",223.42525493424682,"[5, 6, 7, 8, 9, 2, 3, 1, 4]","(0, 0.25)",ENG005A,ENG,A,English,Wed Aug 15 11:09:19 2018,Mouse
1,0,1,0,39,1,1,1,1169,879,290,135,0,500,200,8000,"[(960, 540), (960, 540), (960, 540), (960, 540), (960, 540), (960, 540), (960, 540), (960, 540), (960, 540), (960, 540), (960, 540), (960, 540), (960, 540), (960, 540), (960, 540), (960, 540), (960, 540), (960, 540), (960, 540), (960, 540), (960, 540), (960, 540), (960, 540), (960, 540), (960, 540), (960, 540), (960, 540), (960, 540), (960, 540), (960, 540), (960, 540), (960, 540), (960, 540), (960, 540), (960, 540), (960, 540), (960, 540), (960, 540), (960, 540), (960, 540), (960, 540), (960, 540), (960, 540), (960, 540), (960, 540), (960, 540), (960, 540), (960, 540), (960, 540), (960, 540), (960, 540), (960, 540), (960, 540), (960, 540), (960, 540), (960, 540), (960, 540), (960, 540), (960, 540), (960, 540), (960, 540), (960, 540), (960, 540), (960, 540), (960, 540), (960, 540), (960, 540), (960, 540), (960, 540), (960, 540), (960, 540), (960, 540), (960, 540), (960, 540), (960, 540), (960, 540), (960, 540), (960, 540), (960, 540), (960, 540), (960, 540), (960, 540), (960, 540), (960, 540), (960, 540), (960, 540), (960, 540), (961, 540), (965, 535), (977, 520), (986, 510), (992, 503), (999, 493), (1017, 470), (1027, 456), (1033, 446), (1040, 433), (1054, 413), (1061, 401), (1065, 391), (1069, 381), (1074, 360), (1080, 350), (1084, 343), (1088, 334), (1094, 320), (1098, 311), (1100, 304), (1104, 295), (1112, 273), (1117, 263), (1122, 250), (1130, 237), (1141, 217), (1146, 207), (1152, 199), (1156, 189)]",299.17919003841166,"[5, 6, 7, 8, 9, 2, 3, 1, 4]","(0, 0.25)",ENG005A,ENG,A,English,Wed Aug 15 11:09:19 2018,Mouse
1,0,1,0,40,7,7,1,671,381,290,135,0,500,200,8000,"[(960, 540), (960, 540), (960, 540), (960, 540), (960, 540), (960, 540), (960, 540), (960, 540), (960, 540), (960, 540), (960, 540), (960, 540), (960, 540), (960, 540), (960, 540), (960, 540), (960, 540), (960, 540), (960, 540), (960, 540), (960, 540), (960, 540), (960, 540), (960, 540), (960, 540), (960, 540), (960, 540), (960, 540), (960, 540), (960, 540), (960, 540), (960, 540), (960, 540), (960, 540), (960, 540), (960, 540), (960, 540), (960, 540), (958, 543), (957, 545), (956, 548), (954, 552), (953, 555), (950, 559), (948, 569), (945, 575), (944, 582), (943, 591), (940, 615), (939, 627), (939, 641), (939, 653), (939, 679), (939, 694), (939, 708), (939, 722), (939, 749), (939, 766), (939, 781), (939, 797), (939, 834), (937, 854), (936, 869), (934, 883), (931, 909), (928, 922), (926, 934), (925, 945)]",94.9392155421262,"[5, 6, 7, 8, 9, 2, 3, 1, 4]","(0, 0.25)",ENG005A,ENG,A,English,Wed Aug 15 11:09:19 2018,Mouse
1,0,1,0,41,4,5,0,-1010,820,190,134,0,500,200,8000,"[(960, 540), (960, 540), (960, 540), (960, 540), (960, 540), (960, 540), (960, 540), (960, 540), (960, 540), (960, 540), (960, 540), (960, 540), (960, 540), (960, 540), (960, 540), (960, 540), (960, 540), (960, 540), (960, 540), (960, 540), (960, 540), (960, 540), (960, 540), (960, 540), (960, 540), (960, 540), (960, 540), (960, 540), (960, 540), (960, 540), (960, 540), (960, 540), (960, 540), (960, 540), (960, 540), (960, 540), (960, 540), (960, 540), (960, 540), (960, 540), (960, 540), (960, 540), (960, 540), (960, 540), (960, 540), (960, 540), (960, 540), (960, 540), (960, 540), (960, 540), (960, 540), (960, 540), (960, 540), (960, 540), (960, 540), (960, 540), (960, 540), (960, 540), (960, 540), (960, 540), (960, 540), (960, 540), (960, 540), (960, 540), (960, 540), (960, 540), (960, 540), (960, 540), (960, 540), (960, 540), (960, 540), (960, 540), (960, 540), (960, 540), (960, 540), (960, 540), (960, 540), (960, 540), (960, 540), (960, 540), (960, 540), (961, 540), (968, 541), (987, 544), (998, 549), (1014, 552), (1037, 560), (1082, 573), (1107, 581), (1133, 589), (1156, 598), (1201, 612), (1218, 617), (1235, 622), (1251, 626), (1285, 637), (1299, 639), (1312, 644), (1321, 647), (1342, 652), (1352, 655)]",16.349965965750695,"[5, 6, 7, 8, 9, 2, 3, 1, 4]","(0, 0.25)",ENG005A,ENG,A,English,Wed Aug 15 11:09:19 2018,Mouse
1,0,1,0,42,2,2,1,620,300,320,135,0,500,200,8000,"[(960, 540), (960, 540), (960, 540), (960, 540), (960, 540), (960, 540), (960, 540), (960, 540), (960, 540), (960, 540), (960, 540), (960, 540), (960, 540), (960, 540), (960, 540), (960, 540), (960, 540), (960, 540), (960, 540), (960, 540), (960, 540), (960, 540), (960, 540), (960, 540), (960, 540), (960, 540), (960, 540), (960, 540), (960, 540), (955, 540), (933, 526), (918, 512), (903, 500), (892, 492), (868, 472), (856, 462), (844, 451), (835, 444), (818, 430), (812, 423), (806, 417), (803, 411), (793, 400), (788, 393), (782, 387), (775, 382), (767, 373), (760, 369), (757, 365), (752, 359), (743, 348), (738, 342), (733, 334), (725, 326), (714, 315), (706, 308), (700, 304), (693, 300), (678, 289), (670, 284), (661, 280), (655, 274)]",221.09269641103,"[5, 6, 7, 8, 9, 2, 3, 1, 4]","(0, 0.25)",ENG005A,ENG,A,English,Wed Aug 15 11:09:19 2018,Mouse
1,0,1,0,43,3,8,0,-1461,1001,460,135,0,500,200,8000,"[(960, 540), (960, 540), (960, 540), (960, 540), (960, 540), (960, 540), (960, 540), (960, 540), (960, 540), (960, 540), (960, 540), (960, 540), (960, 540), (960, 540), (960, 540), (960, 540), (960, 540), (960, 540), (960, 540), (960, 540), (960, 540), (960, 540), (960, 540), (960, 540), (960, 540), (960, 540), (960, 540), (960, 540), (960, 540), (960, 540), (960, 540), (960, 540), (960, 540), (960, 540), (960, 540), (960, 540), (960, 540), (960, 540), (960, 540), (960, 540), (960, 540), (960, 540), (960, 540), (960, 540), (960, 540), (960, 540), (960, 540), (960, 540), (960, 540), (960, 540), (960, 540), (960, 540), (960, 540), (960, 540), (960, 540), (960, 540), (960, 540), (960, 540), (960, 540), (960, 540), (960, 540), (960, 540), (960, 540), (960, 540), (960, 540), (960, 540), (960, 540), (960, 540), (960, 540), (960, 540), (960, 540), (960, 540), (960, 540), (960, 540), (960, 540), (960, 540), (960, 540), (960, 540), (960, 540), (960, 540), (960, 540), (960, 540), (960, 540), (960, 540), (960, 540), (960, 540), (960, 540), (960, 540), (960, 540), (960, 540), (960, 540), (960, 540), (960, 540), (960, 540), (960, 540), (960, 540), (960, 540), (960, 540), (960, 540), (960, 540), (961, 540), (961, 540), (961, 541), (960, 543), (960, 544), (959, 547), (957, 550), (954, 556), (952, 559), (949, 564), (945, 568), (940, 576), (935, 580), (931, 584), (930, 585), (923, 590), (921, 593), (919, 593), (917, 596), (914, 599), (914, 599), (913, 599), (913, 599), (913, 599), (913, 599), (913, 599), (913, 599), (913, 599), (913, 599), (913, 599), (913, 599), (913, 599), (913, 599), (913, 599), (913, 599), (913, 599), (913, 599), (913, 599), (913, 599), (911, 601), (904, 611), (892, 628), (868, 662), (797, 749), (763, 789), (734, 824), (705, 853)]",129.1695831692625,"[5, 6, 7, 8, 9, 2, 3, 1, 4]","(0, 0.25)",ENG005A,ENG,A,English,Wed Aug 15 11:09:19 2018,Mouse
1,0,1,0,44,8,3,0,-2230,1120,1110,136,0,500,200,8000,"[(960, 540), (960, 540), (960, 540), (960, 540), (960, 540), (960, 540), (960, 540), (960, 540), (960, 540), (960, 540), (960, 540), (960, 540), (960, 540), (960, 540), (960, 540), (960, 540), (960, 540), (960, 540), (960, 540), (960, 540), (960, 540), (960, 540), (960, 540), (960, 540), (960, 540), (960, 540), (960, 540), (960, 540), (960, 540), (960, 540), (960, 540), (960, 540), (960, 540), (960, 540), (960, 540), (960, 540), (960, 540), (960, 540), (960, 540), (960, 540), (960, 540), (960, 540), (960, 540), (960, 540), (960, 540), (960, 540), (960, 540), (960, 540), (960, 540), (960, 540), (960, 540), (960, 540), (960, 540), (960, 540), (960, 540), (960, 540), (960, 540), (960, 540), (960, 540), (960, 540), (960, 540), (960, 540), (960, 540), (960, 540), (960, 540), (960, 540), (960, 540), (960, 540), (960, 540), (960, 540), (960, 540), (960, 540), (960, 540), (960, 540), (960, 540), (960, 540), (960, 540), (960, 540), (960, 540), (960, 540), (960, 540), (960, 540), (960, 540), (960, 540), (960, 540), (960, 540), (960, 540), (960, 540), (960, 540), (960, 540), (960, 540), (960, 540), (960, 540), (960, 540), (960, 540), (960, 540), (960, 540), (960, 540), (960, 540), (960, 540), (960, 540), (960, 540), (960, 540), (960, 540), (960, 540), (960, 540), (960, 540), (960, 540), (960, 540), (960, 540), (960, 540), (962, 539), (964, 536), (968, 533), (972, 529), (986, 517), (996, 510), (1006, 502), (1018, 494), (1034, 483), (1042, 476), (1051, 468), (1058, 461), (1068, 454), (1070, 451), (1071, 448), (1072, 447), (1073, 446), (1073, 446), (1073, 446), (1073, 446), (1073, 446), (1073, 446), (1073, 446), (1073, 446), (1073, 445), (1072, 445), (1071, 445), (1071, 445), (1068, 445), (1067, 444), (1066, 444), (1065, 444), (1063, 444), (1063, 444), (1062, 444), (1062, 444), (1061, 444), (1061, 444), (1061, 444), (1061, 444), (1061, 444), (1061, 444), (1060, 444), (1060, 444), (1059, 444), (1057, 444), (1055, 444), (1055, 444), (1050, 444), (1048, 445), (1046, 446), (1042, 447), (1036, 447), (1032, 447), (1030, 447), (1026, 447), (1017, 447), (1013, 447), (1006, 447), (999, 442), (982, 438), (972, 434), (966, 432), (956, 428), (940, 425), (931, 422), (921, 420), (911, 418), (893, 416), (884, 416), (875, 416), (867, 416), (856, 415), (851, 415), (843, 412), (836, 410), (824, 406), (817, 405), (808, 402), (801, 401), (786, 397), (776, 396), (769, 395), (761, 395), (749, 394), (747, 394), (744, 394), (743, 394), (743, 394), (743, 394), (742, 394), (742, 399), (747, 416), (751, 421), (755, 428), (756, 429), (763, 437), (771, 443), (780, 448), (788, 451), (804, 452), (814, 452), (827, 449), (839, 442), (869, 412), (885, 392), (900, 368), (918, 332), (944, 256), (953, 210), (957, 165), (959, 131)]",269.85991279867295,"[5, 6, 7, 8, 9, 2, 3, 1, 4]","(0, 0.25)",ENG005A,ENG,A,English,Wed Aug 15 11:09:19 2018,Mouse
1,0,1,0,45,9,9,1,800,380,420,137,0,500,200,8000,"[(960, 540), (960, 540), (960, 540), (960, 540), (960, 540), (960, 540), (960, 540), (960, 540), (960, 540), (960, 540), (960, 540), (960, 540), (960, 540), (960, 540), (960, 540), (960, 540), (960, 540), (960, 540), (960, 540), (960, 540), (960, 540), (960, 540), (960, 540), (960, 540), (960, 540), (960, 540), (960, 540), (960, 540), (960, 540), (960, 540), (960, 540), (960, 540), (960, 540), (960, 540), (960, 540), (960, 540), (960, 540), (961, 540), (962, 541), (962, 541), (962, 542), (962, 542), (962, 542), (962, 542), (962, 542), (962, 542), (962, 542), (962, 542), (962, 542), (962, 542), (962, 542), (962, 542), (962, 542), (962, 542), (962, 542), (962, 542), (962, 542), (962, 542), (962, 542), (960, 544), (956, 544), (952, 544), (945, 544), (931, 544), (922, 544), (911, 544), (897, 544), (868, 544), (854, 544), (835, 544), (816, 544), (768, 544), (746, 544), (715, 544), (682, 544), (631, 544), (612, 544), (597, 544), (582, 544), (559, 544)]",179.42848998223627,"[5, 6, 7, 8, 9, 2, 3, 1, 4]","(0, 0.25)",ENG005A,ENG,A,English,Wed Aug 15 11:09:19 2018,Mouse
1,0,1,0,46,2,2,1,520,280,240,137,0,500,200,8000,"[(960, 540), (960, 540), (960, 540), (960, 540), (960, 540), (960, 540), (960, 540), (960, 540), (960, 540), (960, 540), (960, 540), (960, 540), (960, 540), (960, 540), (960, 540), (960, 540), (960, 540), (960, 540), (960, 540), (960, 540), (960, 540), (960, 540), (960, 540), (960, 540), (960, 540), (960, 540), (960, 540), (961, 540), (960, 531), (953, 518), (933, 483), (921, 462), (910, 453), (896, 436), (872, 414), (860, 404), (850, 398), (839, 391), (817, 375), (805, 367), (796, 359), (788, 353), (770, 344), (759, 338), (750, 334), (740, 330), (719, 324), (710, 319), (699, 315), (688, 309), (659, 291), (640, 280)]",219.0938588862295,"[5, 6, 7, 8, 9, 2, 3, 1, 4]","(0, 0.25)",ENG005A,ENG,A,English,Wed Aug 15 11:09:19 2018,Mouse
1,0,1,0,47,8,8,1,589,399,190,136,0,500,200,8000,"[(960, 540), (960, 540), (960, 540), (960, 540), (960, 540), (960, 540), (960, 540), (960, 540), (960, 540), (960, 540), (960, 540), (960, 540), (960, 540), (960, 540), (960, 540), (960, 540), (960, 540), (960, 540), (960, 540), (960, 540), (960, 540), (960, 540), (960, 540), (960, 540), (960, 540), (960, 540), (960, 540), (960, 540), (960, 540), (960, 540), (960, 540), (960, 540), (960, 540), (960, 540), (960, 540), (960, 540), (960, 540), (960, 540), (960, 540), (960, 543), (956, 551), (949, 559), (935, 578), (924, 588), (914, 598), (905, 609), (877, 643), (860, 661), (840, 682), (825, 702), (790, 739), (778, 746), (766, 757), (748, 774), (720, 797), (709, 804), (699, 812), (690, 819), (675, 828)]",134.7000248376961,"[5, 6, 7, 8, 9, 2, 3, 1, 4]","(0, 0.25)",ENG005A,ENG,A,English,Wed Aug 15 11:09:19 2018,Mouse
1,0,1,0,48,5,5,1,2622,1952,670,135,0,500,200,8000,"[(960, 540), (960, 540), (960, 540), (960, 540), (960, 540), (960, 540), (960, 540), (960, 540), (960, 540), (960, 540), (960, 540), (960, 540), (960, 540), (960, 540), (960, 540), (960, 540), (960, 540), (960, 540), (960, 540), (960, 540), (960, 540), (960, 540), (960, 540), (960, 540), (960, 540), (960, 540), (960, 540), (960, 540), (960, 540), (960, 540), (960, 540), (960, 540), (960, 540), (960, 540), (960, 540), (960, 540), (960, 540), (960, 540), (960, 540), (960, 540), (960, 540), (960, 540), (960, 540), (960, 540), (960, 540), (960, 540), (960, 540), (960, 540), (960, 540), (960, 540), (960, 540), (960, 540), (960, 540), (960, 540), (960, 540), (960, 540), (960, 540), (960, 540), (960, 540), (960, 540), (960, 540), (960, 540), (960, 540), (960, 540), (960, 540), (960, 540), (960, 540), (960, 540), (960, 540), (960, 540), (960, 540), (960, 540), (960, 540), (960, 540), (960, 540), (960, 540), (960, 540), (960, 540), (960, 540), (960, 540), (960, 540), (960, 540), (960, 540), (960, 540), (960, 540), (960, 540), (960, 540), (960, 540), (960, 540), (960, 540), (960, 540), (960, 540), (960, 540), (960, 540), (960, 540), (960, 540), (960, 540), (960, 540), (960, 540), (960, 540), (960, 540), (960, 540), (960, 540), (960, 540), (960, 540), (960, 540), (960, 540), (960, 540), (960, 540), (960, 540), (960, 540), (960, 540), (960, 540), (960, 540), (960, 540), (960, 540), (960, 540), (960, 540), (960, 540), (960, 540), (960, 540), (960, 540), (960, 540), (960, 540), (960, 540), (960, 540), (960, 540), (960, 540), (960, 540), (960, 540), (960, 540), (960, 540), (960, 540), (960, 540), (960, 540), (960, 540), (960, 540), (960, 540), (960, 540), (960, 540), (960, 540), (960, 540), (960, 540), (960, 540), (960, 540), (960, 540), (960, 540), (960, 540), (960, 540), (960, 540), (960, 540), (960, 540), (960, 540), (960, 540), (960, 540), (960, 540), (960, 540), (960, 540), (960, 540), (960, 540), (960, 540), (960, 540), (960, 540), (960, 540), (960, 540), (960, 540), (960, 540), (960, 540), (960, 540), (960, 540), (960, 540), (960, 540), (960, 540), (960, 540), (960, 540), (960, 540), (960, 540), (960, 540), (960, 540), (960, 540), (960, 540), (960, 540), (960, 540), (960, 540), (960, 540), (960, 540), (960, 540), (960, 540), (960, 540), (960, 540), (960, 540), (960, 540), (960, 540), (960, 540), (960, 540), (959, 541), (959, 541), (959, 541), (959, 541), (959, 541), (959, 541), (957, 542), (957, 542), (957, 542), (957, 542), (957, 542), (957, 542), (957, 542), (957, 542), (957, 542), (957, 542), (957, 542), (957, 542), (957, 542), (957, 542), (957, 542), (957, 542), (957, 542), (957, 542), (957, 542), (957, 542), (957, 542), (957, 542), (957, 542), (957, 542), (957, 542), (957, 542), (957, 542), (957, 542), (957, 542), (957, 542), (957, 542), (957, 542), (957, 542), (957, 542), (957, 542), (957, 542), (957, 542), (957, 542), (957, 542), (957, 542), (957, 542), (957, 542), (957, 542), (957, 542), (957, 542), (957, 542), (957, 542), (957, 542), (957, 542), (961, 544), (970, 545), (986, 549), (1005, 552), (1060, 568), (1088, 576), (1124, 585), (1168, 597), (1246, 621), (1280, 630), (1310, 638), (1338, 646), (1373, 656)]",15.688548145577785,"[5, 6, 7, 8, 9, 2, 3, 1, 4]","(0, 0.25)",ENG005A,ENG,A,English,Wed Aug 15 11:09:19 2018,Mouse
1,0,1,0,49,4,4,1,1831,1111,720,134,0,500,200,8000,"[(960, 540), (960, 540), (960, 540), (960, 540), (960, 540), (960, 540), (960, 540), (960, 540), (960, 540), (960, 540), (960, 540), (960, 540), (960, 540), (960, 540), (960, 540), (960, 540), (960, 540), (960, 540), (960, 540), (960, 540), (960, 540), (960, 540), (960, 540), (960, 540), (960, 540), (960, 540), (960, 540), (960, 540), (960, 540), (960, 540), (960, 540), (960, 540), (960, 540), (960, 540), (960, 540), (960, 540), (960, 540), (960, 540), (960, 540), (960, 540), (960, 540), (960, 540), (960, 540), (960, 540), (960, 540), (960, 540), (960, 540), (960, 540), (960, 540), (960, 540), (960, 540), (960, 540), (960, 540), (960, 540), (960, 540), (960, 540), (960, 540), (960, 540), (960, 540), (960, 540), (960, 540), (960, 540), (960, 540), (960, 540), (960, 540), (960, 540), (960, 540), (960, 540), (960, 540), (960, 540), (960, 540), (960, 540), (960, 540), (960, 540), (960, 540), (960, 540), (960, 540), (960, 540), (960, 540), (960, 540), (960, 540), (960, 540), (960, 540), (960, 540), (960, 540), (960, 540), (960, 540), (960, 540), (960, 540), (960, 540), (960, 540), (960, 540), (960, 540), (960, 540), (960, 540), (960, 540), (960, 540), (960, 540), (960, 540), (960, 540), (960, 540), (960, 540), (960, 540), (960, 540), (960, 540), (960, 540), (960, 540), (960, 540), (960, 540), (960, 540), (960, 540), (957, 541), (956, 542), (955, 543), (955, 543), (954, 543), (954, 543), (954, 543), (954, 543), (954, 543), (954, 543), (954, 543), (954, 543), (954, 543), (954, 543), (954, 543), (954, 543), (954, 543), (954, 543), (954, 543), (954, 543), (954, 543), (954, 543), (954, 543), (954, 543), (954, 543), (954, 543), (954, 543), (954, 543), (954, 543), (954, 543), (954, 543), (954, 543), (954, 543), (961, 543), (968, 542), (974, 540), (988, 535), (994, 535), (1000, 531), (1002, 531), (1009, 530), (1011, 528), (1011, 528), (1013, 528), (1016, 526), (1018, 525), (1022, 523), (1027, 520), (1037, 515), (1041, 514), (1049, 510), (1055, 507), (1068, 499), (1074, 495), (1082, 491), (1086, 487), (1098, 477), (1106, 471), (1112, 465), (1117, 461), (1129, 453), (1135, 449), (1143, 445), (1150, 441), (1169, 432), (1179, 429), (1191, 425), (1206, 418), (1241, 406), (1258, 401), (1283, 393), (1307, 389), (1355, 381)]",338.07365442838125,"[5, 6, 7, 8, 9, 2, 3, 1, 4]","(0, 0.25)",ENG005A,ENG,A,English,Wed Aug 15 11:09:19 2018,Mouse
1,0,1,0,50,6,8,0,-920,740,180,133,0,500,200,8000,"[(960, 540), (960, 540), (960, 540), (960, 540), (960, 540), (960, 540), (960, 540), (960, 540), (960, 540), (960, 540), (960, 540), (960, 540), (960, 540), (960, 540), (960, 540), (960, 540), (960, 540), (960, 540), (960, 540), (960, 540), (960, 540), (960, 540), (960, 540), (960, 540), (960, 540), (960, 540), (960, 540), (960, 540), (960, 540), (960, 540), (960, 540), (960, 540), (960, 540), (960, 540), (960, 540), (960, 540), (960, 540), (960, 540), (960, 540), (960, 540), (960, 540), (960, 540), (960, 540), (960, 540), (960, 540), (960, 540), (960, 540), (960, 540), (960, 540), (960, 540), (960, 540), (960, 540), (960, 540), (960, 540), (960, 540), (960, 540), (960, 540), (960, 540), (960, 540), (960, 540), (960, 540), (960, 540), (960, 540), (960, 540), (960, 540), (960, 540), (960, 540), (960, 540), (960, 540), (960, 540), (960, 540), (960, 540), (960, 540), (959, 541), (952, 546), (950, 548), (944, 554), (937, 560), (917, 575), (906, 583), (895, 591), (888, 594), (865, 607), (851, 615), (830, 624), (806, 639), (752, 666), (728, 681), (700, 698), (675, 716), (637, 745), (620, 756)]",147.57244500422755,"[5, 6, 7, 8, 9, 2, 3, 1, 4]","(0, 0.25)",ENG005A,ENG,A,English,Wed Aug 15 11:09:19 2018,Mouse
1,0,1,0,51,4,4,1,621,421,200,134,0,500,200,8000,"[(960, 540), (960, 540), (960, 540), (960, 540), (960, 540), (960, 540), (960, 540), (960, 540), (960, 540), (960, 540), (960, 540), (960, 540), (960, 540), (960, 540), (960, 540), (960, 540), (960, 540), (960, 540), (960, 540), (960, 540), (960, 540), (960, 540), (960, 540), (960, 540), (960, 540), (960, 540), (960, 540), (960, 540), (960, 540), (960, 540), (960, 540), (960, 540), (960, 540), (960, 540), (960, 540), (960, 540), (960, 540), (960, 540), (960, 540), (960, 540), (960, 540), (960, 540), (961, 541), (964, 541), (973, 537), (982, 533), (1003, 525), (1014, 521), (1030, 516), (1045, 511), (1083, 501), (1106, 494), (1125, 490), (1139, 487), (1172, 477), (1194, 473), (1217, 465), (1239, 459), (1272, 451), (1288, 448), (1306, 446), (1320, 442), (1352, 430)]",344.3252299249904,"[5, 6, 7, 8, 9, 2, 3, 1, 4]","(0, 0.25)",ENG005A,ENG,A,English,Wed Aug 15 11:09:19 2018,Mouse
1,0,1,0,52,9,9,1,610,280,330,134,0,500,200,8000,"[(960, 540), (960, 540), (960, 540), (960, 540), (960, 540), (960, 540), (960, 540), (960, 540), (960, 540), (960, 540), (960, 540), (960, 540), (960, 540), (960, 540), (960, 540), (960, 540), (960, 540), (960, 540), (960, 540), (960, 540), (960, 540), (960, 540), (960, 540), (960, 540), (960, 540), (960, 540), (960, 540), (958, 542), (958, 543), (957, 544), (956, 545), (954, 547), (951, 549), (950, 550), (949, 551), (944, 551), (942, 553), (941, 554), (938, 554), (935, 555), (930, 556), (928, 557), (925, 557), (914, 558), (906, 558), (899, 558), (889, 558), (871, 558), (859, 558), (844, 558), (828, 558), (786, 558), (769, 558), (744, 558), (724, 558), (675, 556), (658, 555), (628, 552), (599, 547), (562, 542), (550, 542)]",179.72051060945526,"[5, 6, 7, 8, 9, 2, 3, 1, 4]","(0, 0.25)",ENG005A,ENG,A,English,Wed Aug 15 11:09:19 2018,Mouse
1,0,1,0,53,6,2,0,-791,551,240,133,0,500,200,8000,"[(960, 540), (960, 540), (960, 540), (960, 540), (960, 540), (960, 540), (960, 540), (960, 540), (960, 540), (960, 540), (960, 540), (960, 540), (960, 540), (960, 540), (960, 540), (960, 540), (960, 540), (960, 540), (960, 540), (960, 540), (960, 540), (960, 540), (960, 540), (960, 540), (960, 540), (960, 540), (960, 540), (960, 540), (960, 540), (960, 540), (960, 540), (960, 540), (960, 540), (960, 540), (960, 540), (960, 540), (960, 540), (960, 540), (960, 540), (960, 540), (960, 540), (960, 540), (960, 540), (960, 540), (960, 540), (960, 540), (960, 540), (960, 540), (960, 540), (960, 540), (960, 540), (960, 540), (960, 540), (960, 540), (960, 540), (960, 539), (956, 534), (938, 520), (885, 484), (862, 466), (837, 451), (818, 437), (783, 413), (771, 402), (761, 393), (750, 386), (738, 375), (734, 371), (730, 367), (727, 363), (718, 355), (713, 351), (707, 347), (702, 342), (693, 334), (688, 328), (681, 320), (666, 302), (657, 294), (648, 286)]",219.14912366727074,"[5, 6, 7, 8, 9, 2, 3, 1, 4]","(0, 0.25)",ENG005A,ENG,A,English,Wed Aug 15 11:09:19 2018,Mouse
1,0,1,0,54,6,6,1,1111,791,320,134,0,500,200,8000,"[(960, 540), (960, 540), (960, 540), (960, 540), (960, 540), (960, 540), (960, 540), (960, 540), (960, 540), (960, 540), (960, 540), (960, 540), (960, 540), (960, 540), (960, 540), (960, 540), (960, 540), (960, 540), (960, 540), (960, 540), (960, 540), (960, 540), (960, 540), (960, 540), (960, 540), (960, 540), (960, 540), (960, 540), (960, 540), (960, 540), (960, 540), (960, 540), (960, 540), (960, 540), (960, 540), (960, 540), (960, 540), (960, 540), (960, 540), (960, 540), (960, 540), (960, 540), (960, 540), (960, 540), (960, 540), (960, 540), (960, 540), (960, 540), (960, 540), (960, 540), (960, 540), (960, 540), (960, 540), (960, 540), (960, 540), (960, 540), (960, 540), (960, 540), (960, 540), (960, 540), (960, 540), (960, 540), (960, 540), (960, 540), (960, 540), (960, 540), (960, 540), (960, 540), (960, 540), (960, 540), (960, 540), (960, 540), (960, 540), (960, 540), (960, 540), (960, 540), (960, 540), (960, 540), (960, 540), (961, 540), (961, 542), (964, 546), (965, 547), (966, 549), (967, 551), (970, 556), (971, 557), (972, 558), (973, 560), (978, 567), (980, 570), (984, 576), (989, 583), (998, 599), (1001, 609), (1010, 624), (1017, 637), (1031, 662), (1042, 677), (1049, 689), (1054, 699), (1073, 731), (1081, 749), (1091, 765), (1100, 781), (1112, 816), (1116, 830), (1121, 846), (1126, 863), (1134, 887), (1138, 897), (1142, 904)]",63.43494882292201,"[5, 6, 7, 8, 9, 2, 3, 1, 4]","(0, 0.25)",ENG005A,ENG,A,English,Wed Aug 15 11:09:19 2018,Mouse
1,0,1,0,55,5,5,1,2371,1371,1000,134,0,500,200,8000,"[(960, 540), (960, 540), (960, 540), (960, 540), (960, 540), (960, 540), (960, 540), (960, 540), (960, 540), (960, 540), (960, 540), (960, 540), (960, 540), (960, 540), (960, 540), (960, 540), (960, 540), (960, 540), (960, 540), (960, 540), (960, 540), (960, 540), (960, 540), (960, 540), (960, 540), (960, 540), (960, 540), (960, 540), (960, 540), (960, 540), (960, 540), (960, 540), (960, 540), (960, 540), (960, 540), (960, 540), (960, 540), (960, 540), (960, 540), (960, 540), (960, 540), (960, 540), (960, 540), (960, 540), (960, 540), (960, 540), (960, 540), (960, 540), (960, 540), (960, 540), (960, 540), (960, 540), (960, 540), (960, 540), (960, 540), (960, 540), (960, 540), (960, 540), (960, 540), (960, 540), (960, 540), (960, 540), (960, 540), (960, 540), (960, 540), (960, 540), (960, 540), (960, 540), (960, 540), (960, 540), (960, 540), (960, 540), (960, 540), (960, 540), (960, 540), (960, 540), (960, 540), (960, 540), (960, 540), (960, 540), (960, 540), (960, 540), (960, 540), (960, 540), (960, 540), (960, 540), (960, 540), (960, 540), (960, 540), (960, 540), (960, 540), (960, 540), (960, 540), (960, 540), (960, 540), (960, 540), (960, 540), (960, 540), (960, 540), (960, 540), (960, 540), (960, 540), (960, 540), (960, 540), (960, 540), (960, 540), (960, 540), (960, 540), (960, 540), (960, 540), (960, 540), (960, 540), (960, 540), (960, 540), (960, 540), (960, 540), (960, 540), (960, 540), (960, 540), (960, 540), (960, 540), (960, 540), (960, 540), (960, 540), (960, 540), (960, 540), (960, 540), (960, 540), (960, 540), (960, 540), (960, 540), (960, 540), (960, 540), (960, 540), (960, 540), (960, 540), (960, 540), (960, 541), (960, 542), (960, 542), (960, 543), (960, 543), (960, 543), (960, 544), (960, 544), (960, 544), (960, 544), (960, 544), (960, 544), (960, 544), (960, 544), (960, 544), (960, 544), (960, 544), (960, 544), (960, 544), (960, 544), (960, 544), (960, 544), (960, 544), (960, 544), (960, 544), (960, 544), (960, 544), (960, 544), (960, 544), (960, 544), (960, 544), (960, 544), (960, 544), (960, 544), (960, 544), (960, 545), (961, 545), (962, 546), (962, 546), (964, 546), (965, 547), (967, 547), (967, 547), (968, 547), (970, 547), (970, 547), (970, 547), (971, 547), (973, 547), (975, 547), (976, 547), (976, 547), (977, 547), (978, 547), (978, 547), (978, 547), (978, 547), (978, 547), (978, 547), (978, 547), (978, 547), (978, 547), (978, 547), (978, 547), (978, 547), (978, 547), (978, 547), (978, 547), (978, 547), (978, 547), (979, 547), (979, 547), (980, 547), (982, 549), (984, 550), (989, 553), (1005, 563), (1015, 567), (1028, 573), (1040, 578), (1080, 595), (1103, 605), (1124, 614), (1136, 619), (1160, 626), (1169, 629), (1172, 630), (1173, 631), (1174, 631), (1174, 631), (1175, 632), (1176, 632), (1182, 633), (1191, 635), (1207, 640), (1227, 647), (1275, 663), (1290, 669), (1308, 676), (1323, 680), (1344, 686)]",20.817220753109922,"[5, 6, 7, 8, 9, 2, 3, 1, 4]","(0, 0.25)",ENG005A,ENG,A,English,Wed Aug 15 11:09:19 2018,Mouse
1,0,1,0,56,2,2,1,1090,70,1020,133,0,500,200,8000,"[(960, 540), (960, 540), (960, 540), (960, 540), (960, 540), (960, 540), (960, 541), (959, 541), (959, 541), (959, 541), (959, 542), (959, 542), (959, 542), (959, 542), (959, 542), (959, 543), (959, 543), (959, 543), (959, 543), (959, 544), (959, 544), (959, 544), (959, 544), (959, 544), (959, 544), (959, 544), (959, 544), (959, 544), (959, 544), (959, 544), (959, 544), (959, 544), (959, 544), (959, 544), (959, 544), (959, 544), (959, 544), (959, 544), (959, 544), (959, 544), (959, 544), (959, 544), (959, 544), (959, 544), (959, 544), (959, 545), (959, 545), (959, 546), (959, 546), (959, 547), (959, 547), (959, 547), (959, 547), (959, 547), (959, 547), (959, 547), (959, 547), (959, 547), (959, 547), (959, 547), (959, 547), (959, 547), (959, 547), (959, 547), (959, 547), (959, 547), (959, 547), (959, 547), (959, 547), (959, 547), (959, 547), (959, 547), (959, 547), (959, 547), (959, 547), (959, 547), (959, 547), (959, 547), (959, 547), (959, 547), (959, 547), (959, 547), (957, 547), (952, 547), (943, 547), (937, 547), (908, 539), (879, 527), (855, 516), (826, 504), (779, 483), (761, 475), (750, 470), (737, 463), (715, 452), (706, 447), (696, 441), (688, 434), (678, 426), (674, 423), (670, 419), (669, 416), (662, 402), (659, 392), (653, 380), (647, 365), (636, 336), (630, 324), (624, 309)]",214.5085229876684,"[5, 6, 7, 8, 9, 2, 3, 1, 4]","(0, 0.25)",ENG005A,ENG,A,English,Wed Aug 15 11:09:19 2018,Mouse
1,0,1,0,57,4,6,0,-2130,1960,170,132,0,500,200,8000,"[(960, 540), (960, 540), (960, 540), (960, 540), (960, 540), (960, 540), (960, 540), (960, 540), (960, 540), (960, 540), (960, 540), (960, 540), (960, 540), (960, 540), (960, 540), (960, 540), (960, 540), (960, 540), (960, 540), (960, 540), (960, 540), (960, 540), (960, 540), (960, 540), (960, 540), (960, 540), (960, 540), (960, 540), (960, 540), (960, 540), (960, 540), (960, 540), (960, 540), (960, 540), (960, 540), (960, 540), (960, 540), (960, 540), (960, 540), (960, 540), (960, 540), (960, 540), (960, 540), (960, 540), (960, 540), (960, 540), (960, 540), (960, 540), (960, 540), (960, 540), (960, 540), (960, 540), (960, 540), (960, 540), (960, 540), (960, 540), (960, 540), (960, 540), (960, 540), (960, 540), (960, 540), (960, 540), (960, 540), (960, 540), (960, 540), (960, 540), (960, 540), (960, 540), (960, 540), (960, 540), (960, 540), (960, 540), (960, 540), (960, 540), (960, 540), (960, 540), (960, 540), (960, 540), (960, 540), (960, 540), (960, 540), (960, 540), (960, 540), (960, 540), (960, 540), (960, 540), (960, 540), (960, 540), (960, 540), (960, 540), (960, 540), (960, 540), (960, 540), (960, 540), (960, 540), (960, 540), (960, 540), (960, 540), (960, 540), (960, 540), (960, 540), (960, 540), (960, 540), (960, 540), (960, 540), (960, 540), (960, 540), (960, 540), (960, 540), (960, 540), (960, 540), (960, 540), (960, 540), (960, 540), (960, 540), (960, 540), (960, 540), (960, 540), (960, 540), (960, 540), (960, 540), (960, 540), (960, 540), (960, 540), (960, 540), (960, 540), (960, 540), (960, 540), (960, 540), (960, 540), (960, 540), (960, 540), (960, 540), (960, 540), (960, 540), (960, 540), (960, 540), (960, 540), (960, 540), (960, 540), (960, 540), (960, 540), (960, 540), (960, 540), (960, 540), (960, 540), (960, 540), (960, 540), (960, 540), (960, 540), (960, 540), (960, 540), (960, 540), (960, 540), (960, 540), (960, 540), (960, 540), (960, 540), (960, 540), (960, 540), (960, 540), (960, 540), (960, 540), (960, 540), (960, 540), (960, 540), (960, 540), (960, 540), (960, 540), (960, 540), (960, 540), (960, 540), (960, 540), (960, 540), (960, 540), (960, 540), (960, 540), (960, 540), (960, 540), (960, 540), (960, 540), (960, 540), (960, 540), (960, 540), (960, 540), (960, 540), (960, 540), (960, 540), (960, 540), (960, 540), (960, 540), (960, 540), (960, 540), (960, 540), (960, 540), (959, 540), (958, 540), (948, 546), (940, 554), (926, 565), (905, 580), (868, 622), (861, 642), (859, 658), (855, 674), (855, 703), (862, 722), (874, 743), (897, 782), (975, 832), (1021, 860), (1072, 883), (1129, 906)]",65.21493292754025,"[5, 6, 7, 8, 9, 2, 3, 1, 4]","(0, 0.25)",ENG005A,ENG,A,English,Wed Aug 15 11:09:19 2018,Mouse
1,0,1,0,58,4,4,1,851,551,300,133,0,500,200,8000,"[(960, 540), (960, 540), (960, 540), (960, 540), (960, 540), (960, 540), (960, 540), (960, 540), (960, 540), (960, 540), (960, 540), (960, 540), (960, 540), (960, 540), (960, 540), (960, 540), (960, 540), (960, 540), (960, 540), (960, 540), (960, 540), (960, 540), (960, 540), (960, 540), (960, 540), (960, 540), (960, 540), (960, 540), (960, 540), (960, 540), (960, 540), (960, 540), (960, 540), (960, 540), (960, 540), (960, 540), (960, 540), (960, 540), (960, 540), (960, 540), (960, 540), (960, 540), (960, 540), (960, 540), (960, 540), (960, 540), (960, 540), (960, 540), (960, 540), (960, 540), (960, 540), (960, 540), (960, 540), (960, 540), (960, 540), (964, 539), (975, 536), (988, 531), (1002, 525), (1041, 510), (1056, 503), (1073, 497), (1094, 488), (1115, 479), (1126, 477), (1139, 473), (1150, 470), (1171, 464), (1178, 461), (1189, 461), (1198, 460), (1216, 457), (1226, 455), (1236, 451), (1243, 449), (1256, 444), (1260, 442), (1264, 439), (1269, 436), (1280, 429), (1286, 426), (1294, 422), (1303, 418), (1321, 407), (1332, 402), (1340, 399)]",339.6424955260791,"[5, 6, 7, 8, 9, 2, 3, 1, 4]","(0, 0.25)",ENG005A,ENG,A,English,Wed Aug 15 11:09:19 2018,Mouse
1,0,1,0,59,9,2,0,-880,390,490,133,0,500,200,8000,"[(960, 540), (960, 540), (960, 540), (960, 540), (960, 540), (960, 540), (960, 540), (960, 540), (960, 540), (960, 540), (960, 540), (960, 540), (960, 540), (960, 540), (960, 540), (960, 540), (960, 540), (960, 540), (960, 540), (960, 540), (960, 540), (960, 540), (960, 540), (960, 540), (960, 540), (960, 540), (960, 540), (960, 540), (960, 540), (960, 540), (960, 540), (960, 540), (960, 540), (960, 540), (960, 540), (960, 540), (960, 540), (960, 540), (959, 541), (960, 543), (964, 550), (967, 553), (969, 557), (975, 563), (987, 574), (995, 581), (1002, 586), (1013, 592), (1025, 598), (1031, 600), (1035, 603), (1038, 603), (1045, 604), (1047, 604), (1050, 606), (1051, 606), (1055, 606), (1057, 606), (1058, 606), (1058, 606), (1058, 606), (1058, 606), (1058, 606), (1059, 606), (1054, 592), (1040, 574), (1026, 554), (994, 524), (921, 466), (871, 437), (831, 416), (793, 397), (723, 364), (697, 353), (673, 340), (660, 335), (640, 328), (637, 325), (635, 324), (635, 324), (633, 324), (633, 324), (631, 323), (631, 323), (629, 321), (629, 321), (628, 321), (625, 319)]",213.4128959102403,"[5, 6, 7, 8, 9, 2, 3, 1, 4]","(0, 0.25)",ENG005A,ENG,A,English,Wed Aug 15 11:09:19 2018,Mouse
1,0,1,0,60,2,2,1,590,320,270,134,0,500,200,8000,"[(960, 540), (960, 540), (960, 540), (960, 540), (960, 540), (960, 540), (960, 540), (960, 540), (960, 540), (960, 540), (960, 540), (960, 540), (960, 540), (960, 540), (960, 540), (960, 540), (960, 540), (960, 540), (960, 540), (960, 540), (960, 540), (960, 540), (960, 540), (960, 540), (960, 540), (960, 540), (960, 540), (960, 540), (960, 540), (960, 540), (960, 540), (949, 522), (941, 512), (932, 502), (923, 491), (903, 469), (893, 457), (879, 442), (866, 430), (844, 409), (832, 399), (822, 389), (811, 380), (799, 368), (792, 362), (787, 358), (782, 354), (770, 346), (764, 342), (758, 337), (750, 331), (731, 318), (720, 312), (708, 305), (697, 299), (678, 288), (671, 284), (661, 279), (652, 273)]",220.92146464126122,"[5, 6, 7, 8, 9, 2, 3, 1, 4]","(0, 0.25)",ENG005A,ENG,A,English,Wed Aug 15 11:09:19 2018,Mouse
1,0,1,0,61,2,8,0,-920,800,120,134,0,500,200,8000,"[(960, 540), (960, 540), (960, 540), (960, 540), (960, 540), (960, 540), (960, 540), (960, 540), (960, 540), (960, 540), (960, 540), (960, 540), (960, 540), (960, 540), (960, 540), (960, 540), (960, 540), (960, 540), (960, 540), (960, 540), (960, 540), (960, 540), (960, 540), (960, 540), (960, 540), (960, 540), (960, 540), (960, 540), (960, 540), (960, 540), (960, 540), (960, 540), (960, 540), (960, 540), (960, 540), (960, 540), (960, 540), (960, 540), (960, 540), (960, 540), (960, 540), (960, 540), (960, 540), (960, 540), (960, 540), (960, 540), (960, 540), (960, 540), (960, 540), (960, 540), (960, 540), (960, 540), (960, 540), (960, 540), (960, 540), (960, 540), (960, 540), (960, 540), (960, 540), (960, 540), (960, 540), (960, 540), (960, 540), (960, 540), (960, 540), (960, 540), (960, 540), (960, 540), (960, 540), (960, 540), (960, 540), (960, 540), (960, 540), (960, 540), (960, 540), (960, 540), (960, 540), (960, 540), (960, 540), (957, 542), (953, 544), (950, 545), (942, 549), (918, 563), (891, 586), (860, 610), (826, 636), (760, 695), (728, 721), (702, 744), (681, 763), (631, 812)]",140.4178366338445,"[5, 6, 7, 8, 9, 2, 3, 1, 4]","(0, 0.25)",ENG005A,ENG,A,English,Wed Aug 15 11:09:19 2018,Mouse
1,0,1,0,62,8,8,1,440,150,290,135,0,500,200,8000,"[(960, 540), (960, 540), (960, 540), (960, 540), (960, 540), (960, 540), (960, 540), (960, 540), (960, 540), (960, 540), (960, 540), (960, 540), (960, 540), (960, 540), (960, 541), (960, 541), (960, 541), (960, 542), (959, 542), (959, 543), (959, 543), (958, 543), (956, 544), (954, 544), (953, 545), (950, 545), (945, 547), (942, 548), (936, 550), (931, 553), (913, 564), (902, 571), (886, 581), (870, 592), (817, 628), (795, 641), (775, 654), (752, 672), (710, 702), (697, 713), (677, 729), (665, 740), (640, 761), (631, 768)]",145.27768778245448,"[5, 6, 7, 8, 9, 2, 3, 1, 4]","(0, 0.25)",ENG005A,ENG,A,English,Wed Aug 15 11:09:19 2018,Mouse
1,0,1,0,63,3,3,1,888,648,240,135,0,500,200,8000,"[(960, 540), (960, 540), (960, 540), (960, 540), (960, 540), (960, 540), (960, 540), (960, 540), (960, 540), (960, 540), (960, 540), (960, 540), (960, 540), (960, 540), (960, 540), (960, 540), (960, 540), (960, 540), (960, 540), (960, 540), (960, 540), (960, 540), (960, 540), (960, 540), (960, 540), (960, 540), (960, 540), (960, 540), (960, 540), (960, 540), (960, 540), (960, 540), (960, 540), (960, 540), (960, 540), (960, 540), (960, 540), (960, 540), (960, 540), (960, 540), (960, 540), (960, 540), (960, 540), (960, 540), (960, 540), (960, 540), (960, 540), (960, 540), (960, 540), (960, 540), (960, 540), (960, 540), (960, 540), (960, 540), (960, 540), (960, 540), (960, 540), (960, 540), (960, 540), (960, 540), (960, 540), (960, 540), (960, 540), (960, 540), (960, 537), (961, 531), (965, 512), (966, 502), (967, 491), (969, 477), (972, 451), (975, 439), (976, 428), (977, 418), (981, 395), (982, 381), (984, 362), (986, 346), (988, 309), (988, 294), (988, 279), (988, 267), (988, 240), (988, 226), (988, 212), (988, 197), (984, 161), (981, 147), (977, 132)]",272.3859440303888,"[5, 6, 7, 8, 9, 2, 3, 1, 4]","(0, 0.25)",ENG005A,ENG,A,English,Wed Aug 15 11:09:19 2018,Mouse
1,0,1,0,64,3,9,0,-762,452,310,134,0,500,200,8000,"[(960, 540), (960, 540), (960, 540), (960, 540), (960, 540), (960, 540), (960, 540), (960, 540), (960, 540), (960, 540), (960, 540), (960, 540), (960, 540), (960, 540), (960, 540), (960, 540), (960, 540), (960, 540), (960, 540), (960, 540), (960, 540), (960, 540), (960, 540), (960, 540), (960, 540), (960, 540), (960, 540), (960, 540), (960, 540), (960, 540), (960, 540), (960, 540), (960, 540), (960, 540), (960, 540), (960, 540), (960, 540), (960, 540), (960, 540), (960, 540), (960, 540), (960, 540), (960, 540), (960, 540), (960, 540), (957, 540), (953, 541), (948, 541), (932, 541), (920, 541), (908, 541), (891, 541), (869, 541), (858, 541), (847, 541), (837, 541), (817, 538), (810, 538), (799, 538), (787, 538), (765, 538), (755, 538), (742, 538), (729, 538), (700, 538), (687, 538), (677, 537), (665, 536), (643, 532), (630, 531), (621, 528), (609, 526), (594, 523), (586, 523), (578, 521), (573, 521), (560, 520)]",182.86240522611175,"[5, 6, 7, 8, 9, 2, 3, 1, 4]","(0, 0.25)",ENG005A,ENG,A,English,Wed Aug 15 11:09:19 2018,Mouse
1,0,1,0,65,5,3,0,-751,461,290,135,0,500,200,8000,"[(960, 540), (960, 540), (960, 540), (960, 540), (960, 540), (960, 540), (960, 540), (960, 540), (960, 540), (960, 540), (960, 540), (960, 540), (960, 540), (960, 540), (960, 540), (960, 540), (960, 540), (960, 540), (960, 540), (960, 540), (960, 540), (960, 540), (960, 540), (960, 540), (960, 540), (960, 540), (960, 540), (960, 540), (960, 540), (960, 540), (960, 540), (960, 540), (960, 540), (960, 540), (960, 540), (960, 540), (960, 540), (960, 540), (960, 540), (960, 540), (960, 540), (960, 540), (960, 540), (960, 540), (960, 540), (960, 540), (960, 538), (960, 524), (960, 513), (960, 502), (960, 489), (960, 465), (958, 453), (957, 442), (956, 430), (951, 404), (951, 393), (950, 378), (950, 364), (950, 336), (950, 324), (948, 308), (948, 295), (948, 270), (946, 262), (945, 252), (944, 242), (941, 223), (940, 213), (939, 202), (934, 192), (930, 175), (929, 166), (928, 157), (925, 150), (923, 137)]",264.75429971488745,"[5, 6, 7, 8, 9, 2, 3, 1, 4]","(0, 0.25)",ENG005A,ENG,A,English,Wed Aug 15 11:09:19 2018,Mouse
1,0,1,0,66,2,2,1,1061,541,520,136,0,500,200,8000,"[(960, 540), (960, 540), (960, 540), (960, 540), (960, 540), (960, 540), (960, 540), (960, 540), (960, 540), (960, 540), (960, 540), (960, 540), (960, 540), (960, 540), (960, 540), (960, 540), (960, 540), (960, 540), (960, 540), (960, 540), (960, 540), (960, 540), (960, 540), (960, 540), (960, 540), (960, 540), (960, 540), (960, 540), (960, 540), (960, 540), (960, 540), (960, 540), (960, 540), (960, 540), (960, 540), (960, 540), (960, 540), (960, 540), (960, 540), (960, 540), (960, 540), (960, 540), (960, 540), (960, 540), (960, 540), (960, 540), (960, 540), (960, 540), (960, 540), (960, 540), (960, 540), (960, 540), (960, 540), (960, 540), (960, 539), (960, 531), (960, 527), (960, 520), (960, 517), (960, 510), (961, 508), (965, 503), (966, 500), (973, 489), (976, 483), (981, 476), (984, 468), (989, 455), (991, 452), (991, 450), (991, 448), (991, 445), (991, 445), (991, 445), (991, 445), (991, 445), (991, 445), (991, 445), (991, 445), (991, 445), (990, 445), (986, 445), (979, 444), (968, 443), (963, 440), (957, 439), (951, 436), (941, 430), (936, 428), (932, 425), (929, 424), (917, 417), (908, 412), (901, 408), (887, 400), (863, 387), (850, 380), (837, 373), (824, 367), (798, 353), (782, 345), (767, 337), (745, 324), (710, 307), (690, 299), (669, 289), (651, 280)]",220.07806006282027,"[5, 6, 7, 8, 9, 2, 3, 1, 4]","(0, 0.25)",ENG005A,ENG,A,English,Wed Aug 15 11:09:19 2018,Mouse
1,0,1,0,67,6,8,0,-1149,759,390,136,0,500,200,8000,"[(960, 540), (960, 540), (960, 540), (960, 540), (960, 540), (960, 540), (960, 540), (960, 540), (960, 540), (960, 540), (960, 540), (960, 540), (960, 540), (960, 540), (960, 540), (960, 540), (960, 540), (960, 540), (960, 540), (960, 540), (960, 540), (960, 540), (960, 540), (960, 540), (960, 540), (960, 540), (960, 540), (960, 540), (960, 540), (960, 540), (960, 540), (960, 540), (960, 540), (960, 540), (960, 540), (960, 540), (960, 540), (960, 540), (960, 540), (960, 540), (960, 540), (960, 540), (960, 540), (960, 540), (960, 540), (960, 540), (960, 540), (960, 540), (960, 540), (960, 540), (960, 540), (960, 540), (960, 540), (960, 540), (960, 540), (960, 540), (960, 540), (960, 540), (960, 540), (960, 540), (960, 540), (960, 540), (960, 540), (960, 540), (960, 540), (960, 540), (960, 540), (960, 540), (960, 540), (960, 540), (960, 540), (960, 540), (960, 540), (960, 540), (960, 540), (946, 553), (940, 559), (929, 572), (917, 583), (896, 601), (886, 608), (878, 615), (866, 624), (850, 637), (842, 644), (833, 651), (826, 658), (810, 673), (804, 680), (796, 689), (790, 696), (778, 710), (771, 718), (766, 723), (761, 730), (751, 743), (747, 748), (742, 754), (737, 759), (732, 767), (727, 772), (722, 778), (718, 783), (705, 795), (698, 800), (694, 804), (688, 808), (682, 812), (680, 814), (678, 815), (678, 816), (675, 818), (675, 820), (675, 820), (672, 822)]",135.60309119438054,"[5, 6, 7, 8, 9, 2, 3, 1, 4]","(0, 0.25)",ENG005A,ENG,A,English,Wed Aug 15 11:09:19 2018,Mouse
1,0,1,0,68,6,6,1,820,530,290,137,0,500,200,8000,"[(960, 540), (960, 540), (960, 540), (960, 540), (960, 540), (960, 540), (960, 540), (960, 540), (960, 540), (960, 540), (960, 540), (960, 540), (960, 540), (960, 540), (960, 540), (960, 540), (960, 540), (960, 540), (960, 540), (960, 540), (960, 540), (960, 540), (960, 540), (960, 540), (960, 540), (960, 540), (960, 540), (960, 540), (960, 540), (960, 540), (960, 540), (960, 540), (960, 540), (960, 540), (960, 540), (960, 540), (960, 540), (960, 540), (960, 540), (960, 540), (960, 540), (960, 540), (960, 540), (960, 540), (960, 540), (960, 540), (960, 540), (960, 540), (960, 540), (960, 540), (960, 540), (960, 540), (962, 540), (969, 544), (975, 552), (985, 564), (1005, 594), (1015, 613), (1027, 632), (1037, 651), (1057, 695), (1066, 716), (1074, 737), (1081, 752), (1086, 778), (1089, 791), (1090, 804), (1092, 817), (1095, 839), (1096, 846), (1097, 854), (1100, 861), (1101, 868), (1101, 872), (1104, 876), (1105, 879), (1106, 885), (1108, 888), (1110, 893), (1114, 898), (1118, 905), (1120, 908)]",66.5014343240479,"[5, 6, 7, 8, 9, 2, 3, 1, 4]","(0, 0.25)",ENG005A,ENG,A,English,Wed Aug 15 11:09:19 2018,Mouse
1,0,1,0,69,3,3,1,781,421,360,137,0,500,200,8000,"[(960, 540), (960, 540), (960, 540), (960, 540), (960, 540), (960, 540), (960, 540), (960, 540), (960, 540), (960, 540), (960, 540), (960, 540), (960, 540), (960, 540), (960, 540), (960, 540), (960, 540), (960, 540), (960, 540), (960, 540), (960, 540), (960, 540), (960, 540), (960, 540), (960, 540), (960, 540), (960, 540), (960, 540), (960, 540), (960, 540), (960, 540), (960, 540), (960, 540), (960, 540), (960, 540), (960, 540), (960, 540), (960, 540), (960, 540), (960, 540), (960, 540), (960, 540), (959, 536), (955, 526), (951, 515), (949, 506), (943, 484), (937, 471), (932, 455), (927, 440), (914, 401), (905, 380), (900, 367), (895, 355), (886, 333), (883, 322), (881, 312), (877, 305), (877, 291), (877, 284), (877, 275), (877, 265), (877, 249), (877, 239), (877, 234), (877, 226), (877, 214), (877, 209), (877, 201), (877, 195), (877, 185), (877, 181), (877, 174), (878, 170), (879, 163), (879, 159), (879, 156), (879, 153), (879, 148)]",258.3251311902491,"[5, 6, 7, 8, 9, 2, 3, 1, 4]","(0, 0.25)",ENG005A,ENG,A,English,Wed Aug 15 11:09:19 2018,Mouse
1,0,1,0,70,7,7,1,1010,660,350,136,0,500,200,8000,"[(960, 540), (960, 540), (960, 540), (960, 540), (960, 540), (960, 540), (960, 540), (960, 540), (960, 540), (960, 540), (960, 540), (960, 540), (960, 540), (960, 540), (960, 540), (960, 540), (960, 540), (960, 540), (960, 540), (960, 540), (960, 540), (960, 540), (960, 540), (960, 540), (960, 540), (960, 540), (960, 540), (960, 540), (960, 540), (960, 540), (960, 540), (960, 540), (960, 540), (960, 540), (960, 540), (960, 540), (960, 540), (960, 540), (960, 540), (960, 540), (960, 540), (960, 540), (960, 540), (960, 540), (960, 540), (960, 540), (960, 540), (960, 540), (960, 540), (960, 540), (960, 540), (960, 540), (960, 540), (960, 540), (960, 540), (960, 540), (960, 540), (960, 540), (960, 540), (960, 540), (960, 540), (960, 540), (960, 540), (960, 540), (960, 540), (960, 543), (960, 551), (957, 563), (953, 577), (943, 606), (939, 622), (934, 637), (933, 646), (927, 666), (924, 676), (919, 686), (917, 697), (910, 719), (907, 729), (904, 739), (900, 748), (896, 767), (895, 775), (892, 786), (891, 794), (884, 813), (881, 821), (881, 831), (879, 839), (879, 854), (879, 863), (879, 868), (879, 874), (879, 882), (879, 886), (879, 891), (879, 897), (879, 910), (879, 917), (879, 924), (879, 932)]",101.67486880975086,"[5, 6, 7, 8, 9, 2, 3, 1, 4]","(0, 0.25)",ENG005A,ENG,A,English,Wed Aug 15 11:09:19 2018,Mouse
1,0,1,0,71,3,3,1,1501,361,1140,135,0,500,200,8000,"[(960, 540), (960, 540), (960, 540), (960, 540), (960, 540), (960, 540), (960, 540), (960, 540), (960, 540), (960, 540), (960, 540), (960, 540), (960, 540), (960, 540), (960, 540), (960, 540), (960, 540), (960, 540), (960, 540), (960, 540), (960, 540), (960, 540), (960, 540), (960, 540), (960, 540), (960, 540), (960, 540), (960, 540), (960, 540), (960, 540), (960, 540), (960, 540), (960, 540), (960, 540), (960, 540), (960, 540), (958, 540), (956, 540), (951, 539), (947, 537), (936, 533), (930, 532), (927, 531), (924, 529), (916, 528), (916, 528), (914, 527), (914, 527), (914, 527), (914, 527), (914, 527), (914, 527), (914, 527), (914, 527), (914, 527), (914, 527), (914, 527), (914, 527), (914, 527), (914, 527), (914, 527), (914, 527), (914, 527), (914, 527), (914, 527), (914, 527), (914, 527), (914, 527), (914, 527), (914, 527), (914, 527), (914, 527), (914, 527), (914, 527), (914, 527), (914, 527), (914, 527), (914, 527), (914, 527), (914, 527), (914, 527), (916, 525), (921, 525), (931, 524), (954, 523), (968, 523), (981, 523), (993, 523), (1015, 523), (1023, 523), (1027, 523), (1031, 523), (1034, 524), (1035, 525), (1036, 525), (1037, 525), (1038, 526), (1040, 527), (1043, 529), (1045, 530), (1051, 533), (1054, 534), (1059, 536), (1061, 536), (1066, 536), (1069, 536), (1072, 536), (1074, 536), (1084, 532), (1086, 529), (1091, 523), (1094, 518), (1102, 502), (1104, 496), (1107, 488), (1108, 484), (1109, 472), (1109, 465), (1109, 457), (1109, 450), (1109, 435), (1109, 428), (1108, 421), (1106, 416), (1102, 407), (1100, 403), (1097, 397), (1093, 392), (1089, 387), (1086, 383), (1082, 379), (1077, 373), (1066, 360), (1060, 353), (1053, 345), (1047, 336), (1034, 317), (1030, 307), (1024, 295), (1020, 282), (1008, 254), (1002, 242), (995, 230), (989, 220), (979, 200), (976, 190), (972, 182), (966, 171), (956, 153), (951, 144), (948, 139)]",268.2859246208834,"[5, 6, 7, 8, 9, 2, 3, 1, 4]","(0, 0.25)",ENG005A,ENG,A,English,Wed Aug 15 11:09:19 2018,Mouse
1,0,1,0,72,6,6,1,770,470,300,134,0,500,200,8000,"[(960, 540), (960, 540), (960, 540), (960, 540), (960, 540), (960, 540), (960, 540), (960, 540), (960, 540), (960, 540), (960, 540), (960, 540), (960, 540), (960, 540), (960, 540), (960, 540), (960, 540), (960, 540), (960, 540), (960, 540), (960, 540), (960, 540), (960, 540), (960, 540), (960, 540), (960, 540), (960, 540), (960, 540), (960, 540), (960, 540), (960, 540), (960, 540), (960, 540), (960, 540), (960, 540), (960, 540), (960, 540), (960, 540), (960, 540), (960, 540), (960, 540), (960, 540), (960, 540), (960, 540), (960, 540), (960, 540), (960, 541), (960, 542), (960, 544), (960, 544), (960, 545), (960, 548), (958, 551), (955, 555), (954, 558), (953, 564), (951, 573), (951, 580), (951, 586), (951, 592), (953, 610), (958, 623), (966, 641), (979, 668), (1004, 712), (1014, 733), (1030, 753), (1043, 770), (1068, 803), (1080, 812), (1090, 823), (1101, 832), (1122, 853), (1129, 862), (1138, 872), (1146, 881), (1160, 904)]",61.213381689985965,"[5, 6, 7, 8, 9, 2, 3, 1, 4]","(0, 0.25)",ENG005A,ENG,A,English,Wed Aug 15 11:09:19 2018,Mouse
