NativeLangNumber,LanuageNumber,SessionNumber,Block,TrialNum,ConditionNumber,Response,Accuracy,RT,MovementOnsetTime,TimeInMotion,SignalContrast,SignalContrastNumber,StimDisplayTime,MaskTime,MaxResponseTime,MousePositionXY,MouseAngle,WheelOrder,NoiseMuSigma,ParticipantID,LanuageTested,SessionTested,NativeLanuage,Date,ResponseDevice
2,0,4,0,1,3,3,1,478,408,70,153,0,500,200,8000,"[(512, 384), (512, 384), (512, 384), (512, 384), (512, 384), (512, 384), (512, 384), (512, 384), (512, 384), (512, 384), (512, 384), (512, 384), (512, 384), (512, 384), (512, 384), (512, 384), (512, 384), (512, 384), (512, 384), (512, 384), (512, 384), (512, 384), (512, 384), (512, 384), (512, 384), (512, 384), (512, 384), (512, 384), (512, 384), (512, 384), (512, 384), (512, 384), (512, 384), (512, 384), (512, 384), (512, 384), (512, 384), (512, 384), (512, 384), (512, 384), (524, 384), (539, 384), (558, 382), (582, 379), (649, 360), (693, 346), (740, 333), (786, 313)]",345.4728021429186,"[5, 7, 4, 6, 2, 1, 8, 9, 3]","(0, 0.25)",ENG008D,ENG,D,Chinese,Tue Oct 23 16:54:07 2018,Mouse
2,0,4,0,2,3,3,1,289,239,50,153,0,500,200,8000,"[(512, 384), (512, 384), (512, 384), (512, 384), (512, 384), (512, 384), (512, 384), (512, 384), (512, 384), (512, 384), (512, 384), (512, 384), (512, 384), (512, 384), (512, 384), (512, 384), (512, 384), (512, 384), (512, 384), (512, 384), (512, 384), (512, 384), (512, 384), (517, 382), (569, 371), (609, 358), (648, 347), (685, 332), (756, 303)]",341.63552565508326,"[5, 7, 4, 6, 2, 1, 8, 9, 3]","(0, 0.25)",ENG008D,ENG,D,Chinese,Tue Oct 23 16:54:07 2018,Mouse
2,0,4,0,3,9,9,1,439,359,80,152,0,500,200,8000,"[(512, 384), (512, 384), (512, 384), (512, 384), (512, 384), (512, 384), (512, 384), (512, 384), (512, 384), (512, 384), (512, 384), (512, 384), (512, 384), (512, 384), (512, 384), (512, 384), (512, 384), (512, 384), (512, 384), (512, 384), (512, 384), (512, 384), (512, 384), (512, 384), (512, 384), (512, 384), (512, 384), (512, 384), (512, 384), (512, 384), (512, 384), (512, 384), (512, 384), (512, 384), (512, 384), (520, 371), (532, 349), (545, 332), (561, 309), (605, 255), (628, 228), (647, 207), (664, 187), (693, 156)]",308.4446427115972,"[5, 7, 4, 6, 2, 1, 8, 9, 3]","(0, 0.25)",ENG008D,ENG,D,Chinese,Tue Oct 23 16:54:07 2018,Mouse
2,0,4,0,4,4,4,1,728,488,240,151,0,500,200,8000,"[(512, 384), (512, 384), (512, 384), (512, 384), (512, 384), (512, 384), (512, 384), (512, 384), (512, 384), (512, 384), (512, 384), (512, 384), (512, 384), (512, 384), (512, 384), (512, 384), (512, 384), (512, 384), (512, 384), (512, 384), (512, 384), (512, 384), (512, 384), (512, 384), (512, 384), (512, 384), (512, 384), (512, 384), (512, 384), (512, 384), (512, 384), (512, 384), (512, 384), (512, 384), (512, 384), (512, 384), (512, 384), (512, 384), (512, 384), (512, 384), (512, 384), (512, 384), (512, 384), (512, 384), (512, 384), (512, 384), (512, 384), (512, 384), (510, 387), (508, 389), (505, 391), (500, 399), (497, 404), (494, 410), (491, 417), (483, 440), (480, 447), (478, 452), (476, 458), (475, 463), (475, 465), (474, 469), (474, 483), (474, 491), (473, 502), (471, 516), (470, 533), (468, 567), (467, 582), (467, 592), (467, 603), (467, 623), (467, 632)]",100.2845143974005,"[5, 7, 4, 6, 2, 1, 8, 9, 3]","(0, 0.25)",ENG008D,ENG,D,Chinese,Tue Oct 23 16:54:07 2018,Mouse
2,0,4,0,5,4,4,1,379,319,60,150,0,500,200,8000,"[(512, 384), (512, 384), (512, 384), (512, 384), (512, 384), (512, 384), (512, 384), (512, 384), (512, 384), (512, 384), (512, 384), (512, 384), (512, 384), (512, 384), (512, 384), (512, 384), (512, 384), (512, 384), (512, 384), (512, 384), (512, 384), (512, 384), (512, 384), (512, 384), (512, 384), (512, 384), (512, 384), (512, 384), (512, 384), (512, 384), (512, 384), (509, 392), (501, 411), (488, 445), (470, 522), (459, 555), (452, 588), (444, 655)]",104.08597937515036,"[5, 7, 4, 6, 2, 1, 8, 9, 3]","(0, 0.25)",ENG008D,ENG,D,Chinese,Tue Oct 23 16:54:07 2018,Mouse
2,0,4,0,6,2,2,1,438,98,340,149,0,500,200,8000,"[(512, 384), (512, 384), (512, 384), (512, 384), (512, 384), (512, 384), (512, 384), (512, 384), (512, 384), (513, 384), (514, 383), (515, 383), (515, 383), (515, 383), (515, 383), (516, 383), (516, 383), (516, 383), (516, 383), (516, 383), (516, 383), (516, 383), (513, 386), (507, 391), (502, 395), (496, 398), (492, 400), (486, 402), (484, 403), (483, 404), (480, 405), (477, 405), (475, 405), (475, 405), (473, 405), (462, 404), (449, 403), (436, 403), (421, 401), (384, 399), (350, 397), (311, 395), (272, 395), (196, 394)]",178.18744731448442,"[5, 7, 4, 6, 2, 1, 8, 9, 3]","(0, 0.25)",ENG008D,ENG,D,Chinese,Tue Oct 23 16:54:07 2018,Mouse
2,0,4,0,7,8,8,1,458,398,60,148,0,500,200,8000,"[(512, 384), (512, 384), (512, 384), (512, 384), (512, 384), (512, 384), (512, 384), (512, 384), (512, 384), (512, 384), (512, 384), (512, 384), (512, 384), (512, 384), (512, 384), (512, 384), (512, 384), (512, 384), (512, 384), (512, 384), (512, 384), (512, 384), (512, 384), (512, 384), (512, 384), (512, 384), (512, 384), (512, 384), (512, 384), (512, 384), (512, 384), (512, 384), (512, 384), (512, 384), (512, 384), (512, 384), (512, 384), (512, 384), (512, 384), (510, 375), (499, 356), (486, 327), (473, 303), (433, 229), (414, 192), (392, 156)]",242.24145939893998,"[5, 7, 4, 6, 2, 1, 8, 9, 3]","(0, 0.25)",ENG008D,ENG,D,Chinese,Tue Oct 23 16:54:07 2018,Mouse
2,0,4,0,8,7,7,1,410,340,70,147,0,500,200,8000,"[(512, 384), (512, 384), (512, 384), (512, 384), (512, 384), (512, 384), (512, 384), (512, 384), (512, 384), (512, 384), (512, 384), (512, 384), (512, 384), (512, 384), (512, 384), (512, 384), (512, 384), (512, 384), (512, 384), (512, 384), (512, 384), (512, 384), (512, 384), (512, 384), (512, 384), (512, 384), (512, 384), (512, 384), (512, 384), (512, 384), (512, 384), (512, 384), (512, 384), (515, 387), (531, 400), (539, 411), (551, 433), (565, 462), (601, 527), (620, 565), (641, 603)]",59.50016676655257,"[5, 7, 4, 6, 2, 1, 8, 9, 3]","(0, 0.25)",ENG008D,ENG,D,Chinese,Tue Oct 23 16:54:07 2018,Mouse
2,0,4,0,9,1,1,1,372,312,60,146,0,500,200,8000,"[(512, 384), (512, 384), (512, 384), (512, 384), (512, 384), (512, 384), (512, 384), (512, 384), (512, 384), (512, 384), (512, 384), (512, 384), (512, 384), (512, 384), (512, 384), (512, 384), (512, 384), (512, 384), (512, 384), (512, 384), (512, 384), (512, 384), (512, 384), (512, 384), (512, 384), (512, 384), (512, 384), (512, 384), (512, 384), (512, 384), (512, 384), (506, 382), (489, 372), (463, 354), (389, 291), (355, 263), (321, 236), (288, 212)]",217.51911382047632,"[5, 7, 4, 6, 2, 1, 8, 9, 3]","(0, 0.25)",ENG008D,ENG,D,Chinese,Tue Oct 23 16:54:07 2018,Mouse
2,0,4,0,10,4,4,1,488,408,80,145,0,500,200,8000,"[(512, 384), (512, 384), (512, 384), (512, 384), (512, 384), (512, 384), (512, 384), (512, 384), (512, 384), (512, 384), (512, 384), (512, 384), (512, 384), (512, 384), (512, 384), (512, 384), (512, 384), (512, 384), (512, 384), (512, 384), (512, 384), (512, 384), (512, 384), (512, 384), (512, 384), (512, 384), (512, 384), (512, 384), (512, 384), (512, 384), (512, 384), (512, 384), (512, 384), (512, 384), (512, 384), (512, 384), (512, 384), (512, 384), (512, 384), (512, 384), (502, 400), (492, 422), (481, 443), (462, 489), (455, 509), (445, 540), (440, 565), (437, 591), (433, 646)]",106.77946228380272,"[5, 7, 4, 6, 2, 1, 8, 9, 3]","(0, 0.25)",ENG008D,ENG,D,Chinese,Tue Oct 23 16:54:07 2018,Mouse
2,0,4,0,11,3,3,1,459,369,90,144,0,500,200,8000,"[(512, 384), (512, 384), (512, 384), (512, 384), (512, 384), (512, 384), (512, 384), (512, 384), (512, 384), (512, 384), (512, 384), (512, 384), (512, 384), (512, 384), (512, 384), (512, 384), (512, 384), (512, 384), (512, 384), (512, 384), (512, 384), (512, 384), (512, 384), (512, 384), (512, 384), (512, 384), (512, 384), (512, 384), (512, 384), (512, 384), (512, 384), (512, 384), (512, 384), (512, 384), (512, 384), (512, 384), (517, 384), (531, 385), (570, 373), (587, 367), (607, 360), (630, 351), (687, 329), (715, 322), (743, 312), (771, 306)]",343.2398891676072,"[5, 7, 4, 6, 2, 1, 8, 9, 3]","(0, 0.25)",ENG008D,ENG,D,Chinese,Tue Oct 23 16:54:07 2018,Mouse
2,0,4,0,12,7,7,1,440,50,390,143,0,500,200,8000,"[(512, 384), (512, 384), (512, 384), (512, 384), (512, 383), (511, 382), (511, 381), (511, 381), (511, 380), (511, 379), (511, 379), (511, 379), (511, 379), (511, 379), (511, 379), (511, 379), (511, 379), (511, 379), (511, 379), (511, 379), (511, 379), (511, 379), (511, 379), (511, 379), (511, 379), (511, 379), (511, 379), (511, 379), (511, 379), (511, 379), (511, 379), (511, 379), (514, 380), (517, 386), (520, 392), (524, 403), (537, 434), (549, 458), (563, 485), (578, 510), (612, 558), (626, 578), (637, 590), (652, 602)]",57.29134876286661,"[5, 7, 4, 6, 2, 1, 8, 9, 3]","(0, 0.25)",ENG008D,ENG,D,Chinese,Tue Oct 23 16:54:07 2018,Mouse
2,0,4,0,13,6,6,1,478,408,70,142,0,500,200,8000,"[(512, 384), (512, 384), (512, 384), (512, 384), (512, 384), (512, 384), (512, 384), (512, 384), (512, 384), (512, 384), (512, 384), (512, 384), (512, 384), (512, 384), (512, 384), (512, 384), (512, 384), (512, 384), (512, 384), (512, 384), (512, 384), (512, 384), (512, 384), (512, 384), (512, 384), (512, 384), (512, 384), (512, 384), (512, 384), (512, 384), (512, 384), (512, 384), (512, 384), (512, 384), (512, 384), (512, 384), (512, 384), (512, 384), (512, 384), (512, 384), (512, 385), (504, 391), (492, 399), (476, 412), (409, 465), (372, 496), (327, 531), (274, 567)]",142.44304399447174,"[5, 7, 4, 6, 2, 1, 8, 9, 3]","(0, 0.25)",ENG008D,ENG,D,Chinese,Tue Oct 23 16:54:07 2018,Mouse
2,0,4,0,14,8,8,1,355,265,90,141,0,500,200,8000,"[(512, 384), (512, 384), (512, 384), (512, 384), (512, 384), (512, 384), (512, 384), (512, 384), (512, 384), (512, 384), (512, 384), (512, 384), (512, 384), (512, 384), (512, 384), (512, 384), (512, 384), (512, 384), (512, 384), (512, 384), (512, 384), (512, 384), (512, 384), (512, 384), (512, 384), (512, 384), (512, 383), (512, 378), (512, 369), (512, 356), (509, 324), (507, 306), (502, 282), (495, 247), (473, 166), (459, 135)]",257.9838379073168,"[5, 7, 4, 6, 2, 1, 8, 9, 3]","(0, 0.25)",ENG008D,ENG,D,Chinese,Tue Oct 23 16:54:07 2018,Mouse
2,0,4,0,15,8,8,1,420,310,110,140,0,500,200,8000,"[(512, 384), (512, 384), (512, 384), (512, 384), (512, 384), (512, 384), (512, 384), (512, 384), (512, 384), (512, 384), (512, 384), (512, 384), (512, 384), (512, 384), (512, 384), (512, 384), (512, 384), (512, 384), (512, 384), (512, 384), (512, 384), (512, 384), (512, 384), (512, 384), (512, 384), (512, 384), (512, 384), (512, 384), (512, 384), (512, 384), (512, 382), (513, 372), (515, 359), (515, 345), (517, 302), (516, 277), (513, 248), (508, 218), (497, 169), (493, 153), (491, 139), (490, 129)]",265.069044698027,"[5, 7, 4, 6, 2, 1, 8, 9, 3]","(0, 0.25)",ENG008D,ENG,D,Chinese,Tue Oct 23 16:54:07 2018,Mouse
2,0,4,0,16,1,1,1,300,230,70,139,0,500,200,8000,"[(512, 384), (512, 384), (512, 384), (512, 384), (512, 384), (512, 384), (512, 384), (512, 384), (512, 384), (512, 384), (512, 384), (512, 384), (512, 384), (512, 384), (512, 384), (512, 384), (512, 384), (512, 384), (512, 384), (512, 384), (512, 384), (512, 384), (511, 384), (504, 378), (496, 370), (483, 354), (460, 326), (431, 291), (358, 206), (323, 171)]",228.41658819177133,"[5, 7, 4, 6, 2, 1, 8, 9, 3]","(0, 0.25)",ENG008D,ENG,D,Chinese,Tue Oct 23 16:54:07 2018,Mouse
2,0,4,0,17,8,8,1,309,259,50,138,0,500,200,8000,"[(512, 384), (512, 384), (512, 384), (512, 384), (512, 384), (512, 384), (512, 384), (512, 384), (512, 384), (512, 384), (512, 384), (512, 384), (512, 384), (512, 384), (512, 384), (512, 384), (512, 384), (512, 384), (512, 384), (512, 384), (512, 384), (512, 384), (512, 384), (512, 384), (512, 384), (511, 371), (510, 352), (508, 318), (505, 270), (493, 168), (485, 122)]",264.11624296355654,"[5, 7, 4, 6, 2, 1, 8, 9, 3]","(0, 0.25)",ENG008D,ENG,D,Chinese,Tue Oct 23 16:54:07 2018,Mouse
2,0,4,0,18,7,7,1,390,230,160,137,0,500,200,8000,"[(512, 384), (512, 384), (512, 384), (512, 384), (512, 384), (512, 384), (512, 384), (512, 384), (512, 384), (512, 384), (512, 384), (512, 384), (512, 384), (512, 384), (512, 384), (512, 384), (512, 384), (512, 384), (512, 384), (512, 384), (512, 384), (512, 384), (512, 392), (512, 403), (512, 418), (512, 433), (511, 452), (511, 458), (511, 461), (511, 463), (511, 464), (511, 465), (513, 468), (518, 475), (543, 513), (559, 533), (580, 561), (597, 586), (628, 622)]",64.01562940881472,"[5, 7, 4, 6, 2, 1, 8, 9, 3]","(0, 0.25)",ENG008D,ENG,D,Chinese,Tue Oct 23 16:54:07 2018,Mouse
2,0,4,0,19,6,2,0,-799,739,60,136,0,500,200,8000,"[(512, 384), (512, 384), (512, 384), (512, 384), (512, 384), (512, 384), (512, 384), (512, 384), (512, 384), (512, 384), (512, 384), (512, 384), (512, 384), (512, 384), (512, 384), (512, 384), (512, 384), (512, 384), (512, 384), (512, 384), (512, 384), (512, 384), (512, 384), (512, 384), (512, 384), (512, 384), (512, 384), (512, 384), (512, 384), (512, 384), (512, 384), (512, 384), (512, 384), (512, 384), (512, 384), (512, 384), (512, 384), (512, 384), (512, 384), (512, 384), (512, 384), (512, 384), (512, 384), (512, 384), (512, 384), (512, 384), (512, 384), (512, 384), (512, 384), (512, 384), (512, 384), (512, 384), (512, 384), (512, 384), (512, 384), (512, 384), (512, 384), (512, 384), (512, 384), (512, 384), (512, 384), (512, 384), (512, 384), (512, 384), (512, 384), (512, 384), (512, 384), (512, 384), (512, 384), (512, 384), (512, 384), (512, 384), (512, 384), (507, 384), (488, 394), (415, 421), (375, 438), (328, 450), (286, 463), (201, 494)]",160.52142757581046,"[5, 7, 4, 6, 2, 1, 8, 9, 3]","(0, 0.25)",ENG008D,ENG,D,Chinese,Tue Oct 23 16:54:07 2018,Mouse
2,0,4,0,20,8,8,1,579,519,60,137,0,500,200,8000,"[(512, 384), (512, 384), (512, 384), (512, 384), (512, 384), (512, 384), (512, 384), (512, 384), (512, 384), (512, 384), (512, 384), (512, 384), (512, 384), (512, 384), (512, 384), (512, 384), (512, 384), (512, 384), (512, 384), (512, 384), (512, 384), (512, 384), (512, 384), (512, 384), (512, 384), (512, 384), (512, 384), (512, 384), (512, 384), (512, 384), (512, 384), (512, 384), (512, 384), (512, 384), (512, 384), (512, 384), (512, 384), (512, 384), (512, 384), (512, 384), (512, 384), (512, 384), (512, 384), (512, 384), (512, 384), (512, 384), (512, 384), (512, 384), (512, 384), (512, 384), (512, 384), (512, 382), (514, 369), (517, 337), (521, 303), (523, 208), (523, 161), (522, 124)]",272.2025981617658,"[5, 7, 4, 6, 2, 1, 8, 9, 3]","(0, 0.25)",ENG008D,ENG,D,Chinese,Tue Oct 23 16:54:07 2018,Mouse
2,0,4,0,21,6,8,0,-258,188,70,137,0,500,200,8000,"[(512, 384), (512, 384), (512, 384), (512, 384), (512, 384), (512, 384), (512, 384), (512, 384), (512, 384), (512, 384), (512, 384), (512, 384), (512, 384), (512, 384), (512, 384), (512, 384), (512, 384), (512, 384), (512, 382), (512, 373), (510, 357), (507, 334), (490, 270), (479, 231), (465, 184), (449, 137)]",255.69118114069386,"[5, 7, 4, 6, 2, 1, 8, 9, 3]","(0, 0.25)",ENG008D,ENG,D,Chinese,Tue Oct 23 16:54:07 2018,Mouse
2,0,4,0,22,6,6,1,346,26,320,138,0,500,200,8000,"[(512, 384), (512, 384), (513, 384), (513, 384), (513, 384), (513, 384), (514, 384), (514, 384), (514, 384), (514, 384), (514, 384), (514, 384), (514, 384), (514, 384), (514, 384), (514, 384), (514, 384), (514, 384), (514, 384), (514, 384), (514, 384), (514, 384), (514, 384), (514, 384), (514, 384), (514, 384), (514, 384), (514, 384), (514, 384), (506, 399), (491, 417), (466, 443), (394, 505), (360, 534), (325, 564)]",136.09270253565975,"[5, 7, 4, 6, 2, 1, 8, 9, 3]","(0, 0.25)",ENG008D,ENG,D,Chinese,Tue Oct 23 16:54:07 2018,Mouse
2,0,4,0,23,4,4,1,544,484,60,138,0,500,200,8000,"[(512, 384), (512, 384), (512, 384), (512, 384), (512, 384), (512, 384), (512, 384), (512, 384), (512, 384), (512, 384), (512, 384), (512, 384), (512, 384), (512, 384), (512, 384), (512, 384), (512, 384), (512, 384), (512, 384), (512, 384), (512, 384), (512, 384), (512, 384), (512, 384), (512, 384), (512, 384), (512, 384), (512, 384), (512, 384), (512, 384), (512, 384), (512, 384), (512, 384), (512, 384), (512, 384), (512, 384), (512, 384), (512, 384), (512, 384), (512, 384), (512, 384), (512, 384), (512, 384), (512, 384), (512, 384), (512, 384), (512, 384), (512, 384), (512, 389), (512, 400), (509, 444), (505, 481), (503, 523), (503, 565), (504, 641)]",91.78295047957367,"[5, 7, 4, 6, 2, 1, 8, 9, 3]","(0, 0.25)",ENG008D,ENG,D,Chinese,Tue Oct 23 16:54:07 2018,Mouse
2,0,4,0,24,6,6,1,329,279,50,137,0,500,200,8000,"[(512, 384), (512, 384), (512, 384), (512, 384), (512, 384), (512, 384), (512, 384), (512, 384), (512, 384), (512, 384), (512, 384), (512, 384), (512, 384), (512, 384), (512, 384), (512, 384), (512, 384), (512, 384), (512, 384), (512, 384), (512, 384), (512, 384), (512, 384), (512, 384), (512, 384), (512, 384), (512, 384), (510, 384), (502, 393), (477, 413), (443, 446), (354, 524), (317, 557)]",138.4212192764293,"[5, 7, 4, 6, 2, 1, 8, 9, 3]","(0, 0.25)",ENG008D,ENG,D,Chinese,Tue Oct 23 16:54:07 2018,Mouse
2,0,4,0,25,3,3,1,289,229,60,136,0,500,200,8000,"[(512, 384), (512, 384), (512, 384), (512, 384), (512, 384), (512, 384), (512, 384), (512, 384), (512, 384), (512, 384), (512, 384), (512, 384), (512, 384), (512, 384), (512, 384), (512, 384), (512, 384), (512, 384), (512, 384), (512, 384), (512, 384), (512, 384), (518, 381), (532, 378), (550, 373), (576, 361), (650, 332), (700, 318), (750, 302)]",340.989233583833,"[5, 7, 4, 6, 2, 1, 8, 9, 3]","(0, 0.25)",ENG008D,ENG,D,Chinese,Tue Oct 23 16:54:07 2018,Mouse
2,0,4,0,26,8,8,1,838,738,100,135,0,500,200,8000,"[(512, 384), (512, 384), (512, 384), (512, 384), (512, 384), (512, 384), (512, 384), (512, 384), (512, 384), (512, 384), (512, 384), (512, 384), (512, 384), (512, 384), (512, 384), (512, 384), (512, 384), (512, 384), (512, 384), (512, 384), (512, 384), (512, 384), (512, 384), (512, 384), (512, 384), (512, 384), (512, 384), (512, 384), (512, 384), (512, 384), (512, 384), (512, 384), (512, 384), (512, 384), (512, 384), (512, 384), (512, 384), (512, 384), (512, 384), (512, 384), (512, 384), (512, 384), (512, 384), (512, 384), (512, 384), (512, 384), (512, 384), (512, 384), (512, 384), (512, 384), (512, 384), (512, 384), (512, 384), (512, 384), (512, 384), (512, 384), (512, 384), (512, 384), (512, 384), (512, 384), (512, 384), (512, 384), (512, 384), (512, 384), (512, 384), (512, 384), (512, 384), (512, 384), (512, 384), (512, 384), (512, 384), (512, 384), (512, 384), (511, 384), (510, 384), (507, 384), (504, 382), (496, 373), (490, 358), (483, 331), (470, 289), (440, 194), (429, 153), (418, 114)]",250.8045323999471,"[5, 7, 4, 6, 2, 1, 8, 9, 3]","(0, 0.25)",ENG008D,ENG,D,Chinese,Tue Oct 23 16:54:07 2018,Mouse
2,0,4,0,27,2,1,0,-1408,388,1020,134,0,500,200,8000,"[(512, 384), (512, 384), (512, 384), (512, 384), (512, 384), (512, 384), (512, 384), (512, 384), (512, 384), (512, 384), (512, 384), (512, 384), (512, 384), (512, 384), (512, 384), (512, 384), (512, 384), (512, 384), (512, 384), (512, 384), (512, 384), (512, 384), (512, 384), (512, 384), (512, 384), (512, 384), (512, 384), (512, 384), (512, 384), (512, 384), (512, 384), (512, 384), (512, 384), (512, 384), (512, 384), (512, 384), (512, 384), (512, 384), (513, 385), (513, 385), (514, 385), (514, 385), (514, 385), (514, 385), (514, 385), (514, 385), (514, 385), (514, 385), (514, 385), (514, 385), (514, 385), (514, 385), (514, 385), (514, 385), (514, 385), (514, 385), (514, 385), (514, 385), (514, 385), (514, 385), (514, 385), (514, 385), (514, 385), (514, 385), (514, 385), (514, 385), (514, 385), (514, 385), (514, 385), (514, 385), (514, 385), (514, 385), (514, 385), (514, 385), (514, 385), (514, 385), (514, 385), (514, 385), (514, 385), (514, 385), (514, 385), (514, 385), (514, 385), (514, 385), (514, 385), (514, 385), (514, 385), (514, 385), (514, 385), (514, 385), (514, 385), (514, 385), (514, 385), (514, 385), (514, 385), (514, 385), (514, 385), (514, 385), (514, 385), (514, 385), (514, 385), (514, 385), (514, 385), (514, 385), (514, 385), (514, 385), (514, 385), (514, 385), (514, 385), (514, 385), (514, 385), (514, 385), (514, 385), (514, 385), (514, 385), (514, 385), (514, 385), (514, 385), (514, 385), (514, 385), (514, 385), (514, 385), (514, 385), (514, 385), (514, 385), (514, 385), (514, 385), (514, 385), (514, 385), (514, 385), (513, 384), (510, 381), (505, 373), (497, 364), (477, 347), (468, 337), (452, 324), (431, 304), (383, 270), (344, 242), (301, 219)]",218.02507048400386,"[5, 7, 4, 6, 2, 1, 8, 9, 3]","(0, 0.25)",ENG008D,ENG,D,Chinese,Tue Oct 23 16:54:07 2018,Mouse
2,0,4,0,28,5,6,0,-439,369,70,135,0,500,200,8000,"[(512, 384), (512, 384), (512, 384), (512, 384), (512, 384), (512, 384), (512, 384), (512, 384), (512, 384), (512, 384), (512, 384), (512, 384), (512, 384), (512, 384), (512, 384), (512, 384), (512, 384), (512, 384), (512, 384), (512, 384), (512, 384), (512, 384), (512, 384), (512, 384), (512, 384), (512, 384), (512, 384), (512, 384), (512, 384), (512, 384), (512, 384), (512, 384), (512, 384), (512, 384), (512, 384), (512, 384), (507, 387), (496, 395), (480, 404), (455, 423), (385, 470), (346, 497), (310, 522), (279, 546)]",145.18992306246332,"[5, 7, 4, 6, 2, 1, 8, 9, 3]","(0, 0.25)",ENG008D,ENG,D,Chinese,Tue Oct 23 16:54:07 2018,Mouse
2,0,4,0,29,7,7,1,289,229,60,136,0,500,200,8000,"[(512, 384), (512, 384), (512, 384), (512, 384), (512, 384), (512, 384), (512, 384), (512, 384), (512, 384), (512, 384), (512, 384), (512, 384), (512, 384), (512, 384), (512, 384), (512, 384), (512, 384), (512, 384), (512, 384), (512, 384), (512, 384), (512, 384), (516, 386), (524, 393), (551, 417), (574, 439), (609, 470), (646, 501), (717, 563)]",41.12651027565543,"[5, 7, 4, 6, 2, 1, 8, 9, 3]","(0, 0.25)",ENG008D,ENG,D,Chinese,Tue Oct 23 16:54:07 2018,Mouse
2,0,4,0,30,1,2,0,-1588,1458,130,136,0,500,200,8000,"[(512, 384), (512, 384), (512, 384), (512, 384), (512, 384), (512, 384), (512, 384), (512, 384), (512, 384), (512, 384), (512, 384), (512, 384), (512, 384), (512, 384), (512, 384), (512, 384), (512, 384), (512, 384), (512, 384), (512, 384), (512, 384), (512, 384), (512, 384), (512, 384), (512, 384), (512, 384), (512, 384), (512, 384), (512, 384), (512, 384), (512, 384), (512, 384), (512, 384), (512, 384), (512, 384), (512, 384), (512, 384), (512, 384), (512, 384), (512, 384), (512, 384), (512, 384), (512, 384), (512, 384), (512, 384), (512, 384), (512, 384), (512, 384), (512, 384), (512, 384), (512, 384), (512, 384), (512, 384), (512, 384), (512, 384), (512, 384), (512, 384), (512, 384), (512, 384), (512, 384), (512, 384), (512, 384), (512, 384), (512, 384), (512, 384), (512, 384), (512, 384), (512, 384), (512, 384), (512, 384), (512, 384), (512, 384), (512, 384), (512, 384), (512, 384), (512, 384), (512, 384), (512, 384), (512, 384), (512, 384), (512, 384), (512, 384), (512, 384), (512, 384), (512, 384), (512, 384), (512, 384), (512, 384), (512, 384), (512, 384), (512, 384), (512, 384), (512, 384), (512, 384), (512, 384), (512, 384), (512, 384), (512, 384), (512, 384), (512, 384), (512, 384), (512, 384), (512, 384), (512, 384), (512, 384), (512, 384), (512, 384), (512, 384), (512, 384), (512, 384), (512, 384), (512, 384), (512, 384), (512, 384), (512, 384), (512, 384), (512, 384), (512, 384), (512, 384), (512, 384), (512, 384), (512, 384), (512, 384), (512, 384), (512, 384), (512, 384), (512, 384), (512, 384), (512, 384), (512, 384), (512, 384), (512, 384), (512, 384), (512, 384), (512, 384), (512, 384), (512, 384), (512, 384), (512, 384), (512, 384), (512, 384), (512, 384), (512, 384), (512, 384), (512, 384), (511, 384), (511, 384), (508, 383), (506, 383), (502, 383), (492, 381), (465, 381), (452, 381), (437, 381), (418, 381), (357, 381), (323, 381), (279, 381), (232, 381)]",180.61385986310933,"[5, 7, 4, 6, 2, 1, 8, 9, 3]","(0, 0.25)",ENG008D,ENG,D,Chinese,Tue Oct 23 16:54:07 2018,Mouse
2,0,4,0,31,8,8,1,417,297,120,137,0,500,200,8000,"[(512, 384), (512, 384), (512, 384), (512, 384), (512, 384), (512, 384), (512, 384), (512, 384), (512, 384), (512, 384), (512, 384), (512, 384), (512, 384), (512, 384), (512, 384), (512, 384), (512, 384), (512, 384), (512, 384), (512, 384), (512, 384), (512, 384), (512, 384), (512, 384), (512, 384), (512, 384), (512, 384), (512, 384), (512, 384), (512, 381), (512, 369), (512, 356), (506, 320), (505, 302), (503, 282), (503, 265), (500, 224), (498, 200), (495, 182), (494, 164), (493, 138), (493, 129)]",265.7387767555013,"[5, 7, 4, 6, 2, 1, 8, 9, 3]","(0, 0.25)",ENG008D,ENG,D,Chinese,Tue Oct 23 16:54:07 2018,Mouse
2,0,4,0,32,5,3,0,-440,380,60,137,0,500,200,8000,"[(512, 384), (512, 384), (512, 384), (512, 384), (512, 384), (512, 384), (512, 384), (512, 384), (512, 384), (512, 384), (512, 384), (512, 384), (512, 384), (512, 384), (512, 384), (512, 384), (512, 384), (512, 384), (512, 384), (512, 384), (512, 384), (512, 384), (512, 384), (512, 384), (512, 384), (512, 384), (512, 384), (512, 384), (512, 384), (512, 384), (512, 384), (512, 384), (512, 384), (512, 384), (512, 384), (512, 384), (512, 384), (521, 381), (557, 363), (584, 351), (609, 342), (643, 329), (716, 308), (762, 298)]",341.0167829407738,"[5, 7, 4, 6, 2, 1, 8, 9, 3]","(0, 0.25)",ENG008D,ENG,D,Chinese,Tue Oct 23 16:54:07 2018,Mouse
2,0,4,0,33,4,4,1,588,548,40,138,0,500,200,8000,"[(512, 384), (512, 384), (512, 384), (512, 384), (512, 384), (512, 384), (512, 384), (512, 384), (512, 384), (512, 384), (512, 384), (512, 384), (512, 384), (512, 384), (512, 384), (512, 384), (512, 384), (512, 384), (512, 384), (512, 384), (512, 384), (512, 384), (512, 384), (512, 384), (512, 384), (512, 384), (512, 384), (512, 384), (512, 384), (512, 384), (512, 384), (512, 384), (512, 384), (512, 384), (512, 384), (512, 384), (512, 384), (512, 384), (512, 384), (512, 384), (512, 384), (512, 384), (512, 384), (512, 384), (512, 384), (512, 384), (512, 384), (512, 384), (512, 384), (512, 384), (512, 384), (512, 384), (512, 384), (512, 384), (504, 441), (496, 490), (485, 532), (476, 568), (458, 631)]",102.33216916926622,"[5, 7, 4, 6, 2, 1, 8, 9, 3]","(0, 0.25)",ENG008D,ENG,D,Chinese,Tue Oct 23 16:54:07 2018,Mouse
2,0,4,0,34,5,5,1,508,448,60,138,0,500,200,8000,"[(512, 384), (512, 384), (512, 384), (512, 384), (512, 384), (512, 384), (512, 384), (512, 384), (512, 384), (512, 384), (512, 384), (512, 384), (512, 384), (512, 384), (512, 384), (512, 384), (512, 384), (512, 384), (512, 384), (512, 384), (512, 384), (512, 384), (512, 384), (512, 384), (512, 384), (512, 384), (512, 384), (512, 384), (512, 384), (512, 384), (512, 384), (512, 384), (512, 384), (512, 384), (512, 384), (512, 384), (512, 384), (512, 384), (512, 384), (512, 384), (512, 384), (512, 384), (512, 384), (512, 384), (514, 384), (524, 390), (549, 403), (634, 452), (674, 472), (717, 489), (751, 502)]",26.276652038025077,"[5, 7, 4, 6, 2, 1, 8, 9, 3]","(0, 0.25)",ENG008D,ENG,D,Chinese,Tue Oct 23 16:54:07 2018,Mouse
2,0,4,0,35,6,6,1,410,330,80,137,0,500,200,8000,"[(512, 384), (512, 384), (512, 384), (512, 384), (512, 384), (512, 384), (512, 384), (512, 384), (512, 384), (512, 384), (512, 384), (512, 384), (512, 384), (512, 384), (512, 384), (512, 384), (512, 384), (512, 384), (512, 384), (512, 384), (512, 384), (512, 384), (512, 384), (512, 384), (512, 384), (512, 384), (512, 384), (512, 384), (512, 384), (512, 384), (512, 384), (512, 384), (510, 384), (504, 395), (485, 416), (459, 439), (400, 480), (369, 500), (341, 521), (316, 537), (271, 568)]",142.6387917490613,"[5, 7, 4, 6, 2, 1, 8, 9, 3]","(0, 0.25)",ENG008D,ENG,D,Chinese,Tue Oct 23 16:54:07 2018,Mouse
2,0,4,0,36,1,1,1,359,269,90,136,0,500,200,8000,"[(512, 384), (512, 384), (512, 384), (512, 384), (512, 384), (512, 384), (512, 384), (512, 384), (512, 384), (512, 384), (512, 384), (512, 384), (512, 384), (512, 384), (512, 384), (512, 384), (512, 384), (512, 384), (512, 384), (512, 384), (512, 384), (512, 384), (512, 384), (512, 384), (512, 384), (512, 384), (509, 382), (496, 379), (485, 377), (474, 374), (458, 367), (426, 352), (402, 339), (377, 324), (342, 306), (265, 259)]",206.8427345256207,"[5, 7, 4, 6, 2, 1, 8, 9, 3]","(0, 0.25)",ENG008D,ENG,D,Chinese,Tue Oct 23 16:54:07 2018,Mouse
2,0,4,0,37,7,1,0,-1009,939,70,135,0,500,200,8000,"[(512, 384), (512, 384), (512, 384), (512, 384), (512, 384), (512, 384), (512, 384), (512, 384), (512, 384), (512, 384), (512, 384), (512, 384), (512, 384), (512, 384), (512, 384), (512, 384), (512, 384), (512, 384), (512, 384), (512, 384), (512, 384), (512, 384), (512, 384), (512, 384), (512, 384), (512, 384), (512, 384), (512, 384), (512, 384), (512, 384), (512, 384), (512, 384), (512, 384), (512, 384), (512, 384), (512, 384), (512, 384), (512, 384), (512, 384), (512, 384), (512, 384), (512, 384), (512, 384), (512, 384), (512, 384), (512, 384), (512, 384), (512, 384), (512, 384), (512, 384), (512, 384), (512, 384), (512, 384), (512, 384), (512, 384), (512, 384), (512, 384), (512, 384), (512, 384), (512, 384), (512, 384), (512, 384), (512, 384), (512, 384), (512, 384), (512, 384), (512, 384), (512, 384), (512, 384), (512, 384), (512, 384), (512, 384), (512, 384), (512, 384), (512, 384), (512, 384), (512, 384), (512, 384), (512, 384), (512, 384), (512, 384), (512, 384), (512, 384), (512, 384), (512, 384), (512, 384), (512, 384), (512, 384), (512, 384), (512, 384), (512, 384), (512, 384), (512, 384), (511, 384), (503, 382), (478, 376), (456, 370), (424, 356), (381, 336), (306, 286), (267, 259)]",207.030860259843,"[5, 7, 4, 6, 2, 1, 8, 9, 3]","(0, 0.25)",ENG008D,ENG,D,Chinese,Tue Oct 23 16:54:07 2018,Mouse
2,0,4,0,38,6,6,1,272,212,60,136,0,500,200,8000,"[(512, 384), (512, 384), (512, 384), (512, 384), (512, 384), (512, 384), (512, 384), (512, 384), (512, 384), (512, 384), (512, 384), (512, 384), (512, 384), (512, 384), (512, 384), (512, 384), (512, 384), (512, 384), (512, 384), (512, 384), (512, 384), (511, 389), (503, 399), (469, 438), (444, 465), (415, 492), (385, 520), (328, 570)]",134.69029610004117,"[5, 7, 4, 6, 2, 1, 8, 9, 3]","(0, 0.25)",ENG008D,ENG,D,Chinese,Tue Oct 23 16:54:07 2018,Mouse
2,0,4,0,39,1,1,1,249,179,70,136,0,500,200,8000,"[(512, 384), (512, 384), (512, 384), (512, 384), (512, 384), (512, 384), (512, 384), (512, 384), (512, 384), (512, 384), (512, 384), (512, 384), (512, 384), (512, 384), (512, 384), (512, 384), (512, 384), (508, 383), (499, 378), (470, 357), (442, 336), (414, 307), (381, 272), (332, 219), (314, 198)]",223.21008939175394,"[5, 7, 4, 6, 2, 1, 8, 9, 3]","(0, 0.25)",ENG008D,ENG,D,Chinese,Tue Oct 23 16:54:07 2018,Mouse
2,0,4,0,40,9,3,0,-489,69,420,135,0,500,200,8000,"[(512, 384), (512, 384), (512, 384), (512, 384), (512, 384), (512, 384), (512, 387), (510, 389), (508, 391), (507, 392), (505, 394), (505, 394), (504, 394), (504, 394), (504, 394), (504, 394), (504, 394), (504, 394), (504, 394), (504, 394), (504, 394), (504, 394), (504, 394), (504, 394), (504, 394), (504, 394), (504, 394), (504, 394), (504, 394), (504, 394), (504, 394), (504, 394), (504, 394), (504, 394), (504, 394), (504, 394), (504, 394), (504, 394), (504, 394), (507, 392), (514, 386), (525, 382), (554, 367), (577, 359), (600, 352), (631, 341), (698, 320), (733, 313), (766, 304)]",342.51762481787847,"[5, 7, 4, 6, 2, 1, 8, 9, 3]","(0, 0.25)",ENG008D,ENG,D,Chinese,Tue Oct 23 16:54:07 2018,Mouse
2,0,4,0,41,3,2,0,-439,349,90,136,0,500,200,8000,"[(512, 384), (512, 384), (512, 384), (512, 384), (512, 384), (512, 384), (512, 384), (512, 384), (512, 384), (512, 384), (512, 384), (512, 384), (512, 384), (512, 384), (512, 384), (512, 384), (512, 384), (512, 384), (512, 384), (512, 384), (512, 384), (512, 384), (512, 384), (512, 384), (512, 384), (512, 384), (512, 384), (512, 384), (512, 384), (512, 384), (512, 384), (512, 384), (512, 384), (512, 384), (511, 384), (506, 384), (498, 384), (478, 384), (461, 383), (441, 383), (411, 383), (330, 383), (283, 383), (241, 383)]",180.2114225810393,"[5, 7, 4, 6, 2, 1, 8, 9, 3]","(0, 0.25)",ENG008D,ENG,D,Chinese,Tue Oct 23 16:54:07 2018,Mouse
2,0,4,0,42,4,4,1,411,141,270,137,0,500,200,8000,"[(512, 384), (512, 384), (512, 384), (512, 384), (512, 384), (512, 384), (512, 384), (512, 384), (512, 384), (512, 384), (512, 384), (512, 384), (512, 384), (512, 384), (512, 388), (512, 389), (512, 391), (511, 392), (511, 395), (511, 397), (510, 397), (510, 399), (510, 400), (510, 401), (510, 402), (510, 404), (510, 410), (510, 417), (510, 425), (509, 439), (507, 466), (505, 480), (504, 492), (504, 504), (504, 527), (504, 542), (504, 556), (504, 571), (503, 598), (502, 613), (501, 625), (500, 636)]",92.72631099390628,"[5, 7, 4, 6, 2, 1, 8, 9, 3]","(0, 0.25)",ENG008D,ENG,D,Chinese,Tue Oct 23 16:54:07 2018,Mouse
2,0,4,0,43,4,4,1,403,93,310,137,0,500,200,8000,"[(512, 384), (512, 384), (512, 384), (512, 384), (512, 384), (512, 384), (512, 384), (512, 384), (512, 384), (512, 383), (512, 383), (512, 383), (512, 383), (512, 383), (512, 383), (512, 383), (512, 383), (512, 383), (512, 383), (512, 383), (512, 383), (512, 383), (512, 383), (512, 383), (512, 383), (512, 383), (512, 383), (510, 385), (506, 397), (495, 422), (491, 436), (485, 456), (478, 473), (471, 501), (468, 515), (465, 531), (464, 546), (464, 579), (464, 599), (464, 616), (466, 631)]",100.54961157081232,"[5, 7, 4, 6, 2, 1, 8, 9, 3]","(0, 0.25)",ENG008D,ENG,D,Chinese,Tue Oct 23 16:54:07 2018,Mouse
2,0,4,0,44,8,8,1,400,330,70,136,0,500,200,8000,"[(512, 384), (512, 384), (512, 384), (512, 384), (512, 384), (512, 384), (512, 384), (512, 384), (512, 384), (512, 384), (512, 384), (512, 384), (512, 384), (512, 384), (512, 384), (512, 384), (512, 384), (512, 384), (512, 384), (512, 384), (512, 384), (512, 384), (512, 384), (512, 384), (512, 384), (512, 384), (512, 384), (512, 384), (512, 384), (512, 384), (512, 384), (512, 384), (512, 365), (513, 348), (515, 334), (515, 314), (512, 238), (508, 198), (503, 158), (494, 127)]",265.99360852837276,"[5, 7, 4, 6, 2, 1, 8, 9, 3]","(0, 0.25)",ENG008D,ENG,D,Chinese,Tue Oct 23 16:54:07 2018,Mouse
2,0,4,0,45,6,6,1,409,309,100,135,0,500,200,8000,"[(512, 384), (512, 384), (512, 384), (512, 384), (512, 384), (512, 384), (512, 384), (512, 384), (512, 384), (512, 384), (512, 384), (512, 384), (512, 384), (512, 384), (512, 384), (512, 384), (512, 384), (512, 384), (512, 384), (512, 384), (512, 384), (512, 384), (512, 384), (512, 384), (512, 384), (512, 384), (512, 384), (512, 384), (512, 384), (512, 384), (509, 387), (502, 397), (487, 411), (477, 420), (463, 432), (443, 447), (395, 478), (373, 492), (355, 507), (337, 517), (311, 536)]",142.90273934316542,"[5, 7, 4, 6, 2, 1, 8, 9, 3]","(0, 0.25)",ENG008D,ENG,D,Chinese,Tue Oct 23 16:54:07 2018,Mouse
2,0,4,0,46,6,6,1,518,438,80,134,0,500,200,8000,"[(512, 384), (512, 384), (512, 384), (512, 384), (512, 384), (512, 384), (512, 384), (512, 384), (512, 384), (512, 384), (512, 384), (512, 384), (512, 384), (512, 384), (512, 384), (512, 384), (512, 384), (512, 384), (512, 384), (512, 384), (512, 384), (512, 384), (512, 384), (512, 384), (512, 384), (512, 384), (512, 384), (512, 384), (512, 384), (512, 384), (512, 384), (512, 384), (512, 384), (512, 384), (512, 384), (512, 384), (512, 384), (512, 384), (512, 384), (512, 384), (512, 384), (512, 384), (512, 384), (509, 387), (500, 392), (492, 396), (481, 403), (453, 424), (433, 441), (404, 463), (375, 490), (302, 546)]",142.35237935989238,"[5, 7, 4, 6, 2, 1, 8, 9, 3]","(0, 0.25)",ENG008D,ENG,D,Chinese,Tue Oct 23 16:54:07 2018,Mouse
2,0,4,0,47,7,6,0,-649,599,50,133,0,500,200,8000,"[(512, 384), (512, 384), (512, 384), (512, 384), (512, 384), (512, 384), (512, 384), (512, 384), (512, 384), (512, 384), (512, 384), (512, 384), (512, 384), (512, 384), (512, 384), (512, 384), (512, 384), (512, 384), (512, 384), (512, 384), (512, 384), (512, 384), (512, 384), (512, 384), (512, 384), (512, 384), (512, 384), (512, 384), (512, 384), (512, 384), (512, 384), (512, 384), (512, 384), (512, 384), (512, 384), (512, 384), (512, 384), (512, 384), (512, 384), (512, 384), (512, 384), (512, 384), (512, 384), (512, 384), (512, 384), (512, 384), (512, 384), (512, 384), (512, 384), (512, 384), (512, 384), (512, 384), (512, 384), (512, 384), (512, 384), (512, 384), (512, 384), (512, 384), (512, 384), (507, 387), (491, 401), (466, 419), (432, 448), (347, 514), (305, 547)]",141.78170353646857,"[5, 7, 4, 6, 2, 1, 8, 9, 3]","(0, 0.25)",ENG008D,ENG,D,Chinese,Tue Oct 23 16:54:07 2018,Mouse
2,0,4,0,48,8,6,0,-151,71,80,134,0,500,200,8000,"[(512, 384), (512, 384), (512, 384), (512, 384), (512, 384), (512, 384), (512, 384), (511, 384), (506, 390), (495, 402), (480, 414), (430, 457), (398, 487), (369, 512), (338, 538), (283, 582)]",139.15236170844372,"[5, 7, 4, 6, 2, 1, 8, 9, 3]","(0, 0.25)",ENG008D,ENG,D,Chinese,Tue Oct 23 16:54:07 2018,Mouse
2,0,4,0,49,8,3,0,-1578,1418,160,135,0,500,200,8000,"[(512, 384), (512, 384), (512, 384), (512, 384), (512, 384), (512, 384), (512, 384), (512, 384), (512, 384), (512, 384), (512, 384), (512, 384), (512, 384), (512, 384), (512, 384), (512, 384), (512, 384), (512, 384), (512, 384), (512, 384), (512, 384), (512, 384), (512, 384), (512, 384), (512, 384), (512, 384), (512, 384), (512, 384), (512, 384), (512, 384), (512, 384), (512, 384), (512, 384), (512, 384), (512, 384), (512, 384), (512, 384), (512, 384), (512, 384), (512, 384), (512, 384), (512, 384), (512, 384), (512, 384), (512, 384), (512, 384), (512, 384), (512, 384), (512, 384), (512, 384), (512, 384), (512, 384), (512, 384), (512, 384), (512, 384), (512, 384), (512, 384), (512, 384), (512, 384), (512, 384), (512, 384), (512, 384), (512, 384), (512, 384), (512, 384), (512, 384), (512, 384), (512, 384), (512, 384), (512, 384), (512, 384), (512, 384), (512, 384), (512, 384), (512, 384), (512, 384), (512, 384), (512, 384), (512, 384), (512, 384), (512, 384), (512, 384), (512, 384), (512, 384), (512, 384), (512, 384), (512, 384), (512, 384), (512, 384), (512, 384), (512, 384), (512, 384), (512, 384), (512, 384), (512, 384), (512, 384), (512, 384), (512, 384), (512, 384), (512, 384), (512, 384), (512, 384), (512, 384), (512, 384), (512, 384), (512, 384), (512, 384), (512, 384), (512, 384), (512, 384), (512, 384), (512, 384), (512, 384), (512, 384), (512, 384), (512, 384), (512, 384), (512, 384), (512, 384), (512, 384), (512, 384), (512, 384), (512, 384), (512, 384), (512, 384), (512, 384), (512, 384), (512, 384), (512, 384), (512, 384), (512, 384), (512, 384), (512, 384), (512, 384), (512, 384), (512, 384), (512, 384), (512, 384), (512, 384), (512, 384), (512, 384), (513, 384), (519, 382), (539, 372), (552, 366), (565, 362), (578, 358), (605, 350), (620, 348), (636, 348), (650, 346), (676, 342), (688, 339), (702, 337), (715, 334), (737, 325), (746, 324), (757, 324)]",346.2392148882088,"[5, 7, 4, 6, 2, 1, 8, 9, 3]","(0, 0.25)",ENG008D,ENG,D,Chinese,Tue Oct 23 16:54:07 2018,Mouse
2,0,4,0,50,4,4,1,298,208,90,136,0,500,200,8000,"[(512, 384), (512, 384), (512, 384), (512, 384), (512, 384), (512, 384), (512, 384), (512, 384), (512, 384), (512, 384), (512, 384), (512, 384), (512, 384), (512, 384), (512, 384), (512, 384), (512, 384), (512, 384), (512, 384), (512, 384), (512, 387), (506, 401), (499, 418), (489, 444), (477, 475), (448, 547), (436, 573), (429, 591), (423, 608), (418, 639)]",110.23527116638205,"[5, 7, 4, 6, 2, 1, 8, 9, 3]","(0, 0.25)",ENG008D,ENG,D,Chinese,Tue Oct 23 16:54:07 2018,Mouse
2,0,4,0,51,3,9,0,-2190,2080,110,136,0,500,200,8000,"[(512, 384), (512, 384), (512, 384), (512, 384), (512, 384), (512, 384), (512, 384), (512, 384), (512, 384), (512, 384), (512, 384), (512, 384), (512, 384), (512, 384), (512, 384), (512, 384), (512, 384), (512, 384), (512, 384), (512, 384), (512, 384), (512, 384), (512, 384), (512, 384), (512, 384), (512, 384), (512, 384), (512, 384), (512, 384), (512, 384), (512, 384), (512, 384), (512, 384), (512, 384), (512, 384), (512, 384), (512, 384), (512, 384), (512, 384), (512, 384), (512, 384), (512, 384), (512, 384), (512, 384), (512, 384), (512, 384), (512, 384), (512, 384), (512, 384), (512, 384), (512, 384), (512, 384), (512, 384), (512, 384), (512, 384), (512, 384), (512, 384), (512, 384), (512, 384), (512, 384), (512, 384), (512, 384), (512, 384), (512, 384), (512, 384), (512, 384), (512, 384), (512, 384), (512, 384), (512, 384), (512, 384), (512, 384), (512, 384), (512, 384), (512, 384), (512, 384), (512, 384), (512, 384), (512, 384), (512, 384), (512, 384), (512, 384), (512, 384), (512, 384), (512, 384), (512, 384), (512, 384), (512, 384), (512, 384), (512, 384), (512, 384), (512, 384), (512, 384), (512, 384), (512, 384), (512, 384), (512, 384), (512, 384), (512, 384), (512, 384), (512, 384), (512, 384), (512, 384), (512, 384), (512, 384), (512, 384), (512, 384), (512, 384), (512, 384), (512, 384), (512, 384), (512, 384), (512, 384), (512, 384), (512, 384), (512, 384), (512, 384), (512, 384), (512, 384), (512, 384), (512, 384), (512, 384), (512, 384), (512, 384), (512, 384), (512, 384), (512, 384), (512, 384), (512, 384), (512, 384), (512, 384), (512, 384), (512, 384), (512, 384), (512, 384), (512, 384), (512, 384), (512, 384), (512, 384), (512, 384), (512, 384), (512, 384), (512, 384), (512, 384), (512, 384), (512, 384), (512, 384), (512, 384), (512, 384), (512, 384), (512, 384), (512, 384), (512, 384), (512, 384), (512, 384), (512, 384), (512, 384), (512, 384), (512, 384), (512, 384), (512, 384), (512, 384), (512, 384), (512, 384), (512, 384), (512, 384), (512, 384), (512, 384), (512, 384), (512, 384), (512, 384), (512, 384), (512, 384), (512, 384), (512, 384), (512, 384), (512, 384), (512, 384), (512, 384), (512, 384), (512, 384), (512, 384), (512, 384), (512, 384), (512, 384), (512, 384), (512, 384), (512, 384), (512, 384), (512, 384), (512, 384), (512, 384), (512, 384), (512, 384), (512, 384), (512, 384), (512, 384), (512, 384), (512, 384), (512, 384), (512, 384), (512, 384), (512, 384), (512, 384), (512, 384), (512, 384), (512, 384), (525, 367), (537, 353), (549, 340), (560, 327), (590, 292), (610, 275), (624, 259), (638, 244), (656, 220), (665, 207), (672, 197), (679, 185)]",310.00323933542865,"[5, 7, 4, 6, 2, 1, 8, 9, 3]","(0, 0.25)",ENG008D,ENG,D,Chinese,Tue Oct 23 16:54:07 2018,Mouse
2,0,4,0,52,4,6,0,-1154,114,1040,137,0,500,200,8000,"[(512, 384), (512, 384), (512, 384), (512, 384), (512, 384), (512, 384), (512, 384), (512, 384), (512, 384), (512, 384), (512, 384), (513, 382), (515, 379), (520, 369), (522, 368), (522, 368), (522, 368), (522, 368), (522, 368), (522, 368), (522, 368), (522, 368), (522, 368), (522, 368), (522, 368), (522, 368), (522, 368), (522, 368), (522, 368), (522, 368), (522, 368), (522, 368), (522, 368), (522, 368), (522, 368), (522, 368), (522, 368), (522, 368), (522, 368), (522, 368), (522, 368), (522, 368), (522, 368), (522, 368), (522, 368), (522, 368), (522, 368), (522, 368), (522, 368), (522, 368), (522, 368), (522, 368), (522, 368), (522, 368), (522, 368), (522, 368), (522, 368), (522, 368), (522, 368), (522, 368), (522, 368), (522, 368), (522, 368), (522, 368), (522, 368), (522, 368), (522, 368), (522, 368), (522, 368), (522, 368), (522, 368), (522, 368), (522, 368), (522, 368), (522, 368), (522, 368), (522, 368), (522, 368), (522, 368), (522, 368), (522, 368), (522, 368), (522, 368), (522, 368), (522, 368), (522, 368), (522, 368), (522, 368), (522, 368), (522, 368), (522, 368), (522, 368), (522, 368), (522, 368), (522, 368), (522, 368), (522, 368), (522, 368), (522, 368), (522, 368), (522, 368), (522, 374), (519, 386), (513, 401), (505, 417), (486, 449), (474, 468), (465, 482), (456, 493), (433, 513), (423, 522), (412, 529), (402, 536), (373, 550), (357, 561), (340, 571)]",132.60741759870902,"[5, 7, 4, 6, 2, 1, 8, 9, 3]","(0, 0.25)",ENG008D,ENG,D,Chinese,Tue Oct 23 16:54:07 2018,Mouse
2,0,4,0,53,2,6,0,-281,231,50,138,0,500,200,8000,"[(512, 384), (512, 384), (512, 384), (512, 384), (512, 384), (512, 384), (512, 384), (512, 384), (512, 384), (512, 384), (512, 384), (512, 384), (512, 384), (512, 384), (512, 384), (512, 384), (512, 384), (512, 384), (512, 384), (512, 384), (512, 384), (512, 384), (512, 384), (510, 388), (494, 409), (463, 441), (391, 508), (357, 538), (317, 568)]",136.6624714867563,"[5, 7, 4, 6, 2, 1, 8, 9, 3]","(0, 0.25)",ENG008D,ENG,D,Chinese,Tue Oct 23 16:54:07 2018,Mouse
2,0,4,0,54,1,4,0,-795,635,160,139,0,500,200,8000,"[(512, 384), (512, 384), (512, 384), (512, 384), (512, 384), (512, 384), (512, 384), (512, 384), (512, 384), (512, 384), (512, 384), (512, 384), (512, 384), (512, 384), (512, 384), (512, 384), (512, 384), (512, 384), (512, 384), (512, 384), (512, 384), (512, 384), (512, 384), (512, 384), (512, 384), (512, 384), (512, 384), (512, 384), (512, 384), (512, 384), (512, 384), (512, 384), (512, 384), (512, 384), (512, 384), (512, 384), (512, 384), (512, 384), (512, 384), (512, 384), (512, 384), (512, 384), (512, 384), (512, 384), (512, 384), (512, 384), (512, 384), (512, 384), (512, 384), (512, 384), (512, 384), (512, 384), (512, 384), (512, 384), (512, 384), (512, 384), (512, 384), (512, 384), (512, 384), (512, 384), (512, 384), (512, 384), (512, 384), (513, 385), (513, 385), (514, 385), (515, 388), (515, 396), (515, 406), (515, 415), (511, 440), (509, 454), (508, 464), (507, 476), (506, 502), (506, 518), (504, 536), (504, 561), (500, 613), (498, 644)]",93.08218082452815,"[5, 7, 4, 6, 2, 1, 8, 9, 3]","(0, 0.25)",ENG008D,ENG,D,Chinese,Tue Oct 23 16:54:07 2018,Mouse
2,0,4,0,55,2,2,1,222,152,70,140,0,500,200,8000,"[(512, 384), (512, 384), (512, 384), (512, 384), (512, 384), (512, 384), (512, 384), (512, 384), (512, 384), (512, 384), (512, 384), (512, 384), (512, 384), (512, 384), (512, 384), (506, 384), (492, 386), (472, 391), (453, 397), (378, 406), (339, 407), (294, 407), (250, 407)]",174.98307896345523,"[5, 7, 4, 6, 2, 1, 8, 9, 3]","(0, 0.25)",ENG008D,ENG,D,Chinese,Tue Oct 23 16:54:07 2018,Mouse
2,0,4,0,56,4,4,1,365,215,150,140,0,500,200,8000,"[(512, 384), (512, 384), (512, 384), (512, 384), (512, 384), (512, 384), (512, 384), (512, 384), (512, 384), (512, 384), (512, 384), (512, 384), (512, 384), (512, 384), (512, 384), (512, 384), (512, 384), (512, 384), (512, 384), (512, 384), (512, 384), (512, 391), (512, 401), (511, 413), (509, 430), (503, 465), (500, 477), (498, 490), (497, 498), (494, 521), (491, 533), (490, 545), (486, 561), (482, 592), (482, 607), (481, 622), (481, 635)]",97.04071658700465,"[5, 7, 4, 6, 2, 1, 8, 9, 3]","(0, 0.25)",ENG008D,ENG,D,Chinese,Tue Oct 23 16:54:07 2018,Mouse
2,0,4,0,57,7,7,1,300,230,70,139,0,500,200,8000,"[(512, 384), (512, 384), (512, 384), (512, 384), (512, 384), (512, 384), (512, 384), (512, 384), (512, 384), (512, 384), (512, 384), (512, 384), (512, 384), (512, 384), (512, 384), (512, 384), (512, 384), (512, 384), (512, 384), (512, 384), (512, 384), (512, 384), (512, 387), (518, 396), (533, 417), (542, 434), (556, 456), (579, 492), (635, 565), (656, 594)]",55.56101069119639,"[5, 7, 4, 6, 2, 1, 8, 9, 3]","(0, 0.25)",ENG008D,ENG,D,Chinese,Tue Oct 23 16:54:07 2018,Mouse
2,0,4,0,58,5,5,1,349,279,70,138,0,500,200,8000,"[(512, 384), (512, 384), (512, 384), (512, 384), (512, 384), (512, 384), (512, 384), (512, 384), (512, 384), (512, 384), (512, 384), (512, 384), (512, 384), (512, 384), (512, 384), (512, 384), (512, 384), (512, 384), (512, 384), (512, 384), (512, 384), (512, 384), (512, 384), (512, 384), (512, 384), (512, 384), (512, 384), (518, 385), (534, 391), (554, 398), (604, 413), (628, 422), (650, 429), (682, 442), (750, 465)]",18.795294886309243,"[5, 7, 4, 6, 2, 1, 8, 9, 3]","(0, 0.25)",ENG008D,ENG,D,Chinese,Tue Oct 23 16:54:07 2018,Mouse
2,0,4,0,59,3,3,1,319,249,70,137,0,500,200,8000,"[(512, 384), (512, 384), (512, 384), (512, 384), (512, 384), (512, 384), (512, 384), (512, 384), (512, 384), (512, 384), (512, 384), (512, 384), (512, 384), (512, 384), (512, 384), (512, 384), (512, 384), (512, 384), (512, 384), (512, 384), (512, 384), (512, 384), (512, 384), (512, 384), (516, 385), (527, 385), (542, 379), (586, 361), (615, 345), (645, 329), (680, 315), (753, 287)]",338.0757262712816,"[5, 7, 4, 6, 2, 1, 8, 9, 3]","(0, 0.25)",ENG008D,ENG,D,Chinese,Tue Oct 23 16:54:07 2018,Mouse
2,0,4,0,60,3,3,1,323,253,70,136,0,500,200,8000,"[(512, 384), (512, 384), (512, 384), (512, 384), (512, 384), (512, 384), (512, 384), (512, 384), (512, 384), (512, 384), (512, 384), (512, 384), (512, 384), (512, 384), (512, 384), (512, 384), (512, 384), (512, 384), (512, 384), (512, 384), (512, 384), (512, 384), (512, 384), (512, 384), (512, 384), (513, 384), (518, 384), (531, 380), (581, 359), (618, 345), (660, 331), (702, 314), (787, 283)]",339.83309312443623,"[5, 7, 4, 6, 2, 1, 8, 9, 3]","(0, 0.25)",ENG008D,ENG,D,Chinese,Tue Oct 23 16:54:07 2018,Mouse
2,0,4,0,61,7,7,1,359,299,60,135,0,500,200,8000,"[(512, 384), (512, 384), (512, 384), (512, 384), (512, 384), (512, 384), (512, 384), (512, 384), (512, 384), (512, 384), (512, 384), (512, 384), (512, 384), (512, 384), (512, 384), (512, 384), (512, 384), (512, 384), (512, 384), (512, 384), (512, 384), (512, 384), (512, 384), (512, 384), (512, 384), (512, 384), (512, 384), (512, 384), (512, 384), (512, 385), (512, 394), (530, 443), (548, 473), (568, 506), (589, 541), (633, 608)]",61.62303281377222,"[5, 7, 4, 6, 2, 1, 8, 9, 3]","(0, 0.25)",ENG008D,ENG,D,Chinese,Tue Oct 23 16:54:07 2018,Mouse
2,0,4,0,62,1,3,0,-274,234,40,134,0,500,200,8000,"[(512, 384), (512, 384), (512, 384), (512, 384), (512, 384), (512, 384), (512, 384), (512, 384), (512, 384), (512, 384), (512, 384), (512, 384), (512, 384), (512, 384), (512, 384), (512, 384), (512, 384), (512, 384), (512, 384), (512, 384), (512, 384), (512, 384), (512, 384), (521, 379), (596, 343), (645, 319), (685, 295), (735, 267)]",332.31563551000386,"[5, 7, 4, 6, 2, 1, 8, 9, 3]","(0, 0.25)",ENG008D,ENG,D,Chinese,Tue Oct 23 16:54:07 2018,Mouse
2,0,4,0,63,6,6,1,449,399,50,135,0,500,200,8000,"[(512, 384), (512, 384), (512, 384), (512, 384), (512, 384), (512, 384), (512, 384), (512, 384), (512, 384), (512, 384), (512, 384), (512, 384), (512, 384), (512, 384), (512, 384), (512, 384), (512, 384), (512, 384), (512, 384), (512, 384), (512, 384), (512, 384), (512, 384), (512, 384), (512, 384), (512, 384), (512, 384), (512, 384), (512, 384), (512, 384), (512, 384), (512, 384), (512, 384), (512, 384), (512, 384), (512, 384), (512, 384), (512, 384), (512, 384), (509, 387), (479, 407), (444, 423), (409, 442), (346, 476), (204, 533)]",154.18387060574582,"[5, 7, 4, 6, 2, 1, 8, 9, 3]","(0, 0.25)",ENG008D,ENG,D,Chinese,Tue Oct 23 16:54:07 2018,Mouse
2,0,4,0,64,8,8,1,489,449,40,135,0,500,200,8000,"[(512, 384), (512, 384), (512, 384), (512, 384), (512, 384), (512, 384), (512, 384), (512, 384), (512, 384), (512, 384), (512, 384), (512, 384), (512, 384), (512, 384), (512, 384), (512, 384), (512, 384), (512, 384), (512, 384), (512, 384), (512, 384), (512, 384), (512, 384), (512, 384), (512, 384), (512, 384), (512, 384), (512, 384), (512, 384), (512, 384), (512, 384), (512, 384), (512, 384), (512, 384), (512, 384), (512, 384), (512, 384), (512, 384), (512, 384), (512, 384), (512, 384), (512, 384), (512, 384), (512, 384), (512, 382), (509, 360), (502, 316), (475, 196), (460, 133)]",258.29553511169365,"[5, 7, 4, 6, 2, 1, 8, 9, 3]","(0, 0.25)",ENG008D,ENG,D,Chinese,Tue Oct 23 16:54:07 2018,Mouse
2,0,4,0,65,2,2,1,467,417,50,134,0,500,200,8000,"[(512, 384), (512, 384), (512, 384), (512, 384), (512, 384), (512, 384), (512, 384), (512, 384), (512, 384), (512, 384), (512, 384), (512, 384), (512, 384), (512, 384), (512, 384), (512, 384), (512, 384), (512, 384), (512, 384), (512, 384), (512, 384), (512, 384), (512, 384), (512, 384), (512, 384), (512, 384), (512, 384), (512, 384), (512, 384), (512, 384), (512, 384), (512, 384), (512, 384), (512, 384), (512, 384), (512, 384), (512, 384), (512, 384), (512, 384), (512, 384), (512, 384), (508, 384), (455, 385), (416, 385), (374, 385), (338, 385), (246, 385)]",179.78460334739293,"[5, 7, 4, 6, 2, 1, 8, 9, 3]","(0, 0.25)",ENG008D,ENG,D,Chinese,Tue Oct 23 16:54:07 2018,Mouse
2,0,4,0,66,8,8,1,1320,1240,80,133,0,500,200,8000,"[(512, 384), (512, 384), (512, 384), (512, 384), (512, 384), (512, 384), (512, 384), (512, 384), (512, 384), (512, 384), (512, 384), (512, 384), (512, 384), (512, 384), (512, 384), (512, 384), (512, 384), (512, 384), (512, 384), (512, 384), (512, 384), (512, 384), (512, 384), (512, 384), (512, 384), (512, 384), (512, 384), (512, 384), (512, 384), (512, 384), (512, 384), (512, 384), (512, 384), (512, 384), (512, 384), (512, 384), (512, 384), (512, 384), (512, 384), (512, 384), (512, 384), (512, 384), (512, 384), (512, 384), (512, 384), (512, 384), (512, 384), (512, 384), (512, 384), (512, 384), (512, 384), (512, 384), (512, 384), (512, 384), (512, 384), (512, 384), (512, 384), (512, 384), (512, 384), (512, 384), (512, 384), (512, 384), (512, 384), (512, 384), (512, 384), (512, 384), (512, 384), (512, 384), (512, 384), (512, 384), (512, 384), (512, 384), (512, 384), (512, 384), (512, 384), (512, 384), (512, 384), (512, 384), (512, 384), (512, 384), (512, 384), (512, 384), (512, 384), (512, 384), (512, 384), (512, 384), (512, 384), (512, 384), (512, 384), (512, 384), (512, 384), (512, 384), (512, 384), (512, 384), (512, 384), (512, 384), (512, 384), (512, 384), (512, 384), (512, 384), (512, 384), (512, 384), (512, 384), (512, 384), (512, 384), (512, 384), (512, 384), (512, 384), (512, 384), (512, 384), (512, 384), (512, 384), (512, 384), (512, 384), (512, 384), (512, 384), (512, 384), (512, 384), (512, 384), (512, 384), (512, 384), (512, 384), (512, 384), (516, 376), (521, 356), (525, 334), (527, 314), (532, 248), (532, 218), (532, 182), (532, 140), (526, 79)]",272.62812545757623,"[5, 7, 4, 6, 2, 1, 8, 9, 3]","(0, 0.25)",ENG008D,ENG,D,Chinese,Tue Oct 23 16:54:07 2018,Mouse
2,0,4,0,67,7,5,0,-1639,1559,80,132,0,500,200,8000,"[(512, 384), (512, 384), (512, 384), (512, 384), (512, 384), (512, 384), (512, 384), (512, 384), (512, 384), (512, 384), (512, 384), (512, 384), (512, 384), (512, 384), (512, 384), (512, 384), (512, 384), (512, 384), (512, 384), (512, 384), (512, 384), (512, 384), (512, 384), (512, 384), (512, 384), (512, 384), (512, 384), (512, 384), (512, 384), (512, 384), (512, 384), (512, 384), (512, 384), (512, 384), (512, 384), (512, 384), (512, 384), (512, 384), (512, 384), (512, 384), (512, 384), (512, 384), (512, 384), (512, 384), (512, 384), (512, 384), (512, 384), (512, 384), (512, 384), (512, 384), (512, 384), (512, 384), (512, 384), (512, 384), (512, 384), (512, 384), (512, 384), (512, 384), (512, 384), (512, 384), (512, 384), (512, 384), (512, 384), (512, 384), (512, 384), (512, 384), (512, 384), (512, 384), (512, 384), (512, 384), (512, 384), (512, 384), (512, 384), (512, 384), (512, 384), (512, 384), (512, 384), (512, 384), (512, 384), (512, 384), (512, 384), (512, 384), (512, 384), (512, 384), (512, 384), (512, 384), (512, 384), (512, 384), (512, 384), (512, 384), (512, 384), (512, 384), (512, 384), (512, 384), (512, 384), (512, 384), (512, 384), (512, 384), (512, 384), (512, 384), (512, 384), (512, 384), (512, 384), (512, 384), (512, 384), (512, 384), (512, 384), (512, 384), (512, 384), (512, 384), (512, 384), (512, 384), (512, 384), (512, 384), (512, 384), (512, 384), (512, 384), (512, 384), (512, 384), (512, 384), (512, 384), (512, 384), (512, 384), (512, 384), (512, 384), (512, 384), (512, 384), (512, 384), (512, 384), (512, 384), (512, 384), (512, 384), (512, 384), (512, 384), (512, 384), (512, 384), (512, 384), (512, 384), (512, 384), (512, 384), (512, 384), (512, 384), (512, 384), (512, 384), (512, 384), (512, 384), (512, 384), (512, 384), (512, 384), (512, 384), (512, 384), (512, 384), (512, 384), (512, 384), (512, 384), (525, 389), (538, 395), (553, 402), (569, 412), (615, 439), (644, 453), (680, 473), (718, 496), (794, 532)]",27.691508423964915,"[5, 7, 4, 6, 2, 1, 8, 9, 3]","(0, 0.25)",ENG008D,ENG,D,Chinese,Tue Oct 23 16:54:07 2018,Mouse
2,0,4,0,68,2,8,0,-297,237,60,133,0,500,200,8000,"[(512, 384), (512, 384), (512, 384), (512, 384), (512, 384), (512, 384), (512, 384), (512, 384), (512, 384), (512, 384), (512, 384), (512, 384), (512, 384), (512, 384), (512, 384), (512, 384), (512, 384), (512, 384), (512, 384), (512, 384), (512, 384), (512, 384), (512, 384), (512, 351), (514, 309), (514, 270), (514, 237), (507, 178), (496, 147), (488, 119)]",264.8250660828409,"[5, 7, 4, 6, 2, 1, 8, 9, 3]","(0, 0.25)",ENG008D,ENG,D,Chinese,Tue Oct 23 16:54:07 2018,Mouse
2,0,4,0,69,9,5,0,-790,700,90,134,0,500,200,8000,"[(512, 384), (512, 384), (512, 384), (512, 384), (512, 384), (512, 384), (512, 384), (512, 384), (512, 384), (512, 384), (512, 384), (512, 384), (512, 384), (512, 384), (512, 384), (512, 384), (512, 384), (512, 384), (512, 384), (512, 384), (512, 384), (512, 384), (512, 384), (512, 384), (512, 384), (512, 384), (512, 384), (512, 384), (512, 384), (512, 384), (512, 384), (512, 384), (512, 384), (512, 384), (512, 384), (512, 384), (512, 384), (512, 384), (512, 384), (512, 384), (512, 384), (512, 384), (512, 384), (512, 384), (512, 384), (512, 384), (512, 384), (512, 384), (512, 384), (512, 384), (512, 384), (512, 384), (512, 384), (512, 384), (512, 384), (512, 384), (512, 384), (512, 384), (512, 384), (512, 384), (512, 384), (512, 384), (512, 384), (512, 384), (512, 384), (512, 384), (512, 384), (512, 384), (512, 384), (513, 384), (518, 386), (531, 390), (547, 396), (593, 412), (623, 418), (653, 425), (686, 432), (751, 446), (783, 451)]",13.886906413796597,"[5, 7, 4, 6, 2, 1, 8, 9, 3]","(0, 0.25)",ENG008D,ENG,D,Chinese,Tue Oct 23 16:54:07 2018,Mouse
2,0,4,0,70,7,7,1,427,307,120,135,0,500,200,8000,"[(512, 384), (512, 384), (512, 384), (512, 384), (512, 384), (512, 384), (512, 384), (512, 384), (512, 384), (512, 384), (512, 384), (512, 384), (512, 384), (512, 384), (512, 384), (512, 384), (512, 384), (512, 384), (512, 384), (512, 384), (512, 384), (512, 384), (512, 384), (512, 384), (512, 384), (512, 384), (512, 384), (512, 384), (512, 384), (512, 384), (512, 388), (516, 399), (520, 409), (525, 419), (534, 439), (541, 450), (548, 463), (556, 477), (579, 518), (590, 539), (602, 561), (614, 582), (637, 625)]",62.58548550692751,"[5, 7, 4, 6, 2, 1, 8, 9, 3]","(0, 0.25)",ENG008D,ENG,D,Chinese,Tue Oct 23 16:54:07 2018,Mouse
2,0,4,0,71,9,6,0,-407,327,80,135,0,500,200,8000,"[(512, 384), (512, 384), (512, 384), (512, 384), (512, 384), (512, 384), (512, 384), (512, 384), (512, 384), (512, 384), (512, 384), (512, 384), (512, 384), (512, 384), (512, 384), (512, 384), (512, 384), (512, 384), (512, 384), (512, 384), (512, 384), (512, 384), (512, 384), (512, 384), (512, 384), (512, 384), (512, 384), (512, 384), (512, 384), (512, 384), (512, 384), (512, 384), (511, 384), (503, 391), (489, 404), (438, 441), (411, 458), (385, 479), (358, 494), (306, 522), (284, 536)]",146.30993247402023,"[5, 7, 4, 6, 2, 1, 8, 9, 3]","(0, 0.25)",ENG008D,ENG,D,Chinese,Tue Oct 23 16:54:07 2018,Mouse
2,0,4,0,72,4,4,1,311,231,80,136,0,500,200,8000,"[(512, 384), (512, 384), (512, 384), (512, 384), (512, 384), (512, 384), (512, 384), (512, 384), (512, 384), (512, 384), (512, 384), (512, 384), (512, 384), (512, 384), (512, 384), (512, 384), (512, 384), (512, 384), (512, 384), (512, 384), (512, 384), (512, 384), (512, 384), (511, 400), (509, 413), (506, 430), (503, 454), (497, 514), (495, 548), (495, 579), (496, 605), (498, 646)]",93.05869757409583,"[5, 7, 4, 6, 2, 1, 8, 9, 3]","(0, 0.25)",ENG008D,ENG,D,Chinese,Tue Oct 23 16:54:07 2018,Mouse
2,0,4,0,73,2,1,0,-1402,1342,60,136,0,500,200,8000,"[(512, 384), (512, 384), (512, 384), (512, 384), (512, 384), (512, 384), (512, 384), (512, 384), (512, 384), (512, 384), (512, 384), (512, 384), (512, 384), (512, 384), (512, 384), (512, 384), (512, 384), (512, 384), (512, 384), (512, 384), (512, 384), (512, 384), (512, 384), (512, 384), (512, 384), (512, 384), (512, 384), (512, 384), (512, 384), (512, 384), (512, 384), (512, 384), (512, 384), (512, 384), (512, 384), (512, 384), (512, 384), (512, 384), (512, 384), (512, 384), (512, 384), (512, 384), (512, 384), (512, 384), (512, 384), (512, 384), (512, 384), (512, 384), (512, 384), (512, 384), (512, 384), (512, 384), (512, 384), (512, 384), (512, 384), (512, 384), (512, 384), (512, 384), (512, 384), (512, 384), (512, 384), (512, 384), (512, 384), (512, 384), (512, 384), (512, 384), (512, 384), (512, 384), (512, 384), (512, 384), (512, 384), (512, 384), (512, 384), (512, 384), (512, 384), (512, 384), (512, 384), (512, 384), (512, 384), (512, 384), (512, 384), (512, 384), (512, 384), (512, 384), (512, 384), (512, 384), (512, 384), (512, 384), (512, 384), (512, 384), (512, 384), (512, 384), (512, 384), (512, 384), (512, 384), (512, 384), (512, 384), (512, 384), (512, 384), (512, 384), (512, 384), (512, 384), (512, 384), (512, 384), (512, 384), (512, 384), (512, 384), (512, 384), (512, 384), (512, 384), (512, 384), (512, 384), (512, 384), (512, 384), (512, 384), (512, 384), (512, 384), (512, 384), (512, 384), (512, 384), (512, 384), (512, 384), (512, 384), (512, 384), (512, 384), (512, 384), (512, 384), (512, 384), (512, 384), (512, 384), (512, 384), (512, 384), (512, 384), (512, 384), (511, 384), (501, 377), (461, 348), (428, 328), (392, 305), (353, 282), (286, 236)]",213.21947622308457,"[5, 7, 4, 6, 2, 1, 8, 9, 3]","(0, 0.25)",ENG008D,ENG,D,Chinese,Tue Oct 23 16:54:07 2018,Mouse
2,0,4,0,74,5,6,0,-321,251,70,137,0,500,200,8000,"[(512, 384), (512, 384), (512, 384), (512, 384), (512, 384), (512, 384), (512, 384), (512, 384), (512, 384), (512, 384), (512, 384), (512, 384), (512, 384), (512, 384), (512, 384), (512, 384), (512, 384), (512, 384), (512, 384), (512, 384), (512, 384), (512, 384), (512, 384), (512, 384), (512, 384), (510, 388), (496, 399), (470, 418), (401, 465), (368, 483), (341, 498), (309, 515), (270, 540)]",147.19303447550695,"[5, 7, 4, 6, 2, 1, 8, 9, 3]","(0, 0.25)",ENG008D,ENG,D,Chinese,Tue Oct 23 16:54:07 2018,Mouse
2,0,4,0,75,5,5,1,359,269,90,138,0,500,200,8000,"[(512, 384), (512, 384), (512, 384), (512, 384), (512, 384), (512, 384), (512, 384), (512, 384), (512, 384), (512, 384), (512, 384), (512, 384), (512, 384), (512, 384), (512, 384), (512, 384), (512, 384), (512, 384), (512, 384), (512, 384), (512, 384), (512, 384), (512, 384), (512, 384), (512, 384), (512, 384), (515, 384), (539, 393), (552, 399), (566, 405), (584, 412), (623, 429), (646, 438), (675, 450), (703, 460), (765, 481)]",20.976784201830256,"[5, 7, 4, 6, 2, 1, 8, 9, 3]","(0, 0.25)",ENG008D,ENG,D,Chinese,Tue Oct 23 16:54:07 2018,Mouse
2,0,4,0,76,9,9,1,359,259,100,138,0,500,200,8000,"[(512, 384), (512, 384), (512, 384), (512, 384), (512, 384), (512, 384), (512, 384), (512, 384), (512, 384), (512, 384), (512, 384), (512, 384), (512, 384), (512, 384), (512, 384), (512, 384), (512, 384), (512, 384), (512, 384), (512, 384), (512, 384), (512, 384), (512, 384), (512, 384), (512, 384), (512, 383), (514, 375), (533, 344), (539, 333), (546, 321), (554, 306), (574, 276), (584, 254), (600, 234), (612, 215), (643, 168)]",301.2360358514527,"[5, 7, 4, 6, 2, 1, 8, 9, 3]","(0, 0.25)",ENG008D,ENG,D,Chinese,Tue Oct 23 16:54:07 2018,Mouse
2,0,4,0,77,1,4,0,-398,298,100,137,0,500,200,8000,"[(512, 384), (512, 384), (512, 384), (512, 384), (512, 384), (512, 384), (512, 384), (512, 384), (512, 384), (512, 384), (512, 384), (512, 384), (512, 384), (512, 384), (512, 384), (512, 384), (512, 384), (512, 384), (512, 384), (512, 384), (512, 384), (512, 384), (512, 384), (512, 384), (512, 384), (512, 384), (512, 384), (512, 384), (512, 384), (512, 389), (511, 406), (510, 446), (510, 459), (510, 476), (510, 491), (510, 530), (510, 555), (510, 588), (510, 622), (508, 678)]",90.77948632111848,"[5, 7, 4, 6, 2, 1, 8, 9, 3]","(0, 0.25)",ENG008D,ENG,D,Chinese,Tue Oct 23 16:54:07 2018,Mouse
2,0,4,0,78,6,6,1,311,241,70,138,0,500,200,8000,"[(512, 384), (512, 384), (512, 384), (512, 384), (512, 384), (512, 384), (512, 384), (512, 384), (512, 384), (512, 384), (512, 384), (512, 384), (512, 384), (512, 384), (512, 384), (512, 384), (512, 384), (512, 384), (512, 384), (512, 384), (512, 384), (512, 384), (512, 384), (512, 384), (504, 395), (489, 415), (467, 439), (445, 460), (390, 508), (359, 530), (332, 547), (304, 564)]",139.12759170251172,"[5, 7, 4, 6, 2, 1, 8, 9, 3]","(0, 0.25)",ENG008D,ENG,D,Chinese,Tue Oct 23 16:54:07 2018,Mouse
2,0,4,0,79,4,4,1,410,310,100,138,0,500,200,8000,"[(512, 384), (512, 384), (512, 384), (512, 384), (512, 384), (512, 384), (512, 384), (512, 384), (512, 384), (512, 384), (512, 384), (512, 384), (512, 384), (512, 384), (512, 384), (512, 384), (512, 384), (512, 384), (512, 384), (512, 384), (512, 384), (512, 384), (512, 384), (512, 384), (512, 384), (512, 384), (512, 384), (512, 384), (512, 384), (512, 384), (512, 385), (509, 399), (498, 432), (492, 452), (488, 468), (484, 487), (479, 529), (479, 562), (479, 596), (479, 629), (484, 682)]",95.36773684715615,"[5, 7, 4, 6, 2, 1, 8, 9, 3]","(0, 0.25)",ENG008D,ENG,D,Chinese,Tue Oct 23 16:54:07 2018,Mouse
2,0,4,0,80,3,2,0,-1165,565,600,137,0,500,200,8000,"[(512, 384), (512, 384), (512, 384), (512, 384), (512, 384), (512, 384), (512, 384), (512, 384), (512, 384), (512, 384), (512, 384), (512, 384), (512, 384), (512, 384), (512, 384), (512, 384), (512, 384), (512, 384), (512, 384), (512, 384), (512, 384), (512, 384), (512, 384), (512, 384), (512, 384), (512, 384), (512, 384), (512, 384), (512, 384), (512, 384), (512, 384), (512, 384), (512, 384), (512, 384), (512, 384), (512, 384), (512, 384), (512, 384), (512, 384), (512, 384), (512, 384), (512, 384), (512, 384), (512, 384), (512, 384), (512, 384), (512, 384), (512, 384), (512, 384), (512, 384), (512, 384), (512, 384), (512, 384), (512, 384), (512, 384), (512, 384), (509, 383), (507, 382), (504, 381), (503, 381), (502, 381), (500, 381), (500, 381), (499, 381), (499, 381), (499, 381), (499, 381), (499, 381), (499, 381), (499, 381), (499, 381), (499, 381), (499, 381), (499, 381), (499, 381), (499, 381), (499, 381), (499, 381), (499, 381), (499, 381), (499, 381), (498, 381), (497, 381), (496, 381), (493, 381), (491, 381), (489, 381), (487, 381), (483, 382), (481, 382), (481, 382), (479, 382), (478, 382), (478, 382), (478, 382), (478, 382), (478, 382), (477, 382), (477, 382), (476, 382), (473, 382), (470, 382), (467, 383), (462, 384), (455, 385), (452, 386), (449, 386), (443, 387), (427, 387), (417, 387), (404, 387), (389, 387), (353, 388), (328, 388), (303, 388), (277, 387), (226, 386)]",179.59933674420785,"[5, 7, 4, 6, 2, 1, 8, 9, 3]","(0, 0.25)",ENG008D,ENG,D,Chinese,Tue Oct 23 16:54:07 2018,Mouse
2,0,4,0,81,5,5,1,680,550,130,138,0,500,200,8000,"[(512, 384), (512, 384), (512, 384), (512, 384), (512, 384), (512, 384), (512, 384), (512, 384), (512, 384), (512, 384), (512, 384), (512, 384), (512, 384), (512, 384), (512, 384), (512, 384), (512, 384), (512, 384), (512, 384), (512, 384), (512, 384), (512, 384), (512, 384), (512, 384), (512, 384), (512, 384), (512, 384), (512, 384), (512, 384), (512, 384), (512, 384), (512, 384), (512, 384), (512, 384), (512, 384), (512, 384), (512, 384), (512, 384), (512, 384), (512, 384), (512, 384), (512, 384), (512, 384), (512, 384), (512, 384), (512, 384), (512, 384), (512, 384), (512, 384), (512, 384), (512, 384), (512, 384), (512, 384), (512, 384), (513, 384), (533, 389), (547, 394), (561, 398), (574, 400), (601, 406), (620, 407), (638, 408), (656, 411), (694, 414), (712, 415), (733, 418), (753, 419), (794, 427)]",8.669808657016494,"[5, 7, 4, 6, 2, 1, 8, 9, 3]","(0, 0.25)",ENG008D,ENG,D,Chinese,Tue Oct 23 16:54:07 2018,Mouse
2,0,4,0,82,1,1,1,379,319,60,138,0,500,200,8000,"[(512, 384), (512, 384), (512, 384), (512, 384), (512, 384), (512, 384), (512, 384), (512, 384), (512, 384), (512, 384), (512, 384), (512, 384), (512, 384), (512, 384), (512, 384), (512, 384), (512, 384), (512, 384), (512, 384), (512, 384), (512, 384), (512, 384), (512, 384), (512, 384), (512, 384), (512, 384), (512, 384), (512, 384), (512, 384), (512, 384), (512, 384), (504, 381), (487, 373), (463, 359), (424, 331), (344, 283), (308, 262), (273, 244)]",210.36066533769298,"[5, 7, 4, 6, 2, 1, 8, 9, 3]","(0, 0.25)",ENG008D,ENG,D,Chinese,Tue Oct 23 16:54:07 2018,Mouse
2,0,4,0,83,2,2,1,290,170,120,137,0,500,200,8000,"[(512, 384), (512, 384), (512, 384), (512, 384), (512, 384), (512, 384), (512, 384), (512, 384), (512, 384), (512, 384), (512, 384), (512, 384), (512, 384), (512, 384), (512, 384), (512, 384), (510, 384), (500, 384), (493, 386), (485, 386), (474, 386), (450, 385), (437, 381), (419, 376), (395, 375), (345, 367), (314, 365), (285, 364), (252, 364)]",184.3987053549955,"[5, 7, 4, 6, 2, 1, 8, 9, 3]","(0, 0.25)",ENG008D,ENG,D,Chinese,Tue Oct 23 16:54:07 2018,Mouse
2,0,4,0,84,7,7,1,448,248,200,136,0,500,200,8000,"[(512, 384), (512, 384), (512, 384), (512, 384), (512, 384), (512, 384), (512, 384), (512, 384), (512, 384), (512, 384), (512, 384), (512, 384), (512, 384), (512, 384), (512, 384), (512, 384), (512, 384), (512, 384), (512, 384), (512, 384), (512, 384), (512, 384), (512, 384), (512, 384), (513, 385), (515, 387), (519, 393), (526, 403), (542, 421), (549, 427), (556, 435), (561, 444), (575, 464), (582, 473), (586, 478), (591, 485), (601, 501), (608, 513), (612, 525), (618, 540), (619, 567), (619, 578), (619, 589), (619, 596), (618, 611)]",64.96929032262278,"[5, 7, 4, 6, 2, 1, 8, 9, 3]","(0, 0.25)",ENG008D,ENG,D,Chinese,Tue Oct 23 16:54:07 2018,Mouse
2,0,4,0,85,7,7,1,235,45,190,135,0,500,200,8000,"[(512, 384), (512, 384), (512, 384), (512, 384), (510, 392), (507, 412), (505, 433), (505, 455), (503, 493), (503, 505), (506, 516), (511, 528), (525, 547), (533, 552), (542, 561), (550, 570), (569, 585), (578, 591), (587, 597), (595, 601), (608, 610), (612, 611), (614, 612), (616, 614)]",65.66875808306494,"[5, 7, 4, 6, 2, 1, 8, 9, 3]","(0, 0.25)",ENG008D,ENG,D,Chinese,Tue Oct 23 16:54:07 2018,Mouse
2,0,4,0,86,9,9,1,419,239,180,134,0,500,200,8000,"[(512, 384), (512, 384), (512, 384), (512, 384), (512, 384), (512, 384), (512, 384), (512, 384), (512, 384), (512, 384), (512, 384), (512, 384), (512, 384), (512, 384), (512, 384), (512, 384), (512, 384), (512, 384), (512, 384), (512, 384), (512, 384), (512, 384), (512, 384), (512, 382), (512, 375), (512, 372), (513, 370), (515, 367), (521, 356), (524, 347), (528, 337), (532, 326), (544, 292), (551, 272), (558, 251), (566, 236), (581, 214), (589, 203), (596, 194), (604, 185), (619, 167), (628, 156)]",296.96571443287013,"[5, 7, 4, 6, 2, 1, 8, 9, 3]","(0, 0.25)",ENG008D,ENG,D,Chinese,Tue Oct 23 16:54:07 2018,Mouse
2,0,4,0,87,3,3,1,339,269,70,133,0,500,200,8000,"[(512, 384), (512, 384), (512, 384), (512, 384), (512, 384), (512, 384), (512, 384), (512, 384), (512, 384), (512, 384), (512, 384), (512, 384), (512, 384), (512, 384), (512, 384), (512, 384), (512, 384), (512, 384), (512, 384), (512, 384), (512, 384), (512, 384), (512, 384), (512, 384), (512, 384), (512, 384), (516, 381), (528, 374), (551, 364), (580, 352), (647, 331), (682, 324), (718, 317), (752, 313)]",343.52002671815393,"[5, 7, 4, 6, 2, 1, 8, 9, 3]","(0, 0.25)",ENG008D,ENG,D,Chinese,Tue Oct 23 16:54:07 2018,Mouse
2,0,4,0,88,9,1,0,-407,337,70,132,0,500,200,8000,"[(512, 384), (512, 384), (512, 384), (512, 384), (512, 384), (512, 384), (512, 384), (512, 384), (512, 384), (512, 384), (512, 384), (512, 384), (512, 384), (512, 384), (512, 384), (512, 384), (512, 384), (512, 384), (512, 384), (512, 384), (512, 384), (512, 384), (512, 384), (512, 384), (512, 384), (512, 384), (512, 384), (512, 384), (512, 384), (512, 384), (512, 384), (512, 384), (512, 384), (511, 384), (503, 379), (485, 367), (450, 328), (426, 299), (391, 266), (352, 232), (268, 172)]",220.98582430458896,"[5, 7, 4, 6, 2, 1, 8, 9, 3]","(0, 0.25)",ENG008D,ENG,D,Chinese,Tue Oct 23 16:54:07 2018,Mouse
2,0,4,0,89,6,6,1,888,348,540,133,0,500,200,8000,"[(512, 384), (512, 384), (512, 384), (512, 384), (512, 384), (512, 384), (512, 384), (512, 384), (512, 384), (512, 384), (512, 384), (512, 384), (512, 384), (512, 384), (512, 384), (512, 384), (512, 384), (512, 384), (512, 384), (512, 384), (512, 384), (512, 384), (512, 384), (512, 384), (512, 384), (512, 384), (512, 384), (512, 384), (512, 384), (512, 384), (512, 384), (512, 384), (512, 384), (512, 384), (514, 384), (515, 382), (516, 382), (516, 382), (517, 382), (517, 382), (517, 382), (517, 382), (517, 382), (517, 382), (517, 382), (517, 382), (517, 382), (517, 382), (517, 382), (517, 382), (517, 382), (517, 382), (517, 382), (517, 382), (517, 382), (517, 382), (517, 382), (517, 382), (517, 382), (517, 382), (517, 382), (517, 382), (517, 382), (517, 382), (517, 382), (517, 382), (517, 382), (517, 382), (517, 382), (517, 382), (517, 382), (517, 382), (517, 382), (517, 382), (517, 383), (514, 389), (509, 398), (504, 406), (488, 433), (475, 450), (468, 461), (459, 474), (437, 493), (427, 500), (413, 510), (395, 527), (354, 551), (338, 559), (327, 567)]",135.31138704027484,"[5, 7, 4, 6, 2, 1, 8, 9, 3]","(0, 0.25)",ENG008D,ENG,D,Chinese,Tue Oct 23 16:54:07 2018,Mouse
2,0,4,0,90,3,3,1,827,757,70,133,0,500,200,8000,"[(512, 384), (512, 384), (512, 384), (512, 384), (512, 384), (512, 384), (512, 384), (512, 384), (512, 384), (512, 384), (512, 384), (512, 384), (512, 384), (512, 384), (512, 384), (512, 384), (512, 384), (512, 384), (512, 384), (512, 384), (512, 384), (512, 384), (512, 384), (512, 384), (512, 384), (512, 384), (512, 384), (512, 384), (512, 384), (512, 384), (512, 384), (512, 384), (512, 384), (512, 384), (512, 384), (512, 384), (512, 384), (512, 384), (512, 384), (512, 384), (512, 384), (512, 384), (512, 384), (512, 384), (512, 384), (512, 384), (512, 384), (512, 384), (512, 384), (512, 384), (512, 384), (512, 384), (512, 384), (512, 384), (512, 384), (512, 384), (512, 384), (512, 384), (512, 384), (512, 384), (512, 384), (512, 384), (512, 384), (512, 384), (512, 384), (512, 384), (512, 384), (512, 384), (512, 384), (512, 384), (512, 384), (512, 384), (512, 384), (512, 384), (512, 384), (514, 384), (523, 383), (541, 376), (610, 361), (659, 353), (704, 347), (752, 343), (842, 338)]",352.06444962991117,"[5, 7, 4, 6, 2, 1, 8, 9, 3]","(0, 0.25)",ENG008D,ENG,D,Chinese,Tue Oct 23 16:54:07 2018,Mouse
2,0,4,0,91,2,7,0,-441,361,80,132,0,500,200,8000,"[(512, 384), (512, 384), (512, 384), (512, 384), (512, 384), (512, 384), (512, 384), (512, 384), (512, 384), (512, 384), (512, 384), (512, 384), (512, 384), (512, 384), (512, 384), (512, 384), (512, 384), (512, 384), (512, 384), (512, 384), (512, 384), (512, 384), (512, 384), (512, 384), (512, 384), (512, 384), (512, 384), (512, 384), (512, 384), (512, 384), (512, 384), (512, 384), (512, 384), (512, 384), (512, 384), (512, 384), (512, 388), (519, 401), (528, 419), (543, 439), (573, 479), (587, 497), (610, 523), (631, 544), (694, 596)]",49.35422106306961,"[5, 7, 4, 6, 2, 1, 8, 9, 3]","(0, 0.25)",ENG008D,ENG,D,Chinese,Tue Oct 23 16:54:07 2018,Mouse
2,0,4,0,92,5,1,0,-819,609,210,133,0,500,200,8000,"[(512, 384), (512, 384), (512, 384), (512, 384), (512, 384), (512, 384), (512, 384), (512, 384), (512, 384), (512, 384), (512, 384), (512, 384), (512, 384), (512, 384), (512, 384), (512, 384), (512, 384), (512, 384), (512, 384), (512, 384), (512, 384), (512, 384), (512, 384), (512, 384), (512, 384), (512, 384), (512, 384), (512, 384), (512, 384), (512, 384), (512, 384), (512, 384), (512, 384), (512, 384), (512, 384), (512, 384), (512, 384), (512, 384), (512, 384), (512, 384), (512, 384), (512, 384), (512, 384), (512, 384), (512, 384), (512, 384), (512, 384), (512, 384), (512, 384), (512, 384), (512, 384), (512, 384), (512, 384), (512, 384), (512, 384), (512, 384), (512, 384), (512, 384), (512, 384), (512, 384), (511, 383), (507, 381), (501, 374), (484, 349), (469, 331), (451, 312), (432, 296), (418, 280), (412, 277), (405, 272), (397, 266), (384, 259), (380, 258), (378, 255), (374, 254), (365, 243), (361, 237), (358, 232), (353, 226), (345, 211), (339, 206), (334, 202)]",225.6365935759635,"[5, 7, 4, 6, 2, 1, 8, 9, 3]","(0, 0.25)",ENG008D,ENG,D,Chinese,Tue Oct 23 16:54:07 2018,Mouse
2,0,4,0,93,3,3,1,569,399,170,134,0,500,200,8000,"[(512, 384), (512, 384), (512, 384), (512, 384), (512, 384), (512, 384), (512, 384), (512, 384), (512, 384), (512, 384), (512, 384), (512, 384), (512, 384), (512, 384), (512, 384), (512, 384), (512, 384), (512, 384), (512, 384), (512, 384), (512, 384), (512, 384), (512, 384), (512, 384), (512, 384), (512, 384), (512, 384), (512, 384), (512, 384), (512, 384), (512, 384), (512, 384), (512, 384), (512, 384), (512, 384), (512, 384), (512, 384), (512, 384), (512, 384), (514, 384), (518, 384), (530, 384), (536, 384), (541, 384), (548, 384), (556, 384), (560, 384), (564, 384), (569, 384), (583, 382), (594, 377), (607, 371), (630, 361), (690, 337), (718, 327), (750, 315), (773, 307)]",343.56293103355466,"[5, 7, 4, 6, 2, 1, 8, 9, 3]","(0, 0.25)",ENG008D,ENG,D,Chinese,Tue Oct 23 16:54:07 2018,Mouse
2,0,4,0,94,7,7,1,316,196,120,134,0,500,200,8000,"[(512, 384), (512, 384), (512, 384), (512, 384), (512, 384), (512, 384), (512, 384), (512, 384), (512, 384), (512, 384), (512, 384), (512, 384), (512, 384), (512, 384), (512, 384), (512, 384), (512, 384), (512, 384), (512, 384), (514, 384), (518, 387), (520, 389), (525, 393), (530, 398), (539, 406), (569, 436), (586, 454), (605, 473), (622, 494), (652, 536), (668, 559), (683, 576)]",48.31094151461145,"[5, 7, 4, 6, 2, 1, 8, 9, 3]","(0, 0.25)",ENG008D,ENG,D,Chinese,Tue Oct 23 16:54:07 2018,Mouse
2,0,4,0,95,1,1,1,209,139,70,133,0,500,200,8000,"[(512, 384), (512, 384), (512, 384), (512, 384), (512, 384), (512, 384), (512, 384), (512, 384), (512, 384), (512, 384), (512, 384), (512, 384), (512, 384), (511, 384), (506, 380), (494, 373), (458, 352), (425, 332), (389, 309), (347, 284), (275, 236)]",211.98364732918952,"[5, 7, 4, 6, 2, 1, 8, 9, 3]","(0, 0.25)",ENG008D,ENG,D,Chinese,Tue Oct 23 16:54:07 2018,Mouse
2,0,4,0,96,4,7,0,-748,398,350,132,0,500,200,8000,"[(512, 384), (512, 384), (512, 384), (512, 384), (512, 384), (512, 384), (512, 384), (512, 384), (512, 384), (512, 384), (512, 384), (512, 384), (512, 384), (512, 384), (512, 384), (512, 384), (512, 384), (512, 384), (512, 384), (512, 384), (512, 384), (512, 384), (512, 384), (512, 384), (512, 384), (512, 384), (512, 384), (512, 384), (512, 384), (512, 384), (512, 384), (512, 384), (512, 384), (512, 384), (512, 384), (512, 384), (512, 384), (512, 384), (512, 384), (512, 385), (512, 387), (512, 387), (512, 388), (513, 390), (514, 390), (514, 390), (514, 390), (514, 390), (514, 391), (514, 391), (514, 391), (514, 391), (514, 391), (514, 391), (514, 391), (514, 391), (514, 391), (514, 391), (514, 391), (514, 392), (514, 394), (516, 399), (520, 405), (526, 415), (540, 439), (547, 452), (554, 466), (561, 477), (580, 499), (594, 512), (611, 525), (628, 536), (665, 563), (676, 571), (687, 579)]",48.09405805891711,"[5, 7, 4, 6, 2, 1, 8, 9, 3]","(0, 0.25)",ENG008D,ENG,D,Chinese,Tue Oct 23 16:54:07 2018,Mouse
2,0,4,0,97,6,2,0,-489,399,90,133,0,500,200,8000,"[(512, 384), (512, 384), (512, 384), (512, 384), (512, 384), (512, 384), (512, 384), (512, 384), (512, 384), (512, 384), (512, 384), (512, 384), (512, 384), (512, 384), (512, 384), (512, 384), (512, 384), (512, 384), (512, 384), (512, 384), (512, 384), (512, 384), (512, 384), (512, 384), (512, 384), (512, 384), (512, 384), (512, 384), (512, 384), (512, 384), (512, 384), (512, 384), (512, 384), (512, 384), (512, 384), (512, 384), (512, 384), (512, 384), (512, 384), (508, 383), (501, 381), (484, 375), (474, 371), (461, 371), (436, 371), (369, 362), (329, 359), (285, 359), (243, 359)]",185.30963474345353,"[5, 7, 4, 6, 2, 1, 8, 9, 3]","(0, 0.25)",ENG008D,ENG,D,Chinese,Tue Oct 23 16:54:07 2018,Mouse
2,0,4,0,98,4,4,1,379,319,60,134,0,500,200,8000,"[(512, 384), (512, 384), (512, 384), (512, 384), (512, 384), (512, 384), (512, 384), (512, 384), (512, 384), (512, 384), (512, 384), (512, 384), (512, 384), (512, 384), (512, 384), (512, 384), (512, 384), (512, 384), (512, 384), (512, 384), (512, 384), (512, 384), (512, 384), (512, 384), (512, 384), (512, 384), (512, 384), (512, 384), (512, 384), (512, 384), (512, 384), (512, 385), (498, 412), (484, 442), (469, 479), (460, 517), (458, 598), (458, 637)]",102.04835121822336,"[5, 7, 4, 6, 2, 1, 8, 9, 3]","(0, 0.25)",ENG008D,ENG,D,Chinese,Tue Oct 23 16:54:07 2018,Mouse
2,0,4,0,99,2,5,0,-249,189,60,134,0,500,200,8000,"[(512, 384), (512, 384), (512, 384), (512, 384), (512, 384), (512, 384), (512, 384), (512, 384), (512, 384), (512, 384), (512, 384), (512, 384), (512, 384), (512, 384), (512, 384), (512, 384), (512, 384), (512, 384), (513, 384), (523, 388), (546, 401), (580, 426), (658, 480), (702, 504), (742, 525)]",31.5101078629818,"[5, 7, 4, 6, 2, 1, 8, 9, 3]","(0, 0.25)",ENG008D,ENG,D,Chinese,Tue Oct 23 16:54:07 2018,Mouse
2,0,4,0,100,8,5,0,-360,220,140,135,0,500,200,8000,"[(512, 384), (512, 384), (512, 384), (512, 384), (512, 384), (512, 384), (512, 384), (512, 384), (512, 384), (512, 384), (512, 384), (512, 384), (512, 384), (512, 384), (512, 384), (512, 384), (512, 384), (512, 384), (512, 384), (512, 384), (512, 384), (520, 387), (533, 391), (547, 395), (585, 399), (600, 400), (613, 401), (631, 403), (649, 406), (689, 419), (703, 422), (715, 427), (733, 434), (740, 438), (749, 441), (755, 444)]",13.869686438505038,"[5, 7, 4, 6, 2, 1, 8, 9, 3]","(0, 0.25)",ENG008D,ENG,D,Chinese,Tue Oct 23 16:54:07 2018,Mouse
2,0,4,0,101,2,6,0,-1839,1779,60,136,0,500,200,8000,"[(512, 384), (512, 384), (512, 384), (512, 384), (512, 384), (512, 384), (512, 384), (512, 384), (512, 384), (512, 384), (512, 384), (512, 384), (512, 384), (512, 384), (512, 384), (512, 384), (512, 384), (512, 384), (512, 384), (512, 384), (512, 384), (512, 384), (512, 384), (512, 384), (512, 384), (512, 384), (512, 384), (512, 384), (512, 384), (512, 384), (512, 384), (512, 384), (512, 384), (512, 384), (512, 384), (512, 384), (512, 384), (512, 384), (512, 384), (512, 384), (512, 384), (512, 384), (512, 384), (512, 384), (512, 384), (512, 384), (512, 384), (512, 384), (512, 384), (512, 384), (512, 384), (512, 384), (512, 384), (512, 384), (512, 384), (512, 384), (512, 384), (512, 384), (512, 384), (512, 384), (512, 384), (512, 384), (512, 384), (512, 384), (512, 384), (512, 384), (512, 384), (512, 384), (512, 384), (512, 384), (512, 384), (512, 384), (512, 384), (512, 384), (512, 384), (512, 384), (512, 384), (512, 384), (512, 384), (512, 384), (512, 384), (512, 384), (512, 384), (512, 384), (512, 384), (512, 384), (512, 384), (512, 384), (512, 384), (512, 384), (512, 384), (512, 384), (512, 384), (512, 384), (512, 384), (512, 384), (512, 384), (512, 384), (512, 384), (512, 384), (512, 384), (512, 384), (512, 384), (512, 384), (512, 384), (512, 384), (512, 384), (512, 384), (512, 384), (512, 384), (512, 384), (512, 384), (512, 384), (512, 384), (512, 384), (512, 384), (512, 384), (512, 384), (512, 384), (512, 384), (512, 384), (512, 384), (512, 384), (512, 384), (512, 384), (512, 384), (512, 384), (512, 384), (512, 384), (512, 384), (512, 384), (512, 384), (512, 384), (512, 384), (512, 384), (512, 384), (512, 384), (512, 384), (512, 384), (512, 384), (512, 384), (512, 384), (512, 384), (512, 384), (512, 384), (512, 384), (512, 384), (512, 384), (512, 384), (512, 384), (512, 384), (512, 384), (512, 384), (512, 384), (512, 384), (512, 384), (512, 384), (512, 384), (512, 384), (512, 384), (512, 384), (512, 384), (512, 384), (512, 384), (512, 384), (512, 384), (512, 384), (512, 384), (512, 384), (512, 384), (512, 384), (512, 384), (512, 384), (512, 384), (512, 384), (512, 384), (512, 384), (510, 384), (498, 394), (475, 414), (406, 469), (367, 501), (331, 525), (295, 550)]",142.58484419312464,"[5, 7, 4, 6, 2, 1, 8, 9, 3]","(0, 0.25)",ENG008D,ENG,D,Chinese,Tue Oct 23 16:54:07 2018,Mouse
2,0,4,0,102,8,4,0,-298,218,80,137,0,500,200,8000,"[(512, 384), (512, 384), (512, 384), (512, 384), (512, 384), (512, 384), (512, 384), (512, 384), (512, 384), (512, 384), (512, 384), (512, 384), (512, 384), (512, 384), (512, 384), (512, 384), (512, 384), (512, 384), (512, 384), (512, 384), (512, 384), (510, 395), (504, 414), (497, 439), (487, 470), (466, 531), (459, 554), (452, 584), (449, 608), (448, 645)]",103.77769026126397,"[5, 7, 4, 6, 2, 1, 8, 9, 3]","(0, 0.25)",ENG008D,ENG,D,Chinese,Tue Oct 23 16:54:07 2018,Mouse
2,0,4,0,103,3,5,0,-296,236,60,138,0,500,200,8000,"[(512, 384), (512, 384), (512, 384), (512, 384), (512, 384), (512, 384), (512, 384), (512, 384), (512, 384), (512, 384), (512, 384), (512, 384), (512, 384), (512, 384), (512, 384), (512, 384), (512, 384), (512, 384), (512, 384), (512, 384), (512, 384), (512, 384), (512, 384), (518, 386), (556, 408), (585, 423), (618, 444), (651, 460), (720, 493), (763, 512)]",27.01977003877113,"[5, 7, 4, 6, 2, 1, 8, 9, 3]","(0, 0.25)",ENG008D,ENG,D,Chinese,Tue Oct 23 16:54:07 2018,Mouse
2,0,4,0,104,5,5,1,159,69,90,139,0,500,200,8000,"[(512, 384), (512, 384), (512, 384), (512, 384), (512, 384), (512, 384), (515, 384), (525, 387), (537, 392), (555, 397), (596, 411), (622, 421), (647, 431), (678, 441), (740, 462), (785, 477)]",18.811889302519145,"[5, 7, 4, 6, 2, 1, 8, 9, 3]","(0, 0.25)",ENG008D,ENG,D,Chinese,Tue Oct 23 16:54:07 2018,Mouse
2,0,4,0,105,5,5,1,169,109,60,139,0,500,200,8000,"[(512, 384), (512, 384), (512, 384), (512, 384), (512, 384), (512, 384), (512, 384), (512, 384), (512, 384), (512, 384), (519, 386), (538, 394), (561, 403), (621, 424), (666, 439), (702, 452), (750, 470)]",19.867045007086656,"[5, 7, 4, 6, 2, 1, 8, 9, 3]","(0, 0.25)",ENG008D,ENG,D,Chinese,Tue Oct 23 16:54:07 2018,Mouse
2,0,4,0,106,9,5,0,-729,639,90,138,0,500,200,8000,"[(512, 384), (512, 384), (512, 384), (512, 384), (512, 384), (512, 384), (512, 384), (512, 384), (512, 384), (512, 384), (512, 384), (512, 384), (512, 384), (512, 384), (512, 384), (512, 384), (512, 384), (512, 384), (512, 384), (512, 384), (512, 384), (512, 384), (512, 384), (512, 384), (512, 384), (512, 384), (512, 384), (512, 384), (512, 384), (512, 384), (512, 384), (512, 384), (512, 384), (512, 384), (512, 384), (512, 384), (512, 384), (512, 384), (512, 384), (512, 384), (512, 384), (512, 384), (512, 384), (512, 384), (512, 384), (512, 384), (512, 384), (512, 384), (512, 384), (512, 384), (512, 384), (512, 384), (512, 384), (512, 384), (512, 384), (512, 384), (512, 384), (512, 384), (512, 384), (512, 384), (512, 384), (512, 384), (512, 384), (515, 385), (544, 394), (573, 404), (605, 411), (638, 416), (665, 423), (711, 433), (730, 437), (752, 442), (805, 458)]",14.174194516397089,"[5, 7, 4, 6, 2, 1, 8, 9, 3]","(0, 0.25)",ENG008D,ENG,D,Chinese,Tue Oct 23 16:54:07 2018,Mouse
2,0,4,0,107,5,5,1,421,351,70,139,0,500,200,8000,"[(512, 384), (512, 384), (512, 384), (512, 384), (512, 384), (512, 384), (512, 384), (512, 384), (512, 384), (512, 384), (512, 384), (512, 384), (512, 384), (512, 384), (512, 384), (512, 384), (512, 384), (512, 384), (512, 384), (512, 384), (512, 384), (512, 384), (512, 384), (512, 384), (512, 384), (512, 384), (512, 384), (512, 384), (512, 384), (512, 384), (512, 384), (512, 384), (512, 384), (512, 384), (512, 384), (518, 386), (562, 417), (595, 440), (634, 463), (660, 476), (707, 496), (728, 505), (751, 515)]",28.727903266223052,"[5, 7, 4, 6, 2, 1, 8, 9, 3]","(0, 0.25)",ENG008D,ENG,D,Chinese,Tue Oct 23 16:54:07 2018,Mouse
2,0,4,0,108,1,1,1,759,489,270,139,0,500,200,8000,"[(512, 384), (512, 384), (512, 384), (512, 384), (512, 384), (512, 384), (512, 384), (512, 384), (512, 384), (512, 384), (512, 384), (512, 384), (512, 384), (512, 384), (512, 384), (512, 384), (512, 384), (512, 384), (512, 384), (512, 384), (512, 384), (512, 384), (512, 384), (512, 384), (512, 384), (512, 384), (512, 384), (512, 384), (512, 384), (512, 384), (512, 384), (512, 384), (512, 384), (512, 384), (512, 384), (512, 384), (512, 384), (512, 384), (512, 384), (512, 384), (512, 384), (512, 384), (512, 384), (512, 384), (512, 384), (512, 384), (512, 384), (512, 384), (511, 384), (506, 382), (502, 380), (496, 376), (488, 373), (475, 365), (466, 360), (456, 355), (447, 350), (431, 341), (426, 333), (418, 323), (409, 309), (390, 281), (381, 271), (374, 262), (368, 257), (359, 247), (354, 242), (348, 234), (344, 229), (339, 223), (338, 221), (336, 220), (335, 218), (332, 217), (329, 215), (325, 213)]",222.44099768230055,"[5, 7, 4, 6, 2, 1, 8, 9, 3]","(0, 0.25)",ENG008D,ENG,D,Chinese,Tue Oct 23 16:54:07 2018,Mouse
2,0,4,0,109,7,5,0,-508,448,60,138,0,500,200,8000,"[(512, 384), (512, 384), (512, 384), (512, 384), (512, 384), (512, 384), (512, 384), (512, 384), (512, 384), (512, 384), (512, 384), (512, 384), (512, 384), (512, 384), (512, 384), (512, 384), (512, 384), (512, 384), (512, 384), (512, 384), (512, 384), (512, 384), (512, 384), (512, 384), (512, 384), (512, 384), (512, 384), (512, 384), (512, 384), (512, 384), (512, 384), (512, 384), (512, 384), (512, 384), (512, 384), (512, 384), (512, 384), (512, 384), (512, 384), (512, 384), (512, 384), (512, 384), (512, 384), (512, 384), (515, 384), (530, 392), (607, 424), (655, 442), (700, 460), (741, 471), (824, 492)]",19.093492000485615,"[5, 7, 4, 6, 2, 1, 8, 9, 3]","(0, 0.25)",ENG008D,ENG,D,Chinese,Tue Oct 23 16:54:07 2018,Mouse
2,0,4,0,110,5,5,1,214,164,50,139,0,500,200,8000,"[(512, 384), (512, 384), (512, 384), (512, 384), (512, 384), (512, 384), (512, 384), (512, 384), (512, 384), (512, 384), (512, 384), (512, 384), (512, 384), (512, 384), (512, 384), (512, 384), (532, 395), (555, 404), (584, 416), (619, 432), (699, 464), (744, 484)]",23.31770838675507,"[5, 7, 4, 6, 2, 1, 8, 9, 3]","(0, 0.25)",ENG008D,ENG,D,Chinese,Tue Oct 23 16:54:07 2018,Mouse
2,0,4,0,111,8,8,1,2209,2159,50,139,0,500,200,8000,"[(512, 384), (512, 384), (512, 384), (512, 384), (512, 384), (512, 384), (512, 384), (512, 384), (512, 384), (512, 384), (512, 384), (512, 384), (512, 384), (512, 384), (512, 384), (512, 384), (512, 384), (512, 384), (512, 384), (512, 384), (512, 384), (512, 384), (512, 384), (512, 384), (512, 384), (512, 384), (512, 384), (512, 384), (512, 384), (512, 384), (512, 384), (512, 384), (512, 384), (512, 384), (512, 384), (512, 384), (512, 384), (512, 384), (512, 384), (512, 384), (512, 384), (512, 384), (512, 384), (512, 384), (512, 384), (512, 384), (512, 384), (512, 384), (512, 384), (512, 384), (512, 384), (512, 384), (512, 384), (512, 384), (512, 384), (512, 384), (512, 384), (512, 384), (512, 384), (512, 384), (512, 384), (512, 384), (512, 384), (512, 384), (512, 384), (512, 384), (512, 384), (512, 384), (512, 384), (512, 384), (512, 384), (512, 384), (512, 384), (512, 384), (512, 384), (512, 384), (512, 384), (512, 384), (512, 384), (512, 384), (512, 384), (512, 384), (512, 384), (512, 384), (512, 384), (512, 384), (512, 384), (512, 384), (512, 384), (512, 384), (512, 384), (512, 384), (512, 384), (512, 384), (512, 384), (512, 384), (512, 384), (512, 384), (512, 384), (512, 384), (512, 384), (512, 384), (512, 384), (512, 384), (512, 384), (512, 384), (512, 384), (512, 384), (512, 384), (512, 384), (512, 384), (512, 384), (512, 384), (512, 384), (512, 384), (512, 384), (512, 384), (512, 384), (512, 384), (512, 384), (512, 384), (512, 384), (512, 384), (512, 384), (512, 384), (512, 384), (512, 384), (512, 384), (512, 384), (512, 384), (512, 384), (512, 384), (512, 384), (512, 384), (512, 384), (512, 384), (512, 384), (512, 384), (512, 384), (512, 384), (512, 384), (512, 384), (512, 384), (512, 384), (512, 384), (512, 384), (512, 384), (512, 384), (512, 384), (512, 384), (512, 384), (512, 384), (512, 384), (512, 384), (512, 384), (512, 384), (512, 384), (512, 384), (512, 384), (512, 384), (512, 384), (512, 384), (512, 384), (512, 384), (512, 384), (512, 384), (512, 384), (512, 384), (512, 384), (512, 384), (512, 384), (512, 384), (512, 384), (512, 384), (512, 384), (512, 384), (512, 384), (512, 384), (512, 384), (512, 384), (512, 384), (512, 384), (512, 384), (512, 384), (512, 384), (512, 384), (512, 384), (512, 384), (512, 384), (512, 384), (512, 384), (512, 384), (512, 384), (512, 384), (512, 384), (512, 384), (512, 384), (512, 384), (512, 384), (512, 384), (512, 384), (512, 384), (512, 384), (512, 384), (512, 384), (512, 384), (512, 384), (512, 384), (512, 384), (512, 384), (512, 384), (512, 384), (512, 384), (512, 384), (512, 384), (512, 383), (512, 354), (502, 255), (486, 205), (473, 171), (458, 134)]",257.8113667980681,"[5, 7, 4, 6, 2, 1, 8, 9, 3]","(0, 0.25)",ENG008D,ENG,D,Chinese,Tue Oct 23 16:54:07 2018,Mouse
2,0,4,0,112,2,7,0,-222,142,80,138,0,500,200,8000,"[(512, 384), (512, 384), (512, 384), (512, 384), (512, 384), (512, 384), (512, 384), (512, 384), (512, 384), (512, 384), (512, 384), (512, 384), (512, 384), (512, 384), (513, 385), (521, 398), (528, 414), (550, 436), (562, 447), (582, 462), (603, 482), (664, 535), (696, 565)]",44.529086388805105,"[5, 7, 4, 6, 2, 1, 8, 9, 3]","(0, 0.25)",ENG008D,ENG,D,Chinese,Tue Oct 23 16:54:07 2018,Mouse
2,0,4,0,113,2,2,1,517,397,120,139,0,500,200,8000,"[(512, 384), (512, 384), (512, 384), (512, 384), (512, 384), (512, 384), (512, 384), (512, 384), (512, 384), (512, 384), (512, 384), (512, 384), (512, 384), (512, 384), (512, 384), (512, 384), (512, 384), (512, 384), (512, 384), (512, 384), (512, 384), (512, 384), (512, 384), (512, 384), (512, 384), (512, 384), (512, 384), (512, 384), (512, 384), (512, 384), (512, 384), (512, 384), (512, 384), (512, 384), (512, 384), (512, 384), (512, 384), (512, 384), (512, 384), (511, 384), (506, 383), (498, 383), (480, 384), (470, 385), (458, 385), (445, 385), (403, 388), (382, 387), (354, 387), (329, 387), (280, 385), (249, 381)]",180.6535356806778,"[5, 7, 4, 6, 2, 1, 8, 9, 3]","(0, 0.25)",ENG008D,ENG,D,Chinese,Tue Oct 23 16:54:07 2018,Mouse
2,0,4,0,114,9,9,1,389,299,90,139,0,500,200,8000,"[(512, 384), (512, 384), (512, 384), (512, 384), (512, 384), (512, 384), (512, 384), (512, 384), (512, 384), (512, 384), (512, 384), (512, 384), (512, 384), (512, 384), (512, 384), (512, 384), (512, 384), (512, 384), (512, 384), (512, 384), (512, 384), (512, 384), (512, 384), (512, 384), (512, 384), (512, 384), (512, 384), (512, 384), (512, 384), (514, 381), (528, 359), (543, 341), (551, 329), (559, 316), (586, 288), (607, 268), (634, 246), (658, 222), (705, 180)]",313.41286558627723,"[5, 7, 4, 6, 2, 1, 8, 9, 3]","(0, 0.25)",ENG008D,ENG,D,Chinese,Tue Oct 23 16:54:07 2018,Mouse
2,0,4,0,115,3,5,0,-277,207,70,138,0,500,200,8000,"[(512, 384), (512, 384), (512, 384), (512, 384), (512, 384), (512, 384), (512, 384), (512, 384), (512, 384), (512, 384), (512, 384), (512, 384), (512, 384), (512, 384), (512, 384), (512, 384), (512, 384), (512, 384), (512, 384), (512, 384), (516, 392), (526, 402), (543, 412), (568, 426), (632, 455), (669, 469), (714, 485), (758, 499)]",25.055133147291965,"[5, 7, 4, 6, 2, 1, 8, 9, 3]","(0, 0.25)",ENG008D,ENG,D,Chinese,Tue Oct 23 16:54:07 2018,Mouse
2,0,4,0,116,2,3,0,-2009,1949,60,139,0,500,200,8000,"[(512, 384), (512, 384), (512, 384), (512, 384), (512, 384), (512, 384), (512, 384), (512, 384), (512, 384), (512, 384), (512, 384), (512, 384), (512, 384), (512, 384), (512, 384), (512, 384), (512, 384), (512, 384), (512, 384), (512, 384), (512, 384), (512, 384), (512, 384), (512, 384), (512, 384), (512, 384), (512, 384), (512, 384), (512, 384), (512, 384), (512, 384), (512, 384), (512, 384), (512, 384), (512, 384), (512, 384), (512, 384), (512, 384), (512, 384), (512, 384), (512, 384), (512, 384), (512, 384), (512, 384), (512, 384), (512, 384), (512, 384), (512, 384), (512, 384), (512, 384), (512, 384), (512, 384), (512, 384), (512, 384), (512, 384), (512, 384), (512, 384), (512, 384), (512, 384), (512, 384), (512, 384), (512, 384), (512, 384), (512, 384), (512, 384), (512, 384), (512, 384), (512, 384), (512, 384), (512, 384), (512, 384), (512, 384), (512, 384), (512, 384), (512, 384), (512, 384), (512, 384), (512, 384), (512, 384), (512, 384), (512, 384), (512, 384), (512, 384), (512, 384), (512, 384), (512, 384), (512, 384), (512, 384), (512, 384), (512, 384), (512, 384), (512, 384), (512, 384), (512, 384), (512, 384), (512, 384), (512, 384), (512, 384), (512, 384), (512, 384), (512, 384), (512, 384), (512, 384), (512, 384), (512, 384), (512, 384), (512, 384), (512, 384), (512, 384), (512, 384), (512, 384), (512, 384), (512, 384), (512, 384), (512, 384), (512, 384), (512, 384), (512, 384), (512, 384), (512, 384), (512, 384), (512, 384), (512, 384), (512, 384), (512, 384), (512, 384), (512, 384), (512, 384), (512, 384), (512, 384), (512, 384), (512, 384), (512, 384), (512, 384), (512, 384), (512, 384), (512, 384), (512, 384), (512, 384), (512, 384), (512, 384), (512, 384), (512, 384), (512, 384), (512, 384), (512, 384), (512, 384), (512, 384), (512, 384), (512, 384), (512, 384), (512, 384), (512, 384), (512, 384), (512, 384), (512, 384), (512, 384), (512, 384), (512, 384), (512, 384), (512, 384), (512, 384), (512, 384), (512, 384), (512, 384), (512, 384), (512, 384), (512, 384), (512, 384), (512, 384), (512, 384), (512, 384), (512, 384), (512, 384), (512, 384), (512, 384), (512, 384), (512, 384), (512, 384), (512, 384), (512, 384), (512, 384), (512, 384), (512, 384), (512, 384), (512, 384), (512, 384), (512, 384), (512, 384), (512, 384), (512, 384), (512, 384), (512, 384), (512, 384), (518, 382), (535, 376), (594, 364), (630, 357), (670, 352), (753, 340), (798, 339)]",351.05823840968833,"[5, 7, 4, 6, 2, 1, 8, 9, 3]","(0, 0.25)",ENG008D,ENG,D,Chinese,Tue Oct 23 16:54:07 2018,Mouse
2,0,4,0,117,6,6,1,429,319,110,140,0,500,200,8000,"[(512, 384), (512, 384), (512, 384), (512, 384), (512, 384), (512, 384), (512, 384), (512, 384), (512, 384), (512, 384), (512, 384), (512, 384), (512, 384), (512, 384), (512, 384), (512, 384), (512, 384), (512, 384), (512, 384), (512, 384), (512, 384), (512, 384), (512, 384), (512, 384), (512, 384), (512, 384), (512, 384), (512, 384), (512, 384), (512, 384), (512, 384), (505, 390), (489, 403), (469, 416), (424, 447), (410, 456), (390, 473), (375, 487), (347, 509), (338, 519), (331, 526), (323, 532), (313, 545)]",141.02557500836667,"[5, 7, 4, 6, 2, 1, 8, 9, 3]","(0, 0.25)",ENG008D,ENG,D,Chinese,Tue Oct 23 16:54:07 2018,Mouse
2,0,4,0,118,7,7,1,419,199,220,140,0,500,200,8000,"[(512, 384), (512, 384), (512, 384), (512, 384), (512, 384), (512, 384), (512, 384), (512, 384), (512, 384), (512, 384), (512, 384), (512, 384), (512, 384), (512, 384), (512, 384), (512, 384), (512, 384), (512, 384), (512, 384), (513, 385), (514, 385), (514, 385), (514, 385), (514, 385), (514, 385), (514, 385), (514, 385), (515, 385), (517, 387), (521, 393), (525, 403), (537, 423), (542, 433), (545, 445), (549, 461), (562, 494), (569, 507), (580, 521), (589, 534), (626, 560), (652, 579), (670, 587)]",52.10548147768019,"[5, 7, 4, 6, 2, 1, 8, 9, 3]","(0, 0.25)",ENG008D,ENG,D,Chinese,Tue Oct 23 16:54:07 2018,Mouse
2,0,4,0,119,9,5,0,-299,199,100,139,0,500,200,8000,"[(512, 384), (512, 384), (512, 384), (512, 384), (512, 384), (512, 384), (512, 384), (512, 384), (512, 384), (512, 384), (512, 384), (512, 384), (512, 384), (512, 384), (512, 384), (512, 384), (512, 384), (512, 384), (512, 384), (513, 384), (513, 384), (517, 385), (522, 387), (531, 390), (543, 394), (581, 411), (610, 423), (644, 435), (682, 452), (769, 485)]",21.454633616046763,"[5, 7, 4, 6, 2, 1, 8, 9, 3]","(0, 0.25)",ENG008D,ENG,D,Chinese,Tue Oct 23 16:54:07 2018,Mouse
2,0,4,0,120,6,6,1,283,223,60,140,0,500,200,8000,"[(512, 384), (512, 384), (512, 384), (512, 384), (512, 384), (512, 384), (512, 384), (512, 384), (512, 384), (512, 384), (512, 384), (512, 384), (512, 384), (512, 384), (512, 384), (512, 384), (512, 384), (512, 384), (512, 384), (512, 384), (512, 384), (512, 384), (509, 388), (502, 398), (465, 438), (438, 461), (413, 481), (379, 504), (308, 547)]",141.37445955253756,"[5, 7, 4, 6, 2, 1, 8, 9, 3]","(0, 0.25)",ENG008D,ENG,D,Chinese,Tue Oct 23 16:54:07 2018,Mouse
