NativeLangNumber,LanuageNumber,SessionNumber,Block,TrialNum,ConditionNumber,Response,Accuracy,RT,MovementOnsetTime,TimeInMotion,SignalContrast,SignalContrastNumber,StimDisplayTime,MaskTime,MaxResponseTime,MousePositionXY,MouseAngle,WheelOrder,NoiseMuSigma,ParticipantID,LanuageTested,SessionTested,NativeLanuage,Date,ResponseDevice
2,0,1,0,1,8,8,1,636,577,59,153,0,500,200,8000,"[(512, 384), (512, 384), (512, 384), (512, 384), (512, 384), (512, 384), (512, 384), (512, 384), (512, 384), (512, 384), (512, 384), (512, 384), (512, 384), (512, 384), (512, 384), (512, 384), (512, 384), (512, 384), (512, 384), (512, 384), (512, 384), (512, 384), (512, 384), (512, 384), (512, 384), (512, 384), (512, 384), (512, 384), (512, 384), (512, 384), (512, 384), (512, 384), (512, 384), (512, 384), (512, 384), (512, 384), (512, 384), (512, 384), (512, 384), (512, 384), (512, 384), (512, 384), (512, 384), (512, 384), (512, 384), (512, 384), (512, 384), (512, 384), (512, 384), (512, 384), (512, 384), (512, 384), (512, 384), (512, 384), (512, 384), (512, 384), (512, 384), (512, 391), (531, 423), (546, 450), (561, 477), (578, 514), (598, 565), (639, 669)]",65.98157634142139,"[6, 8, 3, 9, 4, 2, 1, 7, 5]","(0, 0.25)",ENG007A,ENG,A,Chinese,Tue Oct  9 17:19:32 2018,Mouse
2,0,1,0,2,8,8,1,351,301,50,153,0,500,200,8000,"[(512, 384), (512, 384), (512, 384), (512, 384), (512, 384), (512, 384), (512, 384), (512, 384), (512, 384), (512, 384), (512, 384), (512, 384), (512, 384), (512, 384), (512, 384), (512, 384), (512, 384), (512, 384), (512, 384), (512, 384), (512, 384), (512, 384), (512, 384), (512, 384), (512, 384), (512, 384), (512, 384), (512, 384), (512, 384), (524, 401), (550, 451), (560, 480), (577, 520), (593, 555), (640, 637)]",63.163835170438205,"[6, 8, 3, 9, 4, 2, 1, 7, 5]","(0, 0.25)",ENG007A,ENG,A,Chinese,Tue Oct  9 17:19:32 2018,Mouse
2,0,1,0,3,1,1,1,363,323,40,152,0,500,200,8000,"[(512, 384), (512, 384), (512, 384), (512, 384), (512, 384), (512, 384), (512, 384), (512, 384), (512, 384), (512, 384), (512, 384), (512, 384), (512, 384), (512, 384), (512, 384), (512, 384), (512, 384), (512, 384), (512, 384), (512, 384), (512, 384), (512, 384), (512, 384), (512, 384), (512, 384), (512, 384), (512, 384), (512, 384), (512, 384), (512, 384), (512, 384), (512, 384), (502, 321), (486, 270), (470, 220), (445, 166), (408, 63)]",252.0483218302016,"[6, 8, 3, 9, 4, 2, 1, 7, 5]","(0, 0.25)",ENG007A,ENG,A,Chinese,Tue Oct  9 17:19:32 2018,Mouse
2,0,1,0,4,8,8,1,282,12,270,151,0,500,200,8000,"[(525, 406), (540, 426), (553, 441), (562, 454), (573, 470), (575, 471), (576, 472), (576, 472), (576, 472), (576, 472), (576, 472), (576, 472), (576, 472), (576, 472), (576, 472), (576, 472), (576, 472), (576, 472), (576, 472), (576, 472), (576, 472), (576, 472), (578, 472), (582, 475), (592, 490), (600, 504), (612, 525), (631, 560), (686, 638)]",55.58732131823714,"[6, 8, 3, 9, 4, 2, 1, 7, 5]","(0, 0.25)",ENG007A,ENG,A,Chinese,Tue Oct  9 17:19:32 2018,Mouse
2,0,1,0,5,2,2,1,321,281,40,150,0,500,200,8000,"[(512, 384), (512, 384), (512, 384), (512, 384), (512, 384), (512, 384), (512, 384), (512, 384), (512, 384), (512, 384), (512, 384), (512, 384), (512, 384), (512, 384), (512, 384), (512, 384), (512, 384), (512, 384), (512, 384), (512, 384), (512, 384), (512, 384), (512, 384), (512, 384), (512, 384), (512, 384), (512, 384), (512, 384), (504, 371), (468, 331), (427, 290), (373, 238), (258, 145)]",223.2572583465635,"[6, 8, 3, 9, 4, 2, 1, 7, 5]","(0, 0.25)",ENG007A,ENG,A,Chinese,Tue Oct  9 17:19:32 2018,Mouse
2,0,1,0,6,4,4,1,372,302,70,149,0,500,200,8000,"[(512, 384), (512, 384), (512, 384), (512, 384), (512, 384), (512, 384), (512, 384), (512, 384), (512, 384), (512, 384), (512, 384), (512, 384), (512, 384), (512, 384), (512, 384), (512, 384), (512, 384), (512, 384), (512, 384), (512, 384), (512, 384), (512, 384), (512, 384), (512, 384), (512, 384), (512, 384), (512, 384), (512, 384), (512, 384), (512, 384), (513, 384), (513, 386), (496, 389), (476, 389), (445, 389), (398, 389), (304, 389), (248, 389)]",178.9149823805026,"[6, 8, 3, 9, 4, 2, 1, 7, 5]","(0, 0.25)",ENG007A,ENG,A,Chinese,Tue Oct  9 17:19:32 2018,Mouse
2,0,1,0,7,7,7,1,362,312,50,148,0,500,200,8000,"[(512, 384), (512, 384), (512, 384), (512, 384), (512, 384), (512, 384), (512, 384), (512, 384), (512, 384), (512, 384), (512, 384), (512, 384), (512, 384), (512, 384), (512, 384), (512, 384), (512, 384), (512, 384), (512, 384), (512, 384), (512, 384), (512, 384), (512, 384), (512, 384), (512, 384), (512, 384), (512, 384), (512, 384), (512, 384), (512, 384), (512, 384), (519, 371), (526, 355), (540, 323), (555, 283), (601, 191), (631, 149)]",296.8568777512143,"[6, 8, 3, 9, 4, 2, 1, 7, 5]","(0, 0.25)",ENG007A,ENG,A,Chinese,Tue Oct  9 17:19:32 2018,Mouse
2,0,1,0,8,9,9,1,261,191,70,147,0,500,200,8000,"[(512, 384), (512, 384), (512, 384), (512, 384), (512, 384), (512, 384), (512, 384), (512, 384), (512, 384), (512, 384), (512, 384), (512, 384), (512, 384), (512, 384), (512, 384), (512, 384), (512, 384), (512, 384), (512, 384), (511, 384), (506, 384), (495, 390), (483, 398), (427, 437), (384, 478), (333, 527), (275, 587)]",139.41862046698918,"[6, 8, 3, 9, 4, 2, 1, 7, 5]","(0, 0.25)",ENG007A,ENG,A,Chinese,Tue Oct  9 17:19:32 2018,Mouse
2,0,1,0,9,9,9,1,333,42,291,146,0,500,200,8000,"[(512, 384), (512, 384), (512, 384), (512, 384), (512, 383), (512, 383), (512, 383), (512, 383), (512, 383), (512, 383), (512, 383), (512, 383), (512, 383), (512, 383), (512, 383), (512, 383), (512, 383), (512, 383), (512, 383), (512, 383), (512, 383), (512, 383), (512, 383), (512, 383), (512, 383), (512, 383), (512, 383), (512, 383), (512, 382), (488, 394), (461, 411), (428, 429), (382, 455), (278, 511)]",151.50976511459888,"[6, 8, 3, 9, 4, 2, 1, 7, 5]","(0, 0.25)",ENG007A,ENG,A,Chinese,Tue Oct  9 17:19:32 2018,Mouse
2,0,1,0,10,4,4,1,402,352,50,145,0,500,200,8000,"[(512, 384), (512, 384), (512, 384), (512, 384), (512, 384), (512, 384), (512, 384), (512, 384), (512, 384), (512, 384), (512, 384), (512, 384), (512, 384), (512, 384), (512, 384), (512, 384), (512, 384), (512, 384), (512, 384), (512, 384), (512, 384), (512, 384), (512, 384), (512, 384), (512, 384), (512, 384), (512, 384), (512, 384), (512, 384), (512, 384), (512, 384), (512, 384), (512, 384), (512, 384), (512, 384), (510, 384), (448, 374), (389, 366), (326, 355), (267, 349), (148, 333)]",187.97578550660148,"[6, 8, 3, 9, 4, 2, 1, 7, 5]","(0, 0.25)",ENG007A,ENG,A,Chinese,Tue Oct  9 17:19:32 2018,Mouse
2,0,1,0,11,6,6,1,455,435,20,144,0,500,200,8000,"[(512, 384), (512, 384), (512, 384), (512, 384), (512, 384), (512, 384), (512, 384), (512, 384), (512, 384), (512, 384), (512, 384), (512, 384), (512, 384), (512, 384), (512, 384), (512, 384), (512, 384), (512, 384), (512, 384), (512, 384), (512, 384), (512, 384), (512, 384), (512, 384), (512, 384), (512, 384), (512, 384), (512, 384), (512, 384), (512, 384), (512, 384), (512, 384), (512, 384), (512, 384), (512, 384), (512, 384), (512, 384), (512, 384), (512, 384), (512, 384), (512, 384), (512, 384), (512, 384), (568, 421), (647, 472), (732, 513)]",30.385809293679465,"[6, 8, 3, 9, 4, 2, 1, 7, 5]","(0, 0.25)",ENG007A,ENG,A,Chinese,Tue Oct  9 17:19:32 2018,Mouse
2,0,1,0,12,2,2,1,352,292,60,143,0,500,200,8000,"[(512, 384), (512, 384), (512, 384), (512, 384), (512, 384), (512, 384), (512, 384), (512, 384), (512, 384), (512, 384), (512, 384), (512, 384), (512, 384), (512, 384), (512, 384), (512, 384), (512, 384), (512, 384), (512, 384), (512, 384), (512, 384), (512, 384), (512, 384), (512, 384), (512, 384), (512, 384), (512, 384), (512, 384), (512, 384), (510, 383), (502, 372), (494, 359), (478, 338), (451, 299), (356, 192), (285, 121)]",229.20193635815963,"[6, 8, 3, 9, 4, 2, 1, 7, 5]","(0, 0.25)",ENG007A,ENG,A,Chinese,Tue Oct  9 17:19:32 2018,Mouse
2,0,1,0,13,8,8,1,392,372,20,142,0,500,200,8000,"[(512, 384), (512, 384), (512, 384), (512, 384), (512, 384), (512, 384), (512, 384), (512, 384), (512, 384), (512, 384), (512, 384), (512, 384), (512, 384), (512, 384), (512, 384), (512, 384), (512, 384), (512, 384), (512, 384), (512, 384), (512, 384), (512, 384), (512, 384), (512, 384), (512, 384), (512, 384), (512, 384), (512, 384), (512, 384), (512, 384), (512, 384), (512, 384), (512, 384), (512, 384), (512, 384), (512, 384), (512, 384), (527, 406), (566, 469), (694, 641)]",54.6949726734407,"[6, 8, 3, 9, 4, 2, 1, 7, 5]","(0, 0.25)",ENG007A,ENG,A,Chinese,Tue Oct  9 17:19:32 2018,Mouse
2,0,1,0,14,8,8,1,72,32,40,141,0,500,200,8000,"[(512, 384), (512, 384), (512, 384), (512, 388), (535, 458), (561, 507), (593, 565), (622, 614)]",64.4400348281762,"[6, 8, 3, 9, 4, 2, 1, 7, 5]","(0, 0.25)",ENG007A,ENG,A,Chinese,Tue Oct  9 17:19:32 2018,Mouse
2,0,1,0,15,7,5,0,-291,251,40,140,0,500,200,8000,"[(512, 384), (512, 384), (512, 384), (512, 384), (512, 384), (512, 384), (512, 384), (512, 384), (512, 384), (512, 384), (512, 384), (512, 384), (512, 384), (512, 384), (512, 384), (512, 384), (512, 384), (512, 384), (512, 384), (512, 384), (512, 384), (512, 384), (512, 384), (512, 384), (512, 384), (523, 370), (552, 345), (591, 317), (636, 287), (725, 220)]",322.40541759894154,"[6, 8, 3, 9, 4, 2, 1, 7, 5]","(0, 0.25)",ENG007A,ENG,A,Chinese,Tue Oct  9 17:19:32 2018,Mouse
2,0,1,0,16,5,5,1,263,223,40,141,0,500,200,8000,"[(512, 384), (512, 384), (512, 384), (512, 384), (512, 384), (512, 384), (512, 384), (512, 384), (512, 384), (512, 384), (512, 384), (512, 384), (512, 384), (512, 384), (512, 384), (512, 384), (512, 384), (512, 384), (512, 384), (512, 384), (512, 384), (512, 384), (512, 383), (520, 378), (632, 343), (718, 318), (821, 302)]",345.13785030314335,"[6, 8, 3, 9, 4, 2, 1, 7, 5]","(0, 0.25)",ENG007A,ENG,A,Chinese,Tue Oct  9 17:19:32 2018,Mouse
2,0,1,0,17,4,2,0,-415,335,80,141,0,500,200,8000,"[(512, 384), (512, 384), (512, 384), (512, 384), (512, 384), (512, 384), (512, 384), (512, 384), (512, 384), (512, 384), (512, 384), (512, 384), (512, 384), (512, 384), (512, 384), (512, 384), (512, 384), (512, 384), (512, 384), (512, 384), (512, 384), (512, 384), (512, 384), (512, 384), (512, 384), (512, 384), (512, 384), (512, 384), (512, 384), (512, 384), (512, 384), (512, 384), (512, 384), (512, 383), (512, 383), (511, 382), (505, 380), (482, 373), (457, 365), (425, 353), (377, 335), (280, 289)]",202.26825365464873,"[6, 8, 3, 9, 4, 2, 1, 7, 5]","(0, 0.25)",ENG007A,ENG,A,Chinese,Tue Oct  9 17:19:32 2018,Mouse
2,0,1,0,18,2,2,1,302,262,40,142,0,500,200,8000,"[(512, 384), (512, 384), (512, 384), (512, 384), (512, 384), (512, 384), (512, 384), (512, 384), (512, 384), (512, 384), (512, 384), (512, 384), (512, 384), (512, 384), (512, 384), (512, 384), (512, 384), (512, 384), (512, 384), (512, 384), (512, 384), (512, 384), (512, 384), (512, 384), (512, 384), (512, 384), (512, 383), (498, 354), (421, 258), (348, 197), (274, 128)]",227.08677727557077,"[6, 8, 3, 9, 4, 2, 1, 7, 5]","(0, 0.25)",ENG007A,ENG,A,Chinese,Tue Oct  9 17:19:32 2018,Mouse
2,0,1,0,19,8,8,1,732,402,330,142,0,500,200,8000,"[(512, 384), (512, 384), (512, 384), (512, 384), (512, 384), (512, 384), (512, 384), (512, 384), (512, 384), (512, 384), (512, 384), (512, 384), (512, 384), (512, 384), (512, 384), (512, 384), (512, 384), (512, 384), (512, 384), (512, 384), (512, 384), (512, 384), (512, 384), (512, 384), (512, 384), (512, 384), (512, 384), (512, 384), (512, 384), (512, 384), (512, 384), (512, 384), (512, 384), (512, 384), (512, 384), (512, 384), (512, 384), (512, 384), (512, 384), (512, 384), (513, 385), (511, 386), (507, 388), (506, 388), (504, 389), (504, 389), (504, 389), (504, 389), (504, 389), (504, 389), (504, 389), (504, 389), (504, 389), (504, 389), (504, 389), (504, 389), (504, 389), (504, 389), (504, 389), (504, 389), (504, 389), (504, 389), (504, 389), (504, 389), (504, 389), (504, 389), (508, 390), (510, 392), (518, 398), (527, 404), (569, 457), (604, 507), (639, 573), (682, 652)]",57.61188514659909,"[6, 8, 3, 9, 4, 2, 1, 7, 5]","(0, 0.25)",ENG007A,ENG,A,Chinese,Tue Oct  9 17:19:32 2018,Mouse
2,0,1,0,20,2,2,1,322,292,30,141,0,500,200,8000,"[(512, 384), (512, 384), (512, 384), (512, 384), (512, 384), (512, 384), (512, 384), (512, 384), (512, 384), (512, 384), (512, 384), (512, 384), (512, 384), (512, 384), (512, 384), (512, 384), (512, 384), (512, 384), (512, 384), (512, 384), (512, 384), (512, 384), (512, 384), (512, 384), (512, 384), (512, 384), (512, 384), (512, 384), (512, 384), (489, 361), (449, 327), (382, 273), (299, 206)]",219.88485486940047,"[6, 8, 3, 9, 4, 2, 1, 7, 5]","(0, 0.25)",ENG007A,ENG,A,Chinese,Tue Oct  9 17:19:32 2018,Mouse
2,0,1,0,21,2,2,1,244,204,40,140,0,500,200,8000,"[(512, 384), (512, 384), (512, 384), (512, 384), (512, 384), (512, 384), (512, 384), (512, 384), (512, 384), (512, 384), (512, 384), (512, 384), (512, 384), (512, 384), (512, 384), (512, 384), (512, 384), (512, 384), (512, 384), (512, 384), (502, 379), (481, 371), (446, 355), (376, 328), (197, 250)]",203.04474720995162,"[6, 8, 3, 9, 4, 2, 1, 7, 5]","(0, 0.25)",ENG007A,ENG,A,Chinese,Tue Oct  9 17:19:32 2018,Mouse
2,0,1,0,22,1,1,1,411,371,40,139,0,500,200,8000,"[(512, 384), (512, 384), (512, 384), (512, 384), (512, 384), (512, 384), (512, 384), (512, 384), (512, 384), (512, 384), (512, 384), (512, 384), (512, 384), (512, 384), (512, 384), (512, 384), (512, 384), (512, 384), (512, 384), (512, 384), (512, 384), (512, 384), (512, 384), (512, 384), (512, 384), (512, 384), (512, 384), (512, 384), (512, 384), (512, 384), (512, 384), (512, 384), (512, 384), (512, 384), (512, 384), (512, 384), (512, 384), (511, 383), (511, 371), (511, 337), (507, 215), (498, 133)]",266.807527387068,"[6, 8, 3, 9, 4, 2, 1, 7, 5]","(0, 0.25)",ENG007A,ENG,A,Chinese,Tue Oct  9 17:19:32 2018,Mouse
2,0,1,0,23,1,1,1,383,193,190,138,0,500,200,8000,"[(512, 384), (512, 384), (512, 384), (512, 384), (512, 384), (512, 384), (512, 384), (512, 384), (512, 384), (512, 384), (512, 384), (512, 384), (512, 384), (512, 384), (512, 384), (512, 384), (512, 384), (512, 384), (512, 384), (512, 391), (512, 394), (512, 398), (515, 405), (520, 414), (524, 419), (528, 425), (530, 427), (531, 431), (532, 432), (532, 432), (532, 432), (532, 433), (533, 433), (534, 433), (535, 422), (534, 347), (524, 287), (504, 213), (473, 135)]",261.098283967108,"[6, 8, 3, 9, 4, 2, 1, 7, 5]","(0, 0.25)",ENG007A,ENG,A,Chinese,Tue Oct  9 17:19:32 2018,Mouse
2,0,1,0,24,4,4,1,432,212,220,137,0,500,200,8000,"[(512, 384), (512, 384), (512, 384), (512, 384), (512, 384), (512, 384), (512, 384), (512, 384), (512, 384), (512, 384), (512, 384), (512, 384), (512, 384), (512, 384), (512, 384), (512, 384), (512, 384), (512, 384), (512, 384), (512, 384), (512, 384), (513, 384), (513, 384), (513, 384), (513, 384), (513, 384), (513, 384), (513, 384), (513, 384), (513, 384), (513, 385), (513, 385), (512, 386), (507, 388), (506, 389), (502, 390), (500, 391), (490, 398), (482, 403), (465, 411), (445, 420), (357, 438), (301, 442), (226, 444)]",168.15173376158558,"[6, 8, 3, 9, 4, 2, 1, 7, 5]","(0, 0.25)",ENG007A,ENG,A,Chinese,Tue Oct  9 17:19:32 2018,Mouse
2,0,1,0,25,2,1,0,-621,301,320,136,0,500,200,8000,"[(512, 384), (512, 384), (512, 384), (512, 384), (512, 384), (512, 384), (512, 384), (512, 384), (512, 384), (512, 384), (512, 384), (512, 384), (512, 384), (512, 384), (512, 384), (512, 384), (512, 384), (512, 384), (512, 384), (512, 384), (512, 384), (512, 384), (512, 384), (512, 384), (512, 384), (512, 384), (512, 384), (512, 384), (512, 384), (512, 384), (515, 382), (515, 382), (515, 381), (516, 381), (518, 380), (518, 380), (518, 380), (518, 380), (518, 380), (518, 380), (518, 379), (518, 376), (517, 371), (517, 370), (516, 370), (516, 370), (516, 370), (516, 370), (515, 370), (514, 370), (512, 370), (512, 370), (511, 369), (511, 368), (508, 360), (508, 357), (508, 351), (505, 340), (500, 301), (493, 266), (489, 215), (489, 157), (473, 41)]",263.5131783003368,"[6, 8, 3, 9, 4, 2, 1, 7, 5]","(0, 0.25)",ENG007A,ENG,A,Chinese,Tue Oct  9 17:19:32 2018,Mouse
2,0,1,0,26,6,6,1,601,261,340,137,0,500,200,8000,"[(512, 384), (512, 384), (512, 384), (512, 384), (512, 384), (512, 384), (512, 384), (512, 384), (512, 384), (512, 384), (512, 384), (512, 384), (512, 384), (512, 384), (512, 384), (512, 384), (512, 384), (512, 384), (512, 384), (512, 384), (512, 384), (512, 384), (512, 384), (512, 384), (512, 384), (512, 384), (514, 383), (517, 383), (528, 376), (533, 372), (538, 369), (544, 363), (552, 357), (558, 354), (559, 353), (559, 353), (559, 353), (559, 353), (559, 353), (559, 353), (559, 353), (559, 353), (559, 353), (559, 353), (559, 353), (559, 353), (560, 353), (559, 353), (559, 353), (559, 353), (559, 353), (559, 353), (558, 354), (558, 356), (558, 357), (558, 360), (574, 381), (600, 406), (648, 446), (699, 486), (854, 588)]",30.815705751729187,"[6, 8, 3, 9, 4, 2, 1, 7, 5]","(0, 0.25)",ENG007A,ENG,A,Chinese,Tue Oct  9 17:19:32 2018,Mouse
2,0,1,0,27,5,5,1,1106,276,830,137,0,500,200,8000,"[(512, 384), (512, 384), (512, 384), (512, 384), (512, 384), (512, 384), (512, 384), (512, 384), (512, 384), (512, 384), (512, 384), (512, 384), (512, 384), (512, 384), (512, 384), (512, 384), (512, 384), (512, 384), (512, 384), (512, 384), (512, 384), (512, 384), (512, 384), (512, 384), (512, 384), (512, 384), (512, 384), (503, 377), (496, 375), (487, 371), (480, 367), (465, 363), (462, 363), (460, 362), (459, 362), (456, 360), (456, 360), (455, 359), (455, 359), (455, 359), (455, 359), (455, 359), (455, 359), (455, 359), (455, 359), (455, 359), (455, 359), (455, 359), (455, 359), (455, 359), (455, 359), (455, 359), (455, 359), (455, 359), (455, 359), (455, 359), (455, 359), (455, 359), (455, 359), (455, 359), (455, 359), (455, 359), (455, 359), (455, 359), (455, 359), (455, 359), (455, 359), (455, 359), (455, 359), (455, 359), (455, 359), (455, 359), (455, 359), (455, 359), (455, 359), (455, 359), (455, 359), (455, 359), (455, 359), (455, 359), (455, 359), (455, 359), (455, 359), (455, 359), (455, 359), (455, 359), (455, 359), (455, 359), (455, 359), (455, 359), (455, 359), (455, 359), (455, 359), (455, 359), (455, 359), (455, 359), (455, 359), (455, 359), (455, 359), (455, 359), (455, 359), (455, 359), (455, 359), (455, 359), (455, 359), (455, 359), (456, 359), (576, 355), (662, 346), (755, 334), (845, 316)]",348.458637476702,"[6, 8, 3, 9, 4, 2, 1, 7, 5]","(0, 0.25)",ENG007A,ENG,A,Chinese,Tue Oct  9 17:19:32 2018,Mouse
2,0,1,0,28,4,3,0,-816,296,520,136,0,500,200,8000,"[(512, 384), (512, 384), (512, 384), (512, 384), (512, 384), (512, 384), (512, 384), (512, 384), (512, 384), (512, 384), (512, 384), (512, 384), (512, 384), (512, 384), (512, 384), (512, 384), (512, 384), (512, 384), (512, 384), (512, 384), (512, 384), (512, 384), (512, 384), (512, 384), (512, 384), (512, 384), (512, 384), (512, 384), (512, 384), (513, 383), (513, 383), (513, 383), (513, 383), (513, 383), (513, 383), (513, 383), (513, 383), (513, 383), (513, 383), (513, 383), (513, 383), (513, 383), (513, 383), (513, 383), (513, 383), (513, 383), (513, 383), (513, 383), (513, 383), (513, 383), (513, 383), (513, 383), (513, 383), (513, 383), (513, 383), (513, 383), (513, 383), (513, 383), (513, 383), (513, 383), (513, 383), (513, 383), (513, 383), (513, 383), (513, 383), (513, 383), (513, 383), (513, 383), (513, 383), (513, 383), (513, 383), (513, 383), (513, 383), (513, 388), (513, 398), (511, 410), (502, 441), (493, 459), (486, 482), (479, 512), (449, 607), (430, 650)]",107.13299615034315,"[6, 8, 3, 9, 4, 2, 1, 7, 5]","(0, 0.25)",ENG007A,ENG,A,Chinese,Tue Oct  9 17:19:32 2018,Mouse
2,0,1,0,29,7,7,1,537,377,160,137,0,500,200,8000,"[(512, 384), (512, 384), (512, 384), (512, 384), (512, 384), (512, 384), (512, 384), (512, 384), (512, 384), (512, 384), (512, 384), (512, 384), (512, 384), (512, 384), (512, 384), (512, 384), (512, 384), (512, 384), (512, 384), (512, 384), (512, 384), (512, 384), (512, 384), (512, 384), (512, 384), (512, 384), (512, 384), (512, 384), (512, 384), (512, 384), (512, 384), (512, 384), (512, 384), (512, 384), (512, 384), (512, 384), (512, 384), (511, 382), (509, 380), (508, 379), (505, 378), (505, 377), (505, 376), (505, 374), (505, 369), (505, 353), (507, 343), (512, 330), (515, 315), (535, 263), (552, 226), (565, 189), (584, 146), (623, 63)]",289.07509849244553,"[6, 8, 3, 9, 4, 2, 1, 7, 5]","(0, 0.25)",ENG007A,ENG,A,Chinese,Tue Oct  9 17:19:32 2018,Mouse
2,0,1,0,30,3,8,0,-1202,972,230,137,0,500,200,8000,"[(512, 384), (512, 384), (512, 384), (512, 384), (512, 384), (512, 384), (512, 384), (512, 384), (512, 384), (512, 384), (512, 384), (512, 384), (512, 384), (512, 384), (512, 384), (512, 384), (512, 384), (512, 384), (512, 384), (512, 384), (512, 384), (512, 384), (512, 384), (512, 384), (512, 384), (512, 384), (512, 384), (512, 384), (512, 384), (512, 384), (512, 384), (512, 384), (512, 384), (512, 384), (512, 384), (512, 384), (512, 384), (512, 384), (512, 384), (512, 384), (512, 384), (512, 384), (512, 384), (512, 384), (512, 384), (512, 384), (512, 384), (512, 384), (512, 384), (512, 384), (512, 384), (512, 384), (512, 384), (512, 384), (512, 384), (512, 384), (512, 384), (512, 384), (512, 384), (512, 384), (512, 384), (512, 384), (512, 384), (512, 384), (512, 384), (512, 384), (512, 384), (512, 384), (512, 384), (512, 384), (512, 384), (512, 384), (512, 384), (512, 384), (512, 384), (512, 384), (512, 384), (512, 384), (512, 384), (512, 384), (512, 384), (512, 384), (512, 384), (512, 384), (512, 384), (512, 384), (512, 384), (512, 384), (512, 384), (512, 384), (512, 384), (512, 384), (512, 384), (512, 384), (512, 384), (512, 384), (512, 384), (513, 384), (514, 386), (515, 387), (517, 388), (518, 388), (518, 388), (518, 388), (518, 388), (518, 388), (518, 388), (518, 388), (518, 388), (518, 388), (518, 388), (518, 388), (518, 388), (518, 388), (519, 389), (523, 393), (535, 412), (555, 443), (592, 491), (633, 544), (725, 669)]",53.22672246410817,"[6, 8, 3, 9, 4, 2, 1, 7, 5]","(0, 0.25)",ENG007A,ENG,A,Chinese,Tue Oct  9 17:19:32 2018,Mouse
2,0,1,0,31,1,1,1,371,121,250,138,0,500,200,8000,"[(512, 384), (512, 384), (512, 384), (512, 384), (512, 384), (512, 384), (512, 384), (512, 384), (512, 384), (512, 384), (512, 384), (512, 384), (512, 383), (509, 376), (504, 371), (496, 366), (484, 360), (481, 360), (481, 360), (481, 360), (481, 360), (481, 360), (481, 360), (481, 360), (481, 360), (481, 360), (481, 360), (481, 360), (481, 360), (481, 360), (481, 360), (479, 358), (479, 337), (479, 322), (479, 299), (479, 269), (477, 160), (477, 105)]",262.8497098196924,"[6, 8, 3, 9, 4, 2, 1, 7, 5]","(0, 0.25)",ENG007A,ENG,A,Chinese,Tue Oct  9 17:19:32 2018,Mouse
2,0,1,0,32,5,5,1,421,311,110,138,0,500,200,8000,"[(512, 384), (512, 384), (512, 384), (512, 384), (512, 384), (512, 384), (512, 384), (512, 384), (512, 384), (512, 384), (512, 384), (512, 384), (512, 384), (512, 384), (512, 384), (512, 384), (512, 384), (512, 384), (512, 384), (512, 384), (512, 384), (512, 384), (512, 384), (512, 384), (512, 384), (512, 384), (512, 384), (512, 384), (512, 384), (512, 384), (512, 384), (511, 384), (510, 384), (510, 384), (510, 384), (509, 384), (509, 384), (509, 384), (511, 384), (588, 362), (663, 338), (743, 316), (826, 291)]",343.50185156329906,"[6, 8, 3, 9, 4, 2, 1, 7, 5]","(0, 0.25)",ENG007A,ENG,A,Chinese,Tue Oct  9 17:19:32 2018,Mouse
2,0,1,0,33,4,4,1,372,302,70,137,0,500,200,8000,"[(512, 384), (512, 384), (512, 384), (512, 384), (512, 384), (512, 384), (512, 384), (512, 384), (512, 384), (512, 384), (512, 384), (512, 384), (512, 384), (512, 384), (512, 384), (512, 384), (512, 384), (512, 384), (512, 384), (512, 384), (512, 384), (512, 384), (512, 384), (512, 384), (512, 384), (512, 384), (512, 384), (512, 384), (512, 384), (512, 384), (511, 384), (507, 385), (500, 387), (474, 388), (448, 388), (404, 388), (360, 388), (243, 388)]",179.1480809350948,"[6, 8, 3, 9, 4, 2, 1, 7, 5]","(0, 0.25)",ENG007A,ENG,A,Chinese,Tue Oct  9 17:19:32 2018,Mouse
2,0,1,0,34,5,8,0,-593,553,40,136,0,500,200,8000,"[(512, 384), (512, 384), (512, 384), (512, 384), (512, 384), (512, 384), (512, 384), (512, 384), (512, 384), (512, 384), (512, 384), (512, 384), (512, 384), (512, 384), (512, 384), (512, 384), (512, 384), (512, 384), (512, 384), (512, 384), (512, 384), (512, 384), (512, 384), (512, 384), (512, 384), (512, 384), (512, 384), (512, 384), (512, 384), (512, 384), (512, 384), (512, 384), (512, 384), (512, 384), (512, 384), (512, 384), (512, 384), (512, 384), (512, 384), (512, 384), (512, 384), (512, 384), (512, 384), (512, 384), (512, 384), (512, 384), (512, 384), (512, 384), (512, 384), (512, 384), (512, 384), (512, 384), (512, 384), (512, 384), (512, 384), (517, 387), (529, 402), (548, 440), (573, 505), (622, 663)]",68.48240629511335,"[6, 8, 3, 9, 4, 2, 1, 7, 5]","(0, 0.25)",ENG007A,ENG,A,Chinese,Tue Oct  9 17:19:32 2018,Mouse
2,0,1,0,35,3,3,1,1133,523,610,137,0,500,200,8000,"[(512, 384), (512, 384), (512, 384), (512, 384), (512, 384), (512, 384), (512, 384), (512, 384), (512, 384), (512, 384), (512, 384), (512, 384), (512, 384), (512, 384), (512, 384), (512, 384), (512, 384), (512, 384), (512, 384), (512, 384), (512, 384), (512, 384), (512, 384), (512, 384), (512, 384), (512, 384), (512, 384), (512, 384), (512, 384), (512, 384), (512, 384), (512, 384), (512, 384), (512, 384), (512, 384), (512, 384), (512, 384), (512, 384), (512, 384), (512, 384), (512, 384), (512, 384), (512, 384), (512, 384), (512, 384), (512, 384), (512, 384), (512, 384), (512, 384), (512, 384), (512, 384), (512, 384), (513, 383), (513, 383), (513, 383), (513, 383), (513, 383), (513, 383), (513, 383), (513, 383), (513, 383), (513, 383), (513, 383), (513, 383), (513, 383), (513, 383), (513, 383), (513, 383), (513, 383), (513, 383), (513, 383), (513, 383), (513, 383), (513, 383), (513, 383), (513, 383), (513, 383), (513, 383), (513, 383), (513, 383), (513, 383), (513, 383), (513, 383), (513, 383), (513, 383), (513, 383), (513, 383), (513, 383), (513, 383), (513, 383), (513, 383), (513, 383), (513, 383), (513, 383), (513, 383), (513, 383), (513, 383), (513, 383), (513, 383), (513, 383), (513, 383), (513, 383), (513, 383), (513, 383), (513, 383), (513, 383), (513, 383), (513, 383), (514, 393), (514, 413), (505, 457), (488, 500), (436, 605), (408, 665)]",110.30985393213503,"[6, 8, 3, 9, 4, 2, 1, 7, 5]","(0, 0.25)",ENG007A,ENG,A,Chinese,Tue Oct  9 17:19:32 2018,Mouse
2,0,1,0,36,4,4,1,642,232,410,137,0,500,200,8000,"[(512, 384), (512, 384), (512, 384), (512, 384), (512, 384), (512, 384), (512, 384), (512, 384), (512, 384), (512, 384), (512, 384), (512, 384), (512, 384), (512, 384), (512, 384), (512, 384), (512, 384), (512, 384), (512, 384), (512, 384), (512, 384), (512, 384), (512, 384), (513, 382), (513, 382), (513, 382), (514, 382), (514, 382), (514, 382), (514, 382), (514, 382), (514, 382), (514, 382), (514, 382), (514, 382), (514, 382), (514, 382), (514, 382), (514, 382), (514, 382), (514, 382), (514, 382), (514, 382), (514, 382), (514, 382), (514, 382), (514, 382), (514, 382), (514, 382), (514, 382), (514, 382), (514, 382), (514, 382), (514, 382), (514, 382), (514, 382), (512, 380), (506, 380), (499, 379), (479, 377), (466, 374), (445, 371), (402, 364), (309, 348), (247, 342)]",189.00593165639603,"[6, 8, 3, 9, 4, 2, 1, 7, 5]","(0, 0.25)",ENG007A,ENG,A,Chinese,Tue Oct  9 17:19:32 2018,Mouse
2,0,1,0,37,8,8,1,552,292,260,136,0,500,200,8000,"[(512, 384), (512, 384), (512, 384), (512, 384), (512, 384), (512, 384), (512, 384), (512, 384), (512, 384), (512, 384), (512, 384), (512, 384), (512, 384), (512, 384), (512, 384), (512, 384), (512, 384), (512, 384), (512, 384), (512, 384), (512, 384), (512, 384), (512, 384), (512, 384), (512, 384), (512, 384), (512, 384), (512, 384), (512, 384), (513, 384), (513, 384), (513, 384), (513, 384), (513, 384), (513, 384), (513, 384), (513, 384), (513, 384), (513, 384), (513, 384), (513, 384), (513, 384), (513, 384), (513, 384), (513, 384), (513, 384), (513, 384), (513, 384), (513, 384), (513, 384), (513, 384), (514, 387), (519, 395), (541, 421), (584, 462), (726, 577)]",42.046325995103174,"[6, 8, 3, 9, 4, 2, 1, 7, 5]","(0, 0.25)",ENG007A,ENG,A,Chinese,Tue Oct  9 17:19:32 2018,Mouse
2,0,1,0,38,6,6,1,522,462,60,135,0,500,200,8000,"[(512, 384), (512, 384), (512, 384), (512, 384), (512, 384), (512, 384), (512, 384), (512, 384), (512, 384), (512, 384), (512, 384), (512, 384), (512, 384), (512, 384), (512, 384), (512, 384), (512, 384), (512, 384), (512, 384), (512, 384), (512, 384), (512, 384), (512, 384), (512, 384), (512, 384), (512, 384), (512, 384), (512, 384), (512, 384), (512, 384), (512, 384), (512, 384), (512, 384), (512, 384), (512, 384), (512, 384), (512, 384), (512, 384), (512, 384), (512, 384), (512, 384), (512, 384), (512, 384), (512, 384), (512, 384), (512, 384), (513, 384), (521, 384), (566, 392), (623, 402), (678, 410), (746, 421), (886, 455)]",10.749095254940599,"[6, 8, 3, 9, 4, 2, 1, 7, 5]","(0, 0.25)",ENG007A,ENG,A,Chinese,Tue Oct  9 17:19:32 2018,Mouse
2,0,1,0,39,9,6,0,-412,372,40,134,0,500,200,8000,"[(512, 384), (512, 384), (512, 384), (512, 384), (512, 384), (512, 384), (512, 384), (512, 384), (512, 384), (512, 384), (512, 384), (512, 384), (512, 384), (512, 384), (512, 384), (512, 384), (512, 384), (512, 384), (512, 384), (512, 384), (512, 384), (512, 384), (512, 384), (512, 384), (512, 384), (512, 384), (512, 384), (512, 384), (512, 384), (512, 384), (512, 384), (512, 384), (512, 384), (512, 384), (512, 384), (512, 384), (512, 384), (521, 389), (556, 407), (612, 428), (724, 468), (773, 477)]",19.612093708904073,"[6, 8, 3, 9, 4, 2, 1, 7, 5]","(0, 0.25)",ENG007A,ENG,A,Chinese,Tue Oct  9 17:19:32 2018,Mouse
2,0,1,0,40,1,3,0,-760,230,530,135,0,500,200,8000,"[(512, 384), (512, 384), (512, 384), (512, 384), (512, 384), (512, 384), (512, 384), (512, 384), (512, 384), (512, 384), (512, 384), (512, 384), (512, 384), (512, 384), (512, 384), (512, 384), (512, 384), (512, 384), (512, 384), (512, 384), (512, 384), (512, 384), (512, 383), (512, 383), (512, 383), (512, 383), (512, 383), (512, 383), (512, 383), (512, 383), (512, 383), (512, 383), (512, 383), (512, 383), (512, 383), (512, 383), (512, 383), (512, 383), (512, 383), (512, 383), (512, 383), (512, 383), (512, 383), (512, 383), (512, 383), (512, 383), (512, 383), (512, 383), (512, 383), (512, 383), (512, 383), (512, 383), (512, 383), (512, 383), (512, 383), (512, 383), (512, 383), (512, 383), (512, 383), (511, 384), (510, 385), (510, 386), (510, 386), (510, 386), (510, 386), (510, 386), (510, 387), (509, 390), (508, 392), (507, 398), (507, 429), (507, 457), (507, 499), (507, 540), (510, 627), (512, 669)]",90.0,"[6, 8, 3, 9, 4, 2, 1, 7, 5]","(0, 0.25)",ENG007A,ENG,A,Chinese,Tue Oct  9 17:19:32 2018,Mouse
2,0,1,0,41,7,7,1,303,73,230,136,0,500,200,8000,"[(512, 384), (512, 384), (512, 384), (512, 384), (512, 384), (512, 384), (512, 384), (514, 372), (515, 361), (516, 353), (519, 349), (520, 347), (520, 346), (520, 346), (520, 346), (520, 346), (520, 346), (520, 346), (520, 346), (520, 346), (520, 346), (520, 346), (520, 346), (520, 346), (520, 346), (520, 343), (523, 337), (539, 303), (562, 262), (590, 205), (622, 145)]",294.7143009001525,"[6, 8, 3, 9, 4, 2, 1, 7, 5]","(0, 0.25)",ENG007A,ENG,A,Chinese,Tue Oct  9 17:19:32 2018,Mouse
2,0,1,0,42,7,7,1,452,182,270,136,0,500,200,8000,"[(512, 384), (512, 384), (512, 384), (512, 384), (512, 384), (512, 384), (512, 384), (512, 384), (512, 384), (512, 384), (512, 384), (512, 384), (512, 384), (512, 384), (512, 384), (512, 384), (512, 384), (512, 384), (513, 382), (525, 376), (531, 371), (539, 365), (541, 364), (541, 364), (543, 364), (543, 363), (543, 363), (543, 363), (543, 363), (543, 363), (544, 363), (545, 363), (547, 362), (558, 353), (565, 347), (572, 340), (583, 326), (599, 298), (607, 284), (615, 266), (622, 253), (632, 229), (637, 218), (640, 205), (644, 191), (658, 141)]",300.9984182214404,"[6, 8, 3, 9, 4, 2, 1, 7, 5]","(0, 0.25)",ENG007A,ENG,A,Chinese,Tue Oct  9 17:19:32 2018,Mouse
2,0,1,0,43,2,4,0,-442,332,110,135,0,500,200,8000,"[(512, 384), (512, 384), (512, 384), (512, 384), (512, 384), (512, 384), (512, 384), (512, 384), (512, 384), (512, 384), (512, 384), (512, 384), (512, 384), (512, 384), (512, 384), (512, 384), (512, 384), (512, 384), (512, 384), (512, 384), (512, 384), (512, 384), (512, 384), (512, 384), (512, 384), (512, 384), (512, 384), (512, 384), (512, 384), (512, 384), (512, 384), (512, 384), (512, 384), (512, 385), (511, 386), (510, 386), (502, 390), (492, 391), (481, 392), (462, 395), (410, 398), (371, 398), (338, 398), (290, 397), (198, 383)]",180.18247001849906,"[6, 8, 3, 9, 4, 2, 1, 7, 5]","(0, 0.25)",ENG007A,ENG,A,Chinese,Tue Oct  9 17:19:32 2018,Mouse
2,0,1,0,44,8,8,1,144,94,50,136,0,500,200,8000,"[(512, 384), (512, 384), (512, 384), (512, 384), (512, 384), (512, 384), (512, 384), (512, 384), (512, 384), (511, 390), (516, 407), (566, 469), (601, 514), (642, 560), (690, 604)]",51.02399308231962,"[6, 8, 3, 9, 4, 2, 1, 7, 5]","(0, 0.25)",ENG007A,ENG,A,Chinese,Tue Oct  9 17:19:32 2018,Mouse
2,0,1,0,45,8,6,0,-742,682,60,136,0,500,200,8000,"[(512, 384), (512, 384), (512, 384), (512, 384), (512, 384), (512, 384), (512, 384), (512, 384), (512, 384), (512, 384), (512, 384), (512, 384), (512, 384), (512, 384), (512, 384), (512, 384), (512, 384), (512, 384), (512, 384), (512, 384), (512, 384), (512, 384), (512, 384), (512, 384), (512, 384), (512, 384), (512, 384), (512, 384), (512, 384), (512, 384), (512, 384), (512, 384), (512, 384), (512, 384), (512, 384), (512, 384), (512, 384), (512, 384), (512, 384), (512, 384), (512, 384), (512, 384), (512, 384), (512, 384), (512, 384), (512, 384), (512, 384), (512, 384), (512, 384), (512, 384), (512, 384), (512, 384), (512, 384), (512, 384), (512, 384), (512, 384), (512, 384), (512, 384), (512, 384), (512, 384), (512, 384), (512, 384), (512, 384), (512, 384), (512, 384), (512, 384), (512, 384), (512, 384), (512, 387), (532, 401), (549, 407), (574, 420), (607, 442), (690, 483), (733, 501)]",27.89727103094763,"[6, 8, 3, 9, 4, 2, 1, 7, 5]","(0, 0.25)",ENG007A,ENG,A,Chinese,Tue Oct  9 17:19:32 2018,Mouse
2,0,1,0,46,5,5,1,432,372,60,137,0,500,200,8000,"[(512, 384), (512, 384), (512, 384), (512, 384), (512, 384), (512, 384), (512, 384), (512, 384), (512, 384), (512, 384), (512, 384), (512, 384), (512, 384), (512, 384), (512, 384), (512, 384), (512, 384), (512, 384), (512, 384), (512, 384), (512, 384), (512, 384), (512, 384), (512, 384), (512, 384), (512, 384), (512, 384), (512, 384), (512, 384), (512, 384), (512, 384), (512, 384), (512, 384), (512, 384), (512, 384), (512, 384), (512, 384), (516, 384), (526, 383), (572, 370), (621, 360), (675, 352), (735, 346), (881, 326)]",351.06724518069456,"[6, 8, 3, 9, 4, 2, 1, 7, 5]","(0, 0.25)",ENG007A,ENG,A,Chinese,Tue Oct  9 17:19:32 2018,Mouse
2,0,1,0,47,1,1,1,396,316,80,137,0,500,200,8000,"[(512, 384), (512, 384), (512, 384), (512, 384), (512, 384), (512, 384), (512, 384), (512, 384), (512, 384), (512, 384), (512, 384), (512, 384), (512, 384), (512, 384), (512, 384), (512, 384), (512, 384), (512, 384), (512, 384), (512, 384), (512, 384), (512, 384), (512, 384), (512, 384), (512, 384), (512, 384), (512, 384), (512, 384), (512, 384), (512, 384), (512, 384), (512, 381), (512, 376), (512, 368), (512, 357), (512, 328), (509, 299), (503, 256), (497, 205), (481, 107)]",263.6144074874329,"[6, 8, 3, 9, 4, 2, 1, 7, 5]","(0, 0.25)",ENG007A,ENG,A,Chinese,Tue Oct  9 17:19:32 2018,Mouse
2,0,1,0,48,5,6,0,-542,502,40,136,0,500,200,8000,"[(512, 384), (512, 384), (512, 384), (512, 384), (512, 384), (512, 384), (512, 384), (512, 384), (512, 384), (512, 384), (512, 384), (512, 384), (512, 384), (512, 384), (512, 384), (512, 384), (512, 384), (512, 384), (512, 384), (512, 384), (512, 384), (512, 384), (512, 384), (512, 384), (512, 384), (512, 384), (512, 384), (512, 384), (512, 384), (512, 384), (512, 384), (512, 384), (512, 384), (512, 384), (512, 384), (512, 384), (512, 384), (512, 384), (512, 384), (512, 384), (512, 384), (512, 384), (512, 384), (512, 384), (512, 384), (512, 384), (512, 384), (512, 384), (512, 384), (512, 384), (520, 387), (547, 398), (643, 438), (694, 456), (755, 475)]",20.530201387545855,"[6, 8, 3, 9, 4, 2, 1, 7, 5]","(0, 0.25)",ENG007A,ENG,A,Chinese,Tue Oct  9 17:19:32 2018,Mouse
2,0,1,0,49,9,8,0,-532,362,170,137,0,500,200,8000,"[(512, 384), (512, 384), (512, 384), (512, 384), (512, 384), (512, 384), (512, 384), (512, 384), (512, 384), (512, 384), (512, 384), (512, 384), (512, 384), (512, 384), (512, 384), (512, 384), (512, 384), (512, 384), (512, 384), (512, 384), (512, 384), (512, 384), (512, 384), (512, 384), (512, 384), (512, 384), (512, 384), (512, 384), (512, 384), (512, 384), (512, 384), (512, 384), (512, 384), (512, 384), (512, 384), (512, 384), (511, 384), (510, 384), (507, 384), (506, 384), (505, 386), (504, 386), (502, 392), (502, 396), (501, 400), (501, 407), (501, 423), (501, 434), (507, 447), (513, 465), (545, 540), (562, 577), (583, 618), (608, 656)]",70.5599651718238,"[6, 8, 3, 9, 4, 2, 1, 7, 5]","(0, 0.25)",ENG007A,ENG,A,Chinese,Tue Oct  9 17:19:32 2018,Mouse
2,0,1,0,50,2,2,1,412,372,40,138,0,500,200,8000,"[(512, 384), (512, 384), (512, 384), (512, 384), (512, 384), (512, 384), (512, 384), (512, 384), (512, 384), (512, 384), (512, 384), (512, 384), (512, 384), (512, 384), (512, 384), (512, 384), (512, 384), (512, 384), (512, 384), (512, 384), (512, 384), (512, 384), (512, 384), (512, 384), (512, 384), (512, 384), (512, 384), (512, 384), (512, 384), (512, 384), (512, 384), (512, 384), (512, 384), (512, 384), (512, 384), (512, 384), (512, 384), (492, 366), (468, 342), (433, 307), (379, 253), (257, 140)]",223.73717131153907,"[6, 8, 3, 9, 4, 2, 1, 7, 5]","(0, 0.25)",ENG007A,ENG,A,Chinese,Tue Oct  9 17:19:32 2018,Mouse
2,0,1,0,51,3,3,1,760,710,50,138,0,500,200,8000,"[(512, 384), (512, 384), (512, 384), (512, 384), (512, 384), (512, 384), (512, 384), (512, 384), (512, 384), (512, 384), (512, 384), (512, 384), (512, 384), (512, 384), (512, 384), (512, 384), (512, 384), (512, 384), (512, 384), (512, 384), (512, 384), (512, 384), (512, 384), (512, 384), (512, 384), (512, 384), (512, 384), (512, 384), (512, 384), (512, 384), (512, 384), (512, 384), (512, 384), (512, 384), (512, 384), (512, 384), (512, 384), (512, 384), (512, 384), (512, 384), (512, 384), (512, 384), (512, 384), (512, 384), (512, 384), (512, 384), (512, 384), (512, 384), (512, 384), (512, 384), (512, 384), (512, 384), (512, 384), (512, 384), (512, 384), (512, 384), (512, 384), (512, 384), (512, 384), (512, 384), (512, 384), (512, 384), (512, 384), (512, 384), (512, 384), (512, 384), (512, 384), (512, 384), (512, 384), (512, 384), (512, 385), (506, 402), (499, 422), (495, 473), (489, 532), (483, 652)]",96.17588639679629,"[6, 8, 3, 9, 4, 2, 1, 7, 5]","(0, 0.25)",ENG007A,ENG,A,Chinese,Tue Oct  9 17:19:32 2018,Mouse
2,0,1,0,52,3,3,1,442,122,320,137,0,500,200,8000,"[(512, 384), (512, 384), (512, 384), (512, 384), (512, 384), (512, 384), (512, 384), (512, 384), (512, 384), (512, 384), (512, 384), (512, 384), (512, 383), (512, 382), (512, 382), (514, 380), (514, 380), (514, 380), (514, 380), (514, 380), (514, 380), (514, 380), (514, 380), (514, 380), (514, 380), (514, 380), (514, 380), (514, 380), (514, 380), (514, 380), (514, 380), (514, 380), (514, 380), (514, 380), (514, 380), (514, 380), (514, 383), (513, 393), (509, 409), (506, 427), (500, 472), (499, 503), (497, 540), (497, 576), (490, 661)]",94.54103517970502,"[6, 8, 3, 9, 4, 2, 1, 7, 5]","(0, 0.25)",ENG007A,ENG,A,Chinese,Tue Oct  9 17:19:32 2018,Mouse
2,0,1,0,53,6,6,1,441,131,310,136,0,500,200,8000,"[(512, 384), (512, 384), (512, 384), (512, 384), (512, 384), (512, 384), (512, 384), (512, 384), (512, 384), (512, 384), (512, 384), (512, 384), (512, 384), (511, 384), (511, 384), (511, 384), (511, 384), (511, 384), (511, 384), (511, 384), (511, 384), (511, 384), (511, 384), (511, 384), (511, 384), (511, 384), (511, 384), (511, 384), (511, 384), (511, 384), (511, 384), (511, 384), (511, 384), (511, 384), (511, 384), (511, 384), (511, 384), (510, 385), (511, 392), (523, 399), (575, 422), (616, 432), (661, 445), (700, 456), (788, 477)]",18.621579366487577,"[6, 8, 3, 9, 4, 2, 1, 7, 5]","(0, 0.25)",ENG007A,ENG,A,Chinese,Tue Oct  9 17:19:32 2018,Mouse
2,0,1,0,54,1,4,0,-625,165,460,135,0,500,200,8000,"[(512, 384), (512, 384), (512, 384), (512, 384), (512, 384), (512, 384), (512, 384), (512, 384), (512, 384), (512, 384), (512, 384), (512, 384), (512, 384), (512, 384), (512, 384), (512, 384), (511, 384), (511, 384), (509, 384), (505, 384), (504, 384), (504, 384), (502, 384), (501, 384), (500, 384), (499, 384), (499, 384), (496, 383), (496, 383), (494, 383), (492, 383), (489, 383), (484, 383), (480, 383), (476, 381), (465, 379), (462, 379), (457, 379), (451, 378), (438, 375), (431, 374), (422, 371), (413, 370), (398, 369), (392, 368), (388, 368), (386, 366), (384, 366), (384, 366), (384, 366), (384, 366), (384, 366), (384, 366), (384, 366), (384, 366), (383, 366), (381, 366), (378, 366), (369, 366), (341, 368), (315, 372), (274, 378), (237, 383)]",180.2083473708062,"[6, 8, 3, 9, 4, 2, 1, 7, 5]","(0, 0.25)",ENG007A,ENG,A,Chinese,Tue Oct  9 17:19:32 2018,Mouse
2,0,1,0,55,8,3,0,-550,200,350,136,0,500,200,8000,"[(512, 384), (512, 384), (512, 384), (512, 384), (512, 384), (512, 384), (512, 384), (512, 384), (512, 384), (512, 384), (512, 384), (512, 384), (512, 384), (512, 384), (512, 384), (512, 384), (512, 384), (512, 384), (512, 384), (514, 384), (522, 383), (526, 383), (530, 383), (536, 382), (550, 379), (556, 378), (562, 377), (566, 377), (577, 377), (583, 377), (587, 377), (591, 377), (595, 377), (595, 377), (595, 377), (595, 377), (595, 377), (595, 377), (595, 377), (595, 377), (595, 377), (595, 377), (595, 377), (595, 377), (596, 378), (596, 378), (596, 380), (590, 382), (569, 395), (552, 405), (530, 419), (504, 439), (460, 499), (428, 559), (390, 625)]",116.84963052322863,"[6, 8, 3, 9, 4, 2, 1, 7, 5]","(0, 0.25)",ENG007A,ENG,A,Chinese,Tue Oct  9 17:19:32 2018,Mouse
2,0,1,0,56,3,3,1,461,141,320,137,0,500,200,8000,"[(512, 384), (512, 384), (512, 384), (512, 384), (512, 384), (512, 384), (512, 384), (512, 384), (512, 384), (512, 384), (512, 384), (512, 384), (512, 384), (512, 384), (512, 383), (509, 386), (503, 390), (499, 396), (487, 410), (484, 413), (480, 415), (479, 417), (475, 419), (475, 419), (475, 419), (474, 419), (474, 419), (474, 419), (474, 419), (474, 419), (474, 419), (474, 419), (473, 420), (473, 430), (469, 454), (465, 469), (462, 498), (457, 533), (456, 566), (455, 577), (451, 588), (450, 591), (447, 598), (447, 600), (446, 607), (444, 615), (438, 641)]",106.0631066331328,"[6, 8, 3, 9, 4, 2, 1, 7, 5]","(0, 0.25)",ENG007A,ENG,A,Chinese,Tue Oct  9 17:19:32 2018,Mouse
2,0,1,0,57,9,9,1,502,62,440,137,0,500,200,8000,"[(512, 384), (512, 384), (512, 384), (512, 384), (512, 384), (512, 384), (512, 383), (516, 379), (521, 367), (524, 356), (526, 349), (527, 342), (531, 333), (532, 330), (532, 328), (532, 325), (533, 320), (534, 320), (534, 320), (534, 320), (535, 318), (535, 317), (535, 317), (536, 315), (537, 310), (539, 306), (542, 300), (543, 294), (546, 282), (547, 278), (548, 273), (548, 272), (548, 270), (548, 270), (548, 270), (547, 270), (543, 270), (542, 270), (537, 273), (535, 275), (525, 289), (517, 299), (506, 313), (490, 329), (434, 383), (400, 408), (372, 427), (347, 442), (306, 470), (288, 485), (268, 498)]",154.95740182218304,"[6, 8, 3, 9, 4, 2, 1, 7, 5]","(0, 0.25)",ENG007A,ENG,A,Chinese,Tue Oct  9 17:19:32 2018,Mouse
2,0,1,0,58,5,5,1,366,56,310,136,0,500,200,8000,"[(512, 384), (512, 384), (512, 384), (512, 384), (512, 384), (513, 384), (513, 384), (513, 384), (513, 384), (513, 384), (513, 384), (513, 384), (513, 384), (513, 384), (513, 384), (513, 384), (513, 384), (513, 384), (513, 384), (514, 384), (516, 384), (518, 383), (522, 382), (525, 382), (530, 382), (548, 382), (556, 382), (565, 382), (578, 382), (599, 382), (616, 382), (631, 381), (651, 381), (694, 381), (716, 381), (738, 381), (791, 381)]",359.3839400916008,"[6, 8, 3, 9, 4, 2, 1, 7, 5]","(0, 0.25)",ENG007A,ENG,A,Chinese,Tue Oct  9 17:19:32 2018,Mouse
2,0,1,0,59,3,3,1,781,291,490,135,0,500,200,8000,"[(512, 384), (512, 384), (512, 384), (512, 384), (512, 384), (512, 384), (512, 384), (512, 384), (512, 384), (512, 384), (512, 384), (512, 384), (512, 384), (512, 384), (512, 384), (512, 384), (512, 384), (512, 384), (512, 384), (512, 384), (512, 384), (512, 384), (512, 384), (512, 384), (512, 384), (512, 384), (512, 384), (512, 384), (512, 384), (512, 383), (511, 381), (509, 380), (509, 379), (508, 377), (508, 377), (508, 377), (508, 377), (508, 374), (508, 371), (508, 371), (508, 370), (508, 369), (508, 369), (508, 368), (508, 368), (508, 368), (508, 368), (508, 368), (508, 368), (508, 368), (508, 368), (508, 368), (508, 368), (510, 375), (511, 378), (511, 381), (511, 383), (511, 390), (511, 393), (511, 395), (511, 397), (511, 399), (511, 400), (511, 401), (511, 401), (511, 401), (511, 401), (511, 401), (511, 401), (511, 404), (511, 410), (507, 418), (506, 425), (500, 450), (495, 466), (491, 483), (488, 512), (477, 595), (467, 639)]",100.00797980144135,"[6, 8, 3, 9, 4, 2, 1, 7, 5]","(0, 0.25)",ENG007A,ENG,A,Chinese,Tue Oct  9 17:19:32 2018,Mouse
2,0,1,0,60,7,7,1,322,82,240,134,0,500,200,8000,"[(512, 384), (512, 384), (512, 384), (512, 384), (512, 384), (512, 384), (512, 384), (512, 384), (512, 383), (512, 381), (512, 381), (513, 378), (514, 377), (514, 376), (514, 376), (515, 374), (515, 374), (516, 372), (516, 371), (518, 368), (518, 368), (520, 365), (522, 361), (529, 351), (533, 344), (539, 338), (543, 329), (554, 312), (559, 303), (566, 289), (575, 263), (605, 189), (622, 149)]",295.08359400619094,"[6, 8, 3, 9, 4, 2, 1, 7, 5]","(0, 0.25)",ENG007A,ENG,A,Chinese,Tue Oct  9 17:19:32 2018,Mouse
2,0,1,0,61,6,6,1,551,311,240,133,0,500,200,8000,"[(512, 384), (512, 384), (512, 384), (512, 384), (512, 384), (512, 384), (512, 384), (512, 384), (512, 384), (512, 384), (512, 384), (512, 384), (512, 384), (512, 384), (512, 384), (512, 384), (512, 384), (512, 384), (512, 384), (512, 384), (512, 384), (512, 384), (512, 384), (512, 384), (512, 384), (512, 384), (512, 384), (512, 384), (512, 384), (512, 384), (512, 384), (514, 394), (515, 397), (516, 401), (517, 401), (517, 401), (517, 401), (517, 401), (517, 401), (517, 401), (517, 401), (517, 401), (517, 401), (521, 401), (529, 404), (540, 406), (552, 410), (589, 418), (608, 420), (627, 424), (648, 427), (689, 433), (708, 437), (725, 441), (739, 444), (768, 456)]",15.708637829015744,"[6, 8, 3, 9, 4, 2, 1, 7, 5]","(0, 0.25)",ENG007A,ENG,A,Chinese,Tue Oct  9 17:19:32 2018,Mouse
2,0,1,0,62,1,4,0,-418,238,180,132,0,500,200,8000,"[(512, 384), (512, 384), (512, 384), (512, 384), (512, 384), (512, 384), (512, 384), (512, 384), (512, 384), (512, 384), (512, 384), (512, 384), (512, 384), (512, 384), (512, 384), (512, 384), (512, 384), (512, 384), (512, 384), (512, 384), (512, 384), (512, 384), (512, 384), (509, 383), (504, 381), (501, 379), (494, 377), (476, 372), (467, 368), (451, 365), (438, 363), (409, 359), (397, 359), (388, 359), (378, 359), (362, 359), (355, 359), (344, 359), (329, 359), (298, 359), (279, 359), (259, 359)]",185.64331828053398,"[6, 8, 3, 9, 4, 2, 1, 7, 5]","(0, 0.25)",ENG007A,ENG,A,Chinese,Tue Oct  9 17:19:32 2018,Mouse
2,0,1,0,63,3,8,0,-382,232,150,133,0,500,200,8000,"[(512, 384), (512, 384), (512, 384), (512, 384), (512, 384), (512, 384), (512, 384), (512, 384), (512, 384), (512, 384), (512, 384), (512, 384), (512, 384), (512, 384), (512, 384), (512, 384), (512, 384), (512, 384), (512, 384), (512, 384), (512, 384), (512, 384), (512, 384), (513, 384), (515, 384), (518, 384), (524, 385), (525, 386), (529, 388), (530, 390), (536, 398), (539, 404), (541, 413), (546, 430), (561, 490), (564, 527), (564, 555), (564, 589), (566, 645)]",78.3106308245608,"[6, 8, 3, 9, 4, 2, 1, 7, 5]","(0, 0.25)",ENG007A,ENG,A,Chinese,Tue Oct  9 17:19:32 2018,Mouse
2,0,1,0,64,9,9,1,639,539,100,134,0,500,200,8000,"[(512, 384), (512, 384), (512, 384), (512, 384), (512, 384), (512, 384), (512, 384), (512, 384), (512, 384), (512, 384), (512, 384), (512, 384), (512, 384), (512, 384), (512, 384), (512, 384), (512, 384), (512, 384), (512, 384), (512, 384), (512, 384), (512, 384), (512, 384), (512, 384), (512, 384), (512, 384), (512, 384), (512, 384), (512, 384), (512, 384), (512, 384), (512, 384), (512, 384), (512, 384), (512, 384), (512, 384), (512, 384), (512, 384), (512, 384), (512, 384), (512, 384), (512, 384), (512, 384), (512, 384), (512, 384), (512, 384), (512, 384), (512, 384), (512, 384), (512, 384), (512, 384), (512, 384), (512, 384), (511, 384), (505, 388), (499, 391), (491, 396), (479, 407), (440, 441), (412, 464), (375, 491), (336, 519), (315, 535), (304, 548)]",141.74557964748283,"[6, 8, 3, 9, 4, 2, 1, 7, 5]","(0, 0.25)",ENG007A,ENG,A,Chinese,Tue Oct  9 17:19:32 2018,Mouse
2,0,1,0,65,4,4,1,491,431,60,134,0,500,200,8000,"[(512, 384), (512, 384), (512, 384), (512, 384), (512, 384), (512, 384), (512, 384), (512, 384), (512, 384), (512, 384), (512, 384), (512, 384), (512, 384), (512, 384), (512, 384), (512, 384), (512, 384), (512, 384), (512, 384), (512, 384), (512, 384), (512, 384), (512, 384), (512, 384), (512, 384), (512, 384), (512, 384), (512, 384), (512, 384), (512, 384), (512, 384), (512, 384), (512, 384), (512, 384), (512, 384), (512, 384), (512, 384), (512, 384), (512, 384), (512, 384), (512, 384), (512, 384), (512, 384), (501, 382), (486, 381), (466, 381), (435, 381), (349, 381), (301, 377), (248, 378)]",181.30195267257886,"[6, 8, 3, 9, 4, 2, 1, 7, 5]","(0, 0.25)",ENG007A,ENG,A,Chinese,Tue Oct  9 17:19:32 2018,Mouse
2,0,1,0,66,6,3,0,-380,70,310,133,0,500,200,8000,"[(512, 384), (512, 384), (512, 384), (512, 384), (512, 384), (512, 384), (513, 384), (514, 385), (514, 385), (514, 385), (514, 385), (514, 385), (514, 385), (514, 385), (514, 385), (514, 385), (514, 385), (514, 385), (514, 385), (514, 385), (514, 385), (515, 388), (516, 391), (517, 395), (517, 400), (517, 405), (517, 423), (518, 434), (520, 446), (521, 461), (521, 495), (521, 513), (519, 534), (512, 560), (502, 598), (497, 613), (493, 632), (491, 648)]",94.54804240912542,"[6, 8, 3, 9, 4, 2, 1, 7, 5]","(0, 0.25)",ENG007A,ENG,A,Chinese,Tue Oct  9 17:19:32 2018,Mouse
2,0,1,0,67,5,5,1,578,408,170,134,0,500,200,8000,"[(512, 384), (512, 384), (512, 384), (512, 384), (512, 384), (512, 384), (512, 384), (512, 384), (512, 384), (512, 384), (512, 384), (512, 384), (512, 384), (512, 384), (512, 384), (512, 384), (512, 384), (512, 384), (512, 384), (512, 384), (512, 384), (512, 384), (512, 384), (512, 384), (512, 384), (512, 384), (512, 384), (512, 384), (512, 384), (512, 384), (512, 384), (512, 384), (512, 384), (512, 384), (512, 384), (512, 384), (512, 384), (512, 384), (512, 384), (512, 384), (512, 381), (512, 380), (514, 377), (516, 377), (524, 373), (526, 373), (529, 371), (532, 370), (535, 368), (537, 368), (540, 366), (544, 365), (567, 360), (587, 353), (613, 343), (653, 326), (734, 286), (766, 267)]",335.26778832886407,"[6, 8, 3, 9, 4, 2, 1, 7, 5]","(0, 0.25)",ENG007A,ENG,A,Chinese,Tue Oct  9 17:19:32 2018,Mouse
2,0,1,0,68,3,3,1,610,120,490,134,0,500,200,8000,"[(512, 384), (512, 384), (512, 384), (512, 384), (512, 384), (512, 384), (512, 384), (512, 384), (512, 384), (512, 384), (512, 384), (512, 385), (510, 389), (507, 391), (493, 402), (485, 407), (476, 416), (470, 424), (458, 435), (454, 440), (450, 448), (447, 452), (446, 468), (444, 475), (444, 477), (444, 477), (444, 477), (444, 480), (444, 483), (444, 483), (440, 495), (440, 495), (440, 495), (440, 495), (437, 508), (440, 512), (442, 515), (442, 515), (443, 516), (443, 517), (444, 517), (445, 517), (445, 517), (445, 517), (445, 517), (449, 525), (459, 545), (464, 552), (468, 560), (473, 570), (477, 582), (478, 583), (478, 583), (478, 583), (478, 583), (478, 585), (478, 587), (478, 593), (478, 617), (478, 628), (478, 634)]",97.74471054642292,"[6, 8, 3, 9, 4, 2, 1, 7, 5]","(0, 0.25)",ENG007A,ENG,A,Chinese,Tue Oct  9 17:19:32 2018,Mouse
2,0,1,0,69,1,1,1,452,352,100,133,0,500,200,8000,"[(512, 384), (512, 384), (512, 384), (512, 384), (512, 384), (512, 384), (512, 384), (512, 384), (512, 384), (512, 384), (512, 384), (512, 384), (512, 384), (512, 384), (512, 384), (512, 384), (512, 384), (512, 384), (512, 384), (512, 384), (512, 384), (512, 384), (512, 384), (512, 384), (512, 384), (512, 384), (512, 384), (512, 384), (512, 384), (512, 384), (512, 384), (512, 384), (512, 384), (512, 384), (512, 384), (508, 378), (505, 369), (500, 358), (494, 340), (491, 329), (487, 314), (481, 297), (464, 244), (451, 212), (440, 168), (429, 129)]",251.97043907865088,"[6, 8, 3, 9, 4, 2, 1, 7, 5]","(0, 0.25)",ENG007A,ENG,A,Chinese,Tue Oct  9 17:19:32 2018,Mouse
2,0,1,0,70,2,2,1,342,232,110,132,0,500,200,8000,"[(512, 384), (512, 384), (512, 384), (512, 384), (512, 384), (512, 384), (512, 384), (512, 384), (512, 384), (512, 384), (512, 384), (512, 384), (512, 384), (512, 384), (512, 384), (512, 384), (512, 384), (512, 384), (512, 384), (512, 384), (512, 384), (512, 384), (512, 384), (512, 383), (511, 383), (506, 380), (504, 377), (500, 370), (485, 353), (472, 338), (455, 318), (433, 294), (370, 244), (337, 222), (302, 204)]",220.60129464500446,"[6, 8, 3, 9, 4, 2, 1, 7, 5]","(0, 0.25)",ENG007A,ENG,A,Chinese,Tue Oct  9 17:19:32 2018,Mouse
2,0,1,0,71,2,2,1,562,432,130,131,0,500,200,8000,"[(512, 384), (512, 384), (512, 384), (512, 384), (512, 384), (512, 384), (512, 384), (512, 384), (512, 384), (512, 384), (512, 384), (512, 384), (512, 384), (512, 384), (512, 384), (512, 384), (512, 384), (512, 384), (512, 384), (512, 384), (512, 384), (512, 384), (512, 384), (512, 384), (512, 384), (512, 384), (512, 384), (512, 384), (512, 384), (512, 384), (512, 384), (512, 384), (512, 384), (512, 384), (512, 384), (512, 384), (512, 384), (512, 384), (512, 384), (512, 384), (512, 384), (512, 384), (512, 384), (511, 384), (510, 384), (509, 383), (507, 379), (507, 379), (506, 377), (506, 377), (498, 367), (491, 359), (482, 350), (461, 333), (397, 285), (357, 253), (312, 216)]",220.0302592718897,"[6, 8, 3, 9, 4, 2, 1, 7, 5]","(0, 0.25)",ENG007A,ENG,A,Chinese,Tue Oct  9 17:19:32 2018,Mouse
2,0,1,0,72,9,1,0,-811,751,60,130,0,500,200,8000,"[(512, 384), (512, 384), (512, 384), (512, 384), (512, 384), (512, 384), (512, 384), (512, 384), (512, 384), (512, 384), (512, 384), (512, 384), (512, 384), (512, 384), (512, 384), (512, 384), (512, 384), (512, 384), (512, 384), (512, 384), (512, 384), (512, 384), (512, 384), (512, 384), (512, 384), (512, 384), (512, 384), (512, 384), (512, 384), (512, 384), (512, 384), (512, 384), (512, 384), (512, 384), (512, 384), (512, 384), (512, 384), (512, 384), (512, 384), (512, 384), (512, 384), (512, 384), (512, 384), (512, 384), (512, 384), (512, 384), (512, 384), (512, 384), (512, 384), (512, 384), (512, 384), (512, 384), (512, 384), (512, 384), (512, 384), (512, 384), (512, 384), (512, 384), (512, 384), (512, 384), (512, 384), (512, 384), (512, 384), (512, 384), (512, 384), (512, 384), (512, 384), (512, 384), (512, 384), (512, 384), (512, 384), (512, 384), (512, 384), (512, 384), (512, 384), (510, 368), (505, 341), (502, 310), (496, 272), (487, 189), (479, 138), (473, 84)]",262.59308787150474,"[6, 8, 3, 9, 4, 2, 1, 7, 5]","(0, 0.25)",ENG007A,ENG,A,Chinese,Tue Oct  9 17:19:32 2018,Mouse
2,0,1,0,73,7,7,1,508,458,50,131,0,500,200,8000,"[(512, 384), (512, 384), (512, 384), (512, 384), (512, 384), (512, 384), (512, 384), (512, 384), (512, 384), (512, 384), (512, 384), (512, 384), (512, 384), (512, 384), (512, 384), (512, 384), (512, 384), (512, 384), (512, 384), (512, 384), (512, 384), (512, 384), (512, 384), (512, 384), (512, 384), (512, 384), (512, 384), (512, 384), (512, 384), (512, 384), (512, 384), (512, 384), (512, 384), (512, 384), (512, 384), (512, 384), (512, 384), (512, 384), (512, 384), (512, 384), (512, 384), (512, 384), (512, 384), (512, 384), (512, 384), (512, 385), (514, 385), (524, 363), (556, 306), (629, 193), (661, 128)]",300.2007426201834,"[6, 8, 3, 9, 4, 2, 1, 7, 5]","(0, 0.25)",ENG007A,ENG,A,Chinese,Tue Oct  9 17:19:32 2018,Mouse
2,0,1,0,74,9,7,0,-532,262,270,131,0,500,200,8000,"[(512, 384), (512, 384), (512, 384), (512, 384), (512, 384), (512, 384), (512, 384), (512, 384), (512, 384), (512, 384), (512, 384), (512, 384), (512, 384), (512, 384), (512, 384), (512, 384), (512, 384), (512, 384), (512, 384), (512, 384), (512, 384), (512, 384), (512, 384), (512, 384), (512, 384), (512, 384), (511, 384), (510, 384), (509, 386), (509, 386), (509, 386), (509, 386), (509, 386), (508, 386), (507, 386), (507, 388), (507, 389), (507, 390), (507, 393), (507, 399), (508, 401), (509, 404), (510, 408), (512, 410), (512, 410), (512, 411), (512, 411), (518, 407), (531, 386), (551, 350), (573, 304), (613, 223), (630, 186), (641, 147)]",298.55962047831986,"[6, 8, 3, 9, 4, 2, 1, 7, 5]","(0, 0.25)",ENG007A,ENG,A,Chinese,Tue Oct  9 17:19:32 2018,Mouse
2,0,1,0,75,9,9,1,522,462,60,132,0,500,200,8000,"[(512, 384), (512, 384), (512, 384), (512, 384), (512, 384), (512, 384), (512, 384), (512, 384), (512, 384), (512, 384), (512, 384), (512, 384), (512, 384), (512, 384), (512, 384), (512, 384), (512, 384), (512, 384), (512, 384), (512, 384), (512, 384), (512, 384), (512, 384), (512, 384), (512, 384), (512, 384), (512, 384), (512, 384), (512, 384), (512, 384), (512, 384), (512, 384), (512, 384), (512, 384), (512, 384), (512, 384), (512, 384), (512, 384), (512, 384), (512, 384), (512, 384), (512, 384), (512, 384), (512, 384), (512, 384), (512, 384), (511, 383), (503, 384), (489, 393), (470, 407), (389, 461), (337, 488), (274, 507)]",152.66977522390857,"[6, 8, 3, 9, 4, 2, 1, 7, 5]","(0, 0.25)",ENG007A,ENG,A,Chinese,Tue Oct  9 17:19:32 2018,Mouse
2,0,1,0,76,9,3,0,-422,352,70,132,0,500,200,8000,"[(512, 384), (512, 384), (512, 384), (512, 384), (512, 384), (512, 384), (512, 384), (512, 384), (512, 384), (512, 384), (512, 384), (512, 384), (512, 384), (512, 384), (512, 384), (512, 384), (512, 384), (512, 384), (512, 384), (512, 384), (512, 384), (512, 384), (512, 384), (512, 384), (512, 384), (512, 384), (512, 384), (512, 384), (512, 384), (512, 384), (512, 384), (512, 384), (512, 384), (512, 384), (512, 384), (512, 388), (512, 396), (512, 419), (512, 453), (512, 500), (507, 540), (484, 631), (476, 656)]",97.53944513950931,"[6, 8, 3, 9, 4, 2, 1, 7, 5]","(0, 0.25)",ENG007A,ENG,A,Chinese,Tue Oct  9 17:19:32 2018,Mouse
2,0,1,0,77,6,2,0,-752,622,130,133,0,500,200,8000,"[(512, 384), (512, 384), (512, 384), (512, 384), (512, 384), (512, 384), (512, 384), (512, 384), (512, 384), (512, 384), (512, 384), (512, 384), (512, 384), (512, 384), (512, 384), (512, 384), (512, 384), (512, 384), (512, 384), (512, 384), (512, 384), (512, 384), (512, 384), (512, 384), (512, 384), (512, 384), (512, 384), (512, 384), (512, 384), (512, 384), (512, 384), (512, 384), (512, 384), (512, 384), (512, 384), (512, 384), (512, 384), (512, 384), (512, 384), (512, 384), (512, 384), (512, 384), (512, 384), (512, 384), (512, 384), (512, 384), (512, 384), (512, 384), (512, 384), (512, 384), (512, 384), (512, 384), (512, 384), (512, 384), (512, 384), (512, 384), (512, 384), (512, 384), (512, 384), (512, 384), (512, 384), (512, 384), (512, 383), (512, 382), (512, 382), (512, 381), (510, 379), (507, 376), (505, 374), (500, 368), (492, 361), (470, 336), (449, 317), (418, 291), (381, 262), (313, 211)]",221.0019579007966,"[6, 8, 3, 9, 4, 2, 1, 7, 5]","(0, 0.25)",ENG007A,ENG,A,Chinese,Tue Oct  9 17:19:32 2018,Mouse
2,0,1,0,78,3,4,0,-931,871,60,134,0,500,200,8000,"[(512, 384), (512, 384), (512, 384), (512, 384), (512, 384), (512, 384), (512, 384), (512, 384), (512, 384), (512, 384), (512, 384), (512, 384), (512, 384), (512, 384), (512, 384), (512, 384), (512, 384), (512, 384), (512, 384), (512, 384), (512, 384), (512, 384), (512, 384), (512, 384), (512, 384), (512, 384), (512, 384), (512, 384), (512, 384), (512, 384), (512, 384), (512, 384), (512, 384), (512, 384), (512, 384), (512, 384), (512, 384), (512, 384), (512, 384), (512, 384), (512, 384), (512, 384), (512, 384), (512, 384), (512, 384), (512, 384), (512, 384), (512, 384), (512, 384), (512, 384), (512, 384), (512, 384), (512, 384), (512, 384), (512, 384), (512, 384), (512, 384), (512, 384), (512, 384), (512, 384), (512, 384), (512, 384), (512, 384), (512, 384), (512, 384), (512, 384), (512, 384), (512, 384), (512, 384), (512, 384), (512, 384), (512, 384), (512, 384), (512, 384), (512, 384), (512, 384), (512, 384), (512, 384), (512, 384), (512, 384), (512, 384), (512, 384), (512, 384), (512, 384), (512, 384), (512, 384), (512, 384), (506, 384), (490, 379), (436, 370), (390, 360), (346, 352), (309, 347), (231, 336)]",189.6936187927508,"[6, 8, 3, 9, 4, 2, 1, 7, 5]","(0, 0.25)",ENG007A,ENG,A,Chinese,Tue Oct  9 17:19:32 2018,Mouse
2,0,1,0,79,4,7,0,-395,195,200,135,0,500,200,8000,"[(512, 384), (512, 384), (512, 384), (512, 384), (512, 384), (512, 384), (512, 384), (512, 384), (512, 384), (512, 384), (512, 384), (512, 384), (512, 384), (512, 384), (512, 384), (512, 384), (512, 384), (512, 384), (512, 384), (513, 384), (515, 384), (520, 381), (522, 380), (531, 372), (535, 364), (540, 357), (546, 348), (558, 332), (565, 324), (571, 318), (576, 311), (585, 303), (591, 296), (597, 290), (605, 280), (624, 252), (633, 231), (640, 214), (645, 197), (651, 171)]",303.1277496860155,"[6, 8, 3, 9, 4, 2, 1, 7, 5]","(0, 0.25)",ENG007A,ENG,A,Chinese,Tue Oct  9 17:19:32 2018,Mouse
2,0,1,0,80,5,5,1,366,196,170,136,0,500,200,8000,"[(512, 384), (512, 384), (512, 384), (512, 384), (512, 384), (512, 384), (512, 384), (512, 384), (512, 384), (512, 384), (512, 384), (512, 384), (512, 384), (512, 384), (512, 384), (512, 384), (512, 384), (512, 384), (512, 384), (512, 387), (512, 388), (512, 391), (512, 392), (513, 394), (515, 395), (519, 395), (524, 395), (541, 395), (555, 395), (570, 397), (587, 397), (631, 397), (660, 388), (681, 377), (707, 365), (748, 343), (758, 337)]",349.1835976646469,"[6, 8, 3, 9, 4, 2, 1, 7, 5]","(0, 0.25)",ENG007A,ENG,A,Chinese,Tue Oct  9 17:19:32 2018,Mouse
2,0,1,0,81,6,6,1,424,234,190,136,0,500,200,8000,"[(512, 384), (512, 384), (512, 384), (512, 384), (512, 384), (512, 384), (512, 384), (512, 384), (512, 384), (512, 384), (512, 384), (512, 384), (512, 384), (512, 384), (512, 384), (512, 384), (512, 384), (512, 384), (512, 384), (512, 384), (512, 384), (512, 384), (512, 384), (511, 385), (511, 385), (509, 387), (509, 387), (509, 389), (509, 391), (509, 395), (509, 398), (509, 399), (509, 402), (510, 406), (514, 408), (522, 412), (534, 417), (565, 434), (595, 449), (622, 463), (651, 475), (726, 508), (760, 523)]",29.26992716281364,"[6, 8, 3, 9, 4, 2, 1, 7, 5]","(0, 0.25)",ENG007A,ENG,A,Chinese,Tue Oct  9 17:19:32 2018,Mouse
2,0,1,0,82,1,4,0,-452,242,210,135,0,500,200,8000,"[(512, 384), (512, 384), (512, 384), (512, 384), (512, 384), (512, 384), (512, 384), (512, 384), (512, 384), (512, 384), (512, 384), (512, 384), (512, 384), (512, 384), (512, 384), (512, 384), (512, 384), (512, 384), (512, 384), (512, 384), (512, 384), (512, 384), (512, 384), (512, 384), (511, 384), (511, 384), (509, 384), (499, 384), (494, 384), (485, 384), (479, 384), (457, 383), (440, 377), (428, 375), (418, 373), (400, 369), (393, 367), (387, 366), (381, 366), (367, 364), (360, 363), (354, 362), (345, 361), (316, 360), (291, 360), (255, 360)]",185.33510574065573,"[6, 8, 3, 9, 4, 2, 1, 7, 5]","(0, 0.25)",ENG007A,ENG,A,Chinese,Tue Oct  9 17:19:32 2018,Mouse
2,0,1,0,83,3,7,0,-304,14,290,136,0,500,200,8000,"[(512, 384), (513, 383), (513, 383), (513, 382), (515, 382), (515, 382), (516, 380), (516, 380), (516, 380), (516, 380), (516, 380), (516, 380), (516, 380), (516, 380), (516, 380), (516, 380), (516, 380), (516, 380), (516, 380), (516, 380), (516, 380), (516, 379), (516, 377), (516, 376), (522, 370), (538, 348), (550, 326), (559, 293), (570, 246), (598, 154), (609, 116)]",289.897231616909,"[6, 8, 3, 9, 4, 2, 1, 7, 5]","(0, 0.25)",ENG007A,ENG,A,Chinese,Tue Oct  9 17:19:32 2018,Mouse
2,0,1,0,84,5,1,0,-272,12,260,137,0,500,200,8000,"[(512, 384), (507, 387), (501, 389), (487, 394), (478, 398), (472, 399), (465, 402), (456, 402), (454, 402), (452, 402), (451, 401), (448, 387), (443, 374), (440, 362), (437, 352), (431, 336), (430, 331), (427, 325), (425, 319), (420, 300), (415, 284), (414, 270), (411, 245), (405, 210), (404, 195), (401, 180), (399, 162), (390, 121)]",245.1144364804078,"[6, 8, 3, 9, 4, 2, 1, 7, 5]","(0, 0.25)",ENG007A,ENG,A,Chinese,Tue Oct  9 17:19:32 2018,Mouse
2,0,1,0,85,1,1,1,341,131,210,138,0,500,200,8000,"[(512, 384), (512, 384), (512, 384), (512, 384), (512, 384), (512, 384), (512, 384), (512, 384), (512, 384), (512, 384), (512, 384), (512, 384), (512, 384), (512, 382), (512, 372), (512, 365), (512, 357), (512, 349), (512, 347), (512, 347), (512, 346), (512, 339), (512, 330), (512, 319), (512, 309), (507, 284), (502, 268), (497, 256), (495, 243), (485, 218), (480, 205), (474, 191), (468, 176), (459, 142), (453, 120)]",257.4022719798477,"[6, 8, 3, 9, 4, 2, 1, 7, 5]","(0, 0.25)",ENG007A,ENG,A,Chinese,Tue Oct  9 17:19:32 2018,Mouse
2,0,1,0,86,6,6,1,323,53,270,138,0,500,200,8000,"[(512, 384), (512, 384), (512, 384), (512, 384), (512, 384), (512, 385), (513, 387), (516, 388), (517, 390), (518, 391), (519, 392), (519, 393), (519, 393), (520, 393), (520, 393), (520, 393), (520, 393), (520, 393), (520, 393), (521, 394), (521, 394), (521, 395), (522, 398), (528, 407), (533, 412), (539, 418), (547, 424), (575, 440), (594, 454), (624, 469), (645, 480), (696, 504), (723, 520)]",32.80379466866114,"[6, 8, 3, 9, 4, 2, 1, 7, 5]","(0, 0.25)",ENG007A,ENG,A,Chinese,Tue Oct  9 17:19:32 2018,Mouse
2,0,1,0,87,1,1,1,279,39,240,137,0,500,200,8000,"[(512, 384), (512, 384), (512, 384), (509, 380), (506, 374), (504, 371), (497, 360), (494, 356), (491, 354), (489, 351), (489, 351), (489, 351), (489, 351), (488, 350), (488, 350), (488, 350), (488, 350), (488, 350), (488, 350), (488, 350), (488, 350), (483, 331), (479, 320), (476, 306), (472, 286), (462, 219), (453, 181), (442, 142)]",253.8671594695146,"[6, 8, 3, 9, 4, 2, 1, 7, 5]","(0, 0.25)",ENG007A,ENG,A,Chinese,Tue Oct  9 17:19:32 2018,Mouse
2,0,1,0,88,4,4,1,413,263,150,136,0,500,200,8000,"[(512, 384), (512, 384), (512, 384), (512, 384), (512, 384), (512, 384), (512, 384), (512, 384), (512, 384), (512, 384), (512, 384), (512, 384), (512, 384), (512, 384), (512, 384), (512, 384), (512, 384), (512, 384), (512, 384), (512, 384), (512, 384), (512, 384), (512, 384), (512, 384), (512, 384), (512, 384), (512, 386), (512, 386), (510, 388), (506, 389), (503, 391), (502, 392), (500, 392), (496, 396), (491, 397), (484, 399), (474, 402), (428, 407), (388, 411), (340, 415), (290, 415), (185, 415)]",174.5844749148451,"[6, 8, 3, 9, 4, 2, 1, 7, 5]","(0, 0.25)",ENG007A,ENG,A,Chinese,Tue Oct  9 17:19:32 2018,Mouse
2,0,1,0,89,8,8,1,491,181,310,135,0,500,200,8000,"[(512, 384), (512, 384), (512, 384), (512, 384), (512, 384), (512, 384), (512, 384), (512, 384), (512, 384), (512, 384), (512, 384), (512, 384), (512, 384), (512, 384), (512, 384), (512, 384), (512, 384), (512, 384), (516, 383), (520, 380), (533, 376), (541, 376), (547, 376), (559, 376), (586, 376), (597, 377), (608, 380), (618, 381), (625, 383), (626, 384), (627, 385), (627, 385), (627, 386), (627, 386), (627, 386), (627, 386), (627, 388), (626, 389), (626, 389), (625, 392), (621, 398), (619, 405), (617, 415), (613, 424), (611, 446), (611, 459), (611, 480), (611, 521), (625, 606), (637, 647)]",64.5789521248291,"[6, 8, 3, 9, 4, 2, 1, 7, 5]","(0, 0.25)",ENG007A,ENG,A,Chinese,Tue Oct  9 17:19:32 2018,Mouse
2,0,1,0,90,1,1,1,1382,272,1110,134,0,500,200,8000,"[(512, 384), (512, 384), (512, 384), (512, 384), (512, 384), (512, 384), (512, 384), (512, 384), (512, 384), (512, 384), (512, 384), (512, 384), (512, 384), (512, 384), (512, 384), (512, 384), (512, 384), (512, 384), (512, 384), (512, 384), (512, 384), (512, 384), (512, 384), (512, 384), (512, 384), (512, 384), (512, 384), (507, 382), (503, 380), (500, 380), (499, 379), (494, 377), (493, 377), (490, 377), (489, 376), (486, 375), (485, 375), (485, 375), (483, 375), (483, 374), (483, 374), (482, 374), (482, 374), (481, 373), (481, 373), (480, 372), (479, 370), (477, 367), (477, 365), (475, 362), (473, 358), (466, 347), (462, 340), (456, 328), (451, 320), (441, 301), (437, 292), (434, 285), (430, 277), (424, 261), (420, 251), (418, 246), (415, 241), (412, 235), (412, 233), (412, 233), (412, 233), (412, 233), (412, 233), (412, 233), (412, 233), (412, 233), (412, 233), (412, 233), (412, 233), (412, 233), (412, 233), (412, 233), (412, 233), (412, 233), (412, 233), (411, 233), (410, 233), (407, 233), (404, 233), (401, 233), (396, 233), (381, 227), (374, 222), (365, 218), (359, 213), (352, 208), (352, 208), (351, 207), (350, 206), (350, 206), (350, 206), (350, 206), (350, 206), (350, 206), (350, 206), (350, 206), (350, 206), (350, 206), (350, 206), (350, 206), (350, 206), (356, 206), (357, 206), (359, 206), (361, 205), (363, 204), (364, 204), (364, 204), (364, 204), (364, 204), (364, 204), (364, 204), (364, 204), (364, 204), (364, 204), (366, 204), (366, 204), (367, 204), (367, 204), (369, 204), (371, 204), (377, 204), (381, 204), (386, 204), (390, 204), (400, 204), (403, 204), (407, 201), (412, 198), (425, 185), (430, 174), (437, 158), (444, 135)]",254.72541280312367,"[6, 8, 3, 9, 4, 2, 1, 7, 5]","(0, 0.25)",ENG007A,ENG,A,Chinese,Tue Oct  9 17:19:32 2018,Mouse
2,0,1,0,91,3,6,0,-451,341,110,133,0,500,200,8000,"[(512, 384), (512, 384), (512, 384), (512, 384), (512, 384), (512, 384), (512, 384), (512, 384), (512, 384), (512, 384), (512, 384), (512, 384), (512, 384), (512, 384), (512, 384), (512, 384), (512, 384), (512, 384), (512, 384), (512, 384), (512, 384), (512, 384), (512, 384), (512, 384), (512, 384), (512, 384), (512, 384), (512, 384), (512, 384), (512, 384), (512, 384), (512, 384), (512, 384), (512, 384), (513, 386), (516, 387), (522, 391), (532, 397), (565, 418), (587, 430), (603, 434), (629, 445), (671, 463), (699, 471), (724, 477), (746, 483)]",22.932100437589785,"[6, 8, 3, 9, 4, 2, 1, 7, 5]","(0, 0.25)",ENG007A,ENG,A,Chinese,Tue Oct  9 17:19:32 2018,Mouse
2,0,1,0,92,7,4,0,-388,278,110,134,0,500,200,8000,"[(512, 384), (512, 384), (512, 384), (512, 384), (512, 384), (512, 384), (512, 384), (512, 384), (512, 384), (512, 384), (512, 384), (512, 384), (512, 384), (512, 384), (512, 384), (512, 384), (512, 384), (512, 384), (512, 384), (512, 384), (512, 384), (512, 384), (512, 384), (512, 384), (512, 384), (512, 384), (512, 384), (509, 384), (505, 384), (499, 384), (490, 384), (478, 384), (436, 384), (408, 384), (372, 384), (341, 384), (288, 384), (271, 384), (251, 384)]",180.0,"[6, 8, 3, 9, 4, 2, 1, 7, 5]","(0, 0.25)",ENG007A,ENG,A,Chinese,Tue Oct  9 17:19:32 2018,Mouse
2,0,1,0,93,5,5,1,432,272,160,135,0,500,200,8000,"[(512, 384), (512, 384), (512, 384), (512, 384), (512, 384), (512, 384), (512, 384), (512, 384), (512, 384), (512, 384), (512, 384), (512, 384), (512, 384), (512, 384), (512, 384), (512, 384), (512, 384), (512, 384), (512, 384), (512, 384), (512, 384), (512, 384), (512, 384), (512, 384), (512, 384), (512, 384), (512, 384), (514, 384), (518, 384), (536, 381), (551, 373), (566, 365), (586, 354), (612, 338), (623, 333), (635, 328), (646, 325), (663, 323), (675, 322), (686, 319), (697, 316), (724, 302), (735, 294), (744, 287)]",337.31002706674326,"[6, 8, 3, 9, 4, 2, 1, 7, 5]","(0, 0.25)",ENG007A,ENG,A,Chinese,Tue Oct  9 17:19:32 2018,Mouse
2,0,1,0,94,3,1,0,-531,81,450,135,0,500,200,8000,"[(512, 384), (512, 384), (512, 384), (512, 384), (512, 384), (512, 384), (512, 384), (512, 384), (511, 384), (506, 387), (487, 387), (474, 387), (454, 379), (439, 373), (404, 361), (393, 358), (381, 353), (377, 352), (373, 351), (373, 351), (373, 351), (373, 351), (373, 351), (373, 351), (373, 351), (372, 350), (369, 334), (368, 323), (366, 313), (366, 303), (366, 287), (366, 280), (366, 274), (366, 269), (366, 262), (366, 259), (366, 256), (367, 254), (370, 252), (372, 251), (374, 250), (374, 250), (377, 249), (378, 249), (379, 249), (379, 249), (383, 249), (383, 249), (385, 247), (389, 244), (403, 226), (413, 207), (425, 176), (440, 136)]",253.81079374297303,"[6, 8, 3, 9, 4, 2, 1, 7, 5]","(0, 0.25)",ENG007A,ENG,A,Chinese,Tue Oct  9 17:19:32 2018,Mouse
2,0,1,0,95,5,4,0,-402,292,110,136,0,500,200,8000,"[(512, 384), (512, 384), (512, 384), (512, 384), (512, 384), (512, 384), (512, 384), (512, 384), (512, 384), (512, 384), (512, 384), (512, 384), (512, 384), (512, 384), (512, 384), (512, 384), (512, 384), (512, 384), (512, 384), (512, 384), (512, 384), (512, 384), (512, 384), (512, 384), (512, 384), (512, 384), (512, 384), (512, 384), (512, 384), (505, 385), (500, 385), (493, 385), (484, 385), (461, 385), (444, 385), (431, 385), (412, 385), (362, 385), (320, 385), (278, 385), (231, 385)]",179.7961012895332,"[6, 8, 3, 9, 4, 2, 1, 7, 5]","(0, 0.25)",ENG007A,ENG,A,Chinese,Tue Oct  9 17:19:32 2018,Mouse
2,0,1,0,96,4,7,0,-2052,412,1640,137,0,500,200,8000,"[(512, 384), (512, 384), (512, 384), (512, 384), (512, 384), (512, 384), (512, 384), (512, 384), (512, 384), (512, 384), (512, 384), (512, 384), (512, 384), (512, 384), (512, 384), (512, 384), (512, 384), (512, 384), (512, 384), (512, 384), (512, 384), (512, 384), (512, 384), (512, 384), (512, 384), (512, 384), (512, 384), (512, 384), (512, 384), (512, 384), (512, 384), (512, 384), (512, 384), (512, 384), (512, 384), (512, 384), (512, 384), (512, 384), (512, 384), (512, 384), (512, 384), (513, 383), (514, 382), (514, 381), (514, 381), (514, 381), (514, 381), (514, 381), (514, 381), (514, 381), (511, 381), (505, 381), (501, 382), (493, 383), (493, 383), (493, 383), (493, 383), (493, 383), (493, 383), (492, 383), (491, 383), (486, 383), (477, 384), (469, 384), (457, 384), (432, 384), (423, 384), (416, 384), (409, 384), (398, 384), (392, 384), (386, 384), (381, 384), (372, 384), (371, 384), (370, 384), (370, 384), (370, 384), (370, 384), (370, 384), (370, 384), (370, 384), (370, 384), (370, 384), (370, 384), (370, 384), (370, 384), (370, 384), (370, 384), (370, 385), (370, 386), (371, 387), (371, 387), (373, 389), (373, 389), (373, 389), (373, 389), (373, 389), (373, 389), (373, 389), (373, 389), (373, 389), (373, 389), (373, 389), (373, 389), (373, 389), (374, 389), (374, 389), (376, 390), (377, 391), (380, 391), (381, 392), (383, 392), (388, 394), (388, 395), (390, 395), (391, 395), (394, 395), (394, 395), (394, 395), (395, 396), (397, 396), (397, 396), (397, 396), (397, 396), (398, 396), (398, 396), (398, 396), (398, 396), (398, 396), (398, 396), (398, 396), (398, 396), (398, 396), (398, 396), (398, 396), (398, 396), (398, 396), (398, 396), (398, 396), (398, 396), (398, 396), (398, 396), (398, 396), (398, 396), (398, 396), (398, 396), (398, 396), (398, 396), (400, 396), (400, 396), (400, 396), (400, 396), (400, 396), (400, 396), (400, 396), (400, 396), (400, 396), (400, 396), (400, 396), (400, 396), (400, 396), (400, 396), (400, 396), (400, 396), (400, 396), (400, 396), (400, 396), (400, 396), (400, 396), (400, 396), (400, 396), (400, 396), (400, 396), (400, 396), (400, 396), (400, 396), (400, 396), (400, 396), (400, 396), (400, 396), (400, 396), (400, 396), (400, 396), (400, 396), (400, 396), (400, 396), (400, 396), (400, 396), (401, 396), (401, 396), (403, 396), (404, 396), (411, 395), (415, 393), (421, 391), (426, 388), (443, 373), (457, 358), (479, 335), (505, 303), (557, 240), (579, 214), (602, 188), (618, 165), (637, 139)]",297.030860259843,"[6, 8, 3, 9, 4, 2, 1, 7, 5]","(0, 0.25)",ENG007A,ENG,A,Chinese,Tue Oct  9 17:19:32 2018,Mouse
2,0,1,0,97,2,2,1,371,91,280,138,0,500,200,8000,"[(512, 384), (512, 384), (512, 384), (512, 384), (512, 384), (512, 384), (512, 384), (512, 384), (512, 384), (511, 386), (511, 386), (511, 388), (509, 389), (502, 391), (498, 391), (490, 391), (480, 391), (461, 391), (451, 391), (439, 387), (423, 381), (393, 364), (374, 354), (359, 346), (347, 341), (326, 329), (317, 325), (312, 323), (309, 320), (304, 315), (301, 312), (298, 306), (295, 300), (292, 289), (291, 284), (288, 278), (288, 274), (287, 264)]",208.07248693585294,"[6, 8, 3, 9, 4, 2, 1, 7, 5]","(0, 0.25)",ENG007A,ENG,A,Chinese,Tue Oct  9 17:19:32 2018,Mouse
2,0,1,0,98,4,4,1,333,233,100,138,0,500,200,8000,"[(512, 384), (512, 384), (512, 384), (512, 384), (512, 384), (512, 384), (512, 384), (512, 384), (512, 384), (512, 384), (512, 384), (512, 384), (512, 384), (512, 384), (512, 384), (512, 384), (512, 384), (512, 384), (512, 384), (512, 384), (512, 384), (512, 384), (512, 384), (505, 384), (498, 384), (488, 384), (479, 384), (444, 380), (429, 379), (407, 375), (378, 372), (341, 366), (266, 355), (237, 354)]",186.22582906442577,"[6, 8, 3, 9, 4, 2, 1, 7, 5]","(0, 0.25)",ENG007A,ENG,A,Chinese,Tue Oct  9 17:19:32 2018,Mouse
2,0,1,0,99,8,3,0,-782,702,80,137,0,500,200,8000,"[(512, 384), (512, 384), (512, 384), (512, 384), (512, 384), (512, 384), (512, 384), (512, 384), (512, 384), (512, 384), (512, 384), (512, 384), (512, 384), (512, 384), (512, 384), (512, 384), (512, 384), (512, 384), (512, 384), (512, 384), (512, 384), (512, 384), (512, 384), (512, 384), (512, 384), (512, 384), (512, 384), (512, 384), (512, 384), (512, 384), (512, 384), (512, 384), (512, 384), (512, 384), (512, 384), (512, 384), (512, 384), (512, 384), (512, 384), (512, 384), (512, 384), (512, 384), (512, 384), (512, 384), (512, 384), (512, 384), (512, 384), (512, 384), (512, 384), (512, 384), (512, 384), (512, 384), (512, 384), (512, 384), (512, 384), (512, 384), (512, 384), (512, 384), (512, 384), (512, 384), (512, 384), (512, 384), (512, 384), (512, 384), (512, 384), (512, 384), (512, 384), (512, 384), (512, 384), (512, 384), (512, 389), (512, 393), (512, 403), (511, 415), (502, 463), (500, 502), (493, 535), (490, 564), (488, 637)]",95.4189569976703,"[6, 8, 3, 9, 4, 2, 1, 7, 5]","(0, 0.25)",ENG007A,ENG,A,Chinese,Tue Oct  9 17:19:32 2018,Mouse
2,0,1,0,100,2,2,1,411,121,290,138,0,500,200,8000,"[(512, 384), (512, 384), (512, 384), (512, 384), (512, 384), (512, 384), (512, 384), (512, 384), (512, 384), (512, 384), (512, 384), (512, 384), (511, 383), (508, 380), (507, 380), (507, 380), (506, 379), (506, 379), (506, 379), (506, 379), (505, 379), (505, 378), (505, 378), (505, 378), (505, 378), (505, 377), (504, 375), (503, 371), (500, 357), (498, 349), (494, 339), (488, 326), (473, 303), (460, 291), (449, 283), (439, 275), (415, 257), (400, 248), (386, 241), (368, 231), (338, 214), (319, 202)]",223.31980559507255,"[6, 8, 3, 9, 4, 2, 1, 7, 5]","(0, 0.25)",ENG007A,ENG,A,Chinese,Tue Oct  9 17:19:32 2018,Mouse
2,0,1,0,101,4,4,1,352,262,90,138,0,500,200,8000,"[(512, 384), (512, 384), (512, 384), (512, 384), (512, 384), (512, 384), (512, 384), (512, 384), (512, 384), (512, 384), (512, 384), (512, 384), (512, 384), (512, 384), (512, 384), (512, 384), (512, 384), (512, 384), (512, 384), (512, 384), (512, 384), (512, 384), (512, 384), (512, 384), (512, 384), (512, 384), (511, 385), (501, 385), (491, 385), (481, 385), (468, 385), (431, 385), (395, 385), (356, 385), (314, 385), (220, 385)]",179.80378234410608,"[6, 8, 3, 9, 4, 2, 1, 7, 5]","(0, 0.25)",ENG007A,ENG,A,Chinese,Tue Oct  9 17:19:32 2018,Mouse
2,0,1,0,102,6,6,1,402,62,340,137,0,500,200,8000,"[(513, 383), (513, 383), (513, 383), (513, 383), (513, 383), (513, 383), (514, 383), (514, 383), (514, 383), (514, 383), (514, 383), (514, 383), (514, 383), (514, 383), (514, 383), (515, 383), (515, 383), (516, 383), (518, 383), (518, 383), (519, 383), (520, 383), (520, 383), (520, 383), (521, 383), (522, 383), (522, 383), (523, 383), (525, 383), (526, 383), (527, 383), (531, 384), (542, 388), (553, 390), (570, 395), (591, 398), (634, 408), (660, 416), (691, 428), (720, 438), (772, 451)]",14.450297900489273,"[6, 8, 3, 9, 4, 2, 1, 7, 5]","(0, 0.25)",ENG007A,ENG,A,Chinese,Tue Oct  9 17:19:32 2018,Mouse
2,0,1,0,103,9,4,0,-384,314,70,136,0,500,200,8000,"[(512, 384), (512, 384), (512, 384), (512, 384), (512, 384), (512, 384), (512, 384), (512, 384), (512, 384), (512, 384), (512, 384), (512, 384), (512, 384), (512, 384), (512, 384), (512, 384), (512, 384), (512, 384), (512, 384), (512, 384), (512, 384), (512, 384), (512, 384), (512, 384), (512, 384), (512, 384), (512, 384), (512, 384), (512, 384), (512, 384), (512, 384), (507, 381), (496, 379), (479, 376), (458, 375), (383, 366), (337, 359), (289, 353), (243, 347)]",187.8316895341611,"[6, 8, 3, 9, 4, 2, 1, 7, 5]","(0, 0.25)",ENG007A,ENG,A,Chinese,Tue Oct  9 17:19:32 2018,Mouse
2,0,1,0,104,1,1,1,291,241,50,137,0,500,200,8000,"[(512, 384), (512, 384), (512, 384), (512, 384), (512, 384), (512, 384), (512, 384), (512, 384), (512, 384), (512, 384), (512, 384), (512, 384), (512, 384), (512, 384), (512, 384), (512, 384), (512, 384), (512, 384), (512, 384), (512, 384), (512, 384), (512, 384), (512, 384), (512, 384), (513, 382), (518, 354), (521, 319), (521, 267), (520, 219), (504, 116)]",268.2901859558585,"[6, 8, 3, 9, 4, 2, 1, 7, 5]","(0, 0.25)",ENG007A,ENG,A,Chinese,Tue Oct  9 17:19:32 2018,Mouse
2,0,1,0,105,4,4,1,313,183,130,137,0,500,200,8000,"[(512, 384), (512, 384), (512, 384), (512, 384), (512, 384), (512, 384), (512, 384), (512, 384), (512, 384), (512, 384), (512, 384), (512, 384), (512, 384), (512, 384), (512, 384), (512, 384), (512, 384), (512, 384), (510, 384), (510, 384), (507, 386), (506, 386), (503, 386), (497, 386), (481, 386), (470, 386), (458, 386), (441, 386), (387, 389), (352, 396), (304, 400), (244, 408)]",174.88268515002736,"[6, 8, 3, 9, 4, 2, 1, 7, 5]","(0, 0.25)",ENG007A,ENG,A,Chinese,Tue Oct  9 17:19:32 2018,Mouse
2,0,1,0,106,2,2,1,412,292,120,136,0,500,200,8000,"[(512, 384), (512, 384), (512, 384), (512, 384), (512, 384), (512, 384), (512, 384), (512, 384), (512, 384), (512, 384), (512, 384), (512, 384), (512, 384), (512, 384), (512, 384), (512, 384), (512, 384), (512, 384), (512, 384), (512, 384), (512, 384), (512, 384), (512, 384), (512, 384), (512, 384), (512, 384), (512, 384), (512, 384), (512, 384), (514, 383), (514, 381), (514, 379), (514, 376), (506, 363), (500, 357), (491, 346), (482, 336), (443, 300), (420, 280), (394, 262), (368, 241), (310, 204)]",221.70388402745368,"[6, 8, 3, 9, 4, 2, 1, 7, 5]","(0, 0.25)",ENG007A,ENG,A,Chinese,Tue Oct  9 17:19:32 2018,Mouse
2,0,1,0,107,6,4,0,-692,322,370,135,0,500,200,8000,"[(512, 384), (512, 384), (512, 384), (512, 384), (512, 384), (512, 384), (512, 384), (512, 384), (512, 384), (512, 384), (512, 384), (512, 384), (512, 384), (512, 384), (512, 384), (512, 384), (512, 384), (512, 384), (512, 384), (512, 384), (512, 384), (512, 384), (512, 384), (512, 384), (512, 384), (512, 384), (512, 384), (512, 384), (512, 384), (512, 384), (512, 384), (512, 384), (510, 384), (510, 384), (506, 384), (503, 384), (491, 384), (484, 384), (478, 384), (473, 386), (465, 390), (460, 394), (455, 397), (451, 400), (442, 407), (438, 408), (433, 412), (428, 414), (424, 416), (424, 416), (423, 416), (423, 416), (423, 416), (423, 416), (423, 416), (423, 416), (420, 416), (419, 416), (418, 414), (417, 413), (414, 412), (412, 410), (410, 410), (407, 409), (396, 409), (387, 409), (373, 409), (355, 409), (285, 409), (242, 402)]",176.18592516570965,"[6, 8, 3, 9, 4, 2, 1, 7, 5]","(0, 0.25)",ENG007A,ENG,A,Chinese,Tue Oct  9 17:19:32 2018,Mouse
2,0,1,0,108,7,2,0,-321,141,180,136,0,500,200,8000,"[(512, 384), (512, 384), (512, 384), (512, 384), (512, 384), (512, 384), (512, 384), (512, 384), (512, 384), (512, 384), (512, 384), (512, 384), (512, 384), (512, 384), (512, 382), (509, 371), (509, 370), (506, 366), (504, 362), (499, 350), (495, 342), (491, 338), (488, 334), (480, 326), (473, 320), (468, 316), (459, 309), (437, 298), (420, 289), (402, 280), (381, 272), (325, 245), (298, 229)]",215.91577907529856,"[6, 8, 3, 9, 4, 2, 1, 7, 5]","(0, 0.25)",ENG007A,ENG,A,Chinese,Tue Oct  9 17:19:32 2018,Mouse
2,0,1,0,109,3,8,0,-482,392,90,137,0,500,200,8000,"[(512, 384), (512, 384), (512, 384), (512, 384), (512, 384), (512, 384), (512, 384), (512, 384), (512, 384), (512, 384), (512, 384), (512, 384), (512, 384), (512, 384), (512, 384), (512, 384), (512, 384), (512, 384), (512, 384), (512, 384), (512, 384), (512, 384), (512, 384), (512, 384), (512, 384), (512, 384), (512, 384), (512, 384), (512, 384), (512, 384), (512, 384), (512, 384), (512, 384), (512, 384), (512, 384), (512, 384), (512, 384), (512, 384), (512, 384), (512, 386), (512, 386), (513, 388), (516, 392), (523, 406), (536, 427), (553, 455), (575, 488), (637, 562), (662, 596)]",54.718792202825625,"[6, 8, 3, 9, 4, 2, 1, 7, 5]","(0, 0.25)",ENG007A,ENG,A,Chinese,Tue Oct  9 17:19:32 2018,Mouse
2,0,1,0,110,6,6,1,381,11,370,138,0,500,200,8000,"[(512, 384), (506, 378), (492, 369), (486, 365), (479, 360), (474, 356), (464, 344), (460, 339), (459, 338), (456, 334), (456, 331), (456, 330), (456, 328), (456, 328), (456, 328), (456, 328), (456, 327), (456, 327), (456, 326), (456, 326), (455, 324), (455, 322), (455, 319), (455, 318), (455, 318), (455, 318), (455, 316), (455, 316), (456, 316), (460, 317), (471, 325), (478, 331), (489, 337), (502, 344), (548, 373), (592, 395), (643, 422), (700, 445), (830, 488)]",18.11002349990054,"[6, 8, 3, 9, 4, 2, 1, 7, 5]","(0, 0.25)",ENG007A,ENG,A,Chinese,Tue Oct  9 17:19:32 2018,Mouse
2,0,1,0,111,8,8,1,493,383,110,138,0,500,200,8000,"[(512, 384), (512, 384), (512, 384), (512, 384), (512, 384), (512, 384), (512, 384), (512, 384), (512, 384), (512, 384), (512, 384), (512, 384), (512, 384), (512, 384), (512, 384), (512, 384), (512, 384), (512, 384), (512, 384), (512, 384), (512, 384), (512, 384), (512, 384), (512, 384), (512, 384), (512, 384), (512, 384), (512, 384), (512, 384), (512, 384), (512, 384), (512, 384), (512, 384), (512, 384), (512, 384), (512, 384), (512, 384), (512, 384), (512, 386), (512, 393), (515, 415), (519, 429), (524, 447), (533, 468), (560, 512), (570, 531), (582, 552), (594, 572), (620, 606), (628, 618)]",63.631166478815935,"[6, 8, 3, 9, 4, 2, 1, 7, 5]","(0, 0.25)",ENG007A,ENG,A,Chinese,Tue Oct  9 17:19:32 2018,Mouse
2,0,1,0,112,4,4,1,367,107,260,137,0,500,200,8000,"[(512, 384), (512, 384), (512, 384), (512, 384), (512, 384), (512, 384), (512, 384), (512, 384), (512, 384), (512, 384), (510, 381), (508, 380), (505, 379), (501, 377), (495, 375), (493, 374), (489, 373), (489, 373), (486, 373), (486, 373), (486, 373), (486, 373), (486, 373), (486, 373), (486, 373), (486, 373), (484, 371), (483, 371), (481, 370), (474, 370), (451, 366), (432, 365), (405, 358), (376, 357), (304, 346), (279, 341), (259, 340)]",189.86580694308435,"[6, 8, 3, 9, 4, 2, 1, 7, 5]","(0, 0.25)",ENG007A,ENG,A,Chinese,Tue Oct  9 17:19:32 2018,Mouse
2,0,1,0,113,8,4,0,-396,186,210,136,0,500,200,8000,"[(512, 384), (512, 384), (512, 384), (512, 384), (512, 384), (512, 384), (512, 384), (512, 384), (512, 384), (512, 384), (512, 384), (512, 384), (512, 384), (512, 384), (512, 384), (512, 384), (512, 384), (512, 384), (513, 384), (513, 384), (513, 385), (502, 386), (494, 386), (485, 386), (477, 386), (455, 386), (443, 386), (431, 386), (420, 386), (398, 386), (386, 386), (374, 386), (363, 386), (335, 386), (319, 383), (307, 382), (294, 381), (274, 380), (264, 377), (254, 375)]",181.9978798564767,"[6, 8, 3, 9, 4, 2, 1, 7, 5]","(0, 0.25)",ENG007A,ENG,A,Chinese,Tue Oct  9 17:19:32 2018,Mouse
2,0,1,0,114,5,1,0,-412,262,150,137,0,500,200,8000,"[(512, 384), (512, 384), (512, 384), (512, 384), (512, 384), (512, 384), (512, 384), (512, 384), (512, 384), (512, 384), (512, 384), (512, 384), (512, 384), (512, 384), (512, 384), (512, 384), (512, 384), (512, 384), (512, 384), (512, 384), (512, 384), (512, 384), (512, 384), (512, 384), (512, 384), (512, 384), (517, 379), (519, 376), (520, 372), (523, 366), (528, 345), (530, 334), (531, 319), (531, 306), (531, 274), (531, 255), (526, 238), (520, 221), (510, 192), (505, 178), (495, 154), (486, 131)]",264.13249393061864,"[6, 8, 3, 9, 4, 2, 1, 7, 5]","(0, 0.25)",ENG007A,ENG,A,Chinese,Tue Oct  9 17:19:32 2018,Mouse
2,0,1,0,115,7,7,1,372,242,130,138,0,500,200,8000,"[(512, 384), (512, 384), (512, 384), (512, 384), (512, 384), (512, 384), (512, 384), (512, 384), (512, 384), (512, 384), (512, 384), (512, 384), (512, 384), (512, 384), (512, 384), (512, 384), (512, 384), (512, 384), (512, 384), (512, 384), (512, 384), (512, 384), (512, 384), (512, 384), (514, 384), (521, 382), (528, 381), (536, 378), (546, 373), (566, 360), (574, 349), (581, 338), (587, 320), (604, 271), (618, 244), (628, 226), (642, 206), (664, 172)]",305.63980919808665,"[6, 8, 3, 9, 4, 2, 1, 7, 5]","(0, 0.25)",ENG007A,ENG,A,Chinese,Tue Oct  9 17:19:32 2018,Mouse
2,0,1,0,116,1,4,0,-352,142,210,138,0,500,200,8000,"[(512, 384), (512, 384), (512, 384), (512, 384), (512, 384), (512, 384), (512, 384), (512, 384), (512, 384), (512, 384), (512, 384), (512, 384), (512, 384), (512, 384), (511, 384), (507, 385), (501, 385), (494, 385), (484, 385), (468, 385), (459, 386), (453, 389), (448, 390), (431, 391), (422, 391), (412, 392), (406, 393), (393, 394), (384, 395), (375, 396), (363, 400), (340, 402), (329, 403), (315, 405), (300, 408), (264, 417)]",172.42049022310974,"[6, 8, 3, 9, 4, 2, 1, 7, 5]","(0, 0.25)",ENG007A,ENG,A,Chinese,Tue Oct  9 17:19:32 2018,Mouse
2,0,1,0,117,8,4,0,-901,381,520,139,0,500,200,8000,"[(512, 384), (512, 384), (512, 384), (512, 384), (512, 384), (512, 384), (512, 384), (512, 384), (512, 384), (512, 384), (512, 384), (512, 384), (512, 384), (512, 384), (512, 384), (512, 384), (512, 384), (512, 384), (512, 384), (512, 384), (512, 384), (512, 384), (512, 384), (512, 384), (512, 384), (512, 384), (512, 384), (512, 384), (512, 384), (512, 384), (512, 384), (512, 384), (512, 384), (512, 384), (512, 384), (512, 384), (512, 384), (512, 384), (513, 382), (512, 374), (491, 359), (474, 348), (458, 337), (438, 325), (405, 310), (397, 309), (391, 307), (388, 307), (388, 307), (388, 307), (388, 307), (388, 307), (388, 307), (388, 307), (388, 307), (388, 307), (388, 307), (388, 307), (388, 307), (388, 307), (388, 307), (388, 307), (388, 307), (388, 307), (388, 307), (388, 307), (388, 307), (388, 307), (388, 307), (388, 307), (388, 307), (388, 307), (388, 307), (388, 307), (388, 307), (388, 309), (387, 315), (386, 315), (386, 317), (383, 320), (375, 323), (371, 325), (368, 327), (366, 327), (358, 331), (352, 333), (341, 336), (330, 338), (294, 344), (267, 348), (227, 350)]",186.80313333350307,"[6, 8, 3, 9, 4, 2, 1, 7, 5]","(0, 0.25)",ENG007A,ENG,A,Chinese,Tue Oct  9 17:19:32 2018,Mouse
2,0,1,0,118,7,7,1,415,155,260,140,0,500,200,8000,"[(512, 384), (512, 384), (512, 384), (512, 384), (512, 384), (512, 384), (512, 384), (512, 384), (512, 384), (512, 384), (512, 384), (512, 384), (512, 384), (512, 384), (512, 384), (513, 382), (516, 378), (519, 370), (521, 366), (524, 362), (525, 359), (529, 351), (529, 349), (530, 346), (532, 343), (534, 336), (535, 331), (537, 325), (538, 316), (541, 306), (544, 298), (546, 290), (548, 283), (552, 271), (553, 263), (556, 254), (558, 247), (564, 228), (570, 213), (579, 197), (588, 178), (605, 149)]",291.59091895824946,"[6, 8, 3, 9, 4, 2, 1, 7, 5]","(0, 0.25)",ENG007A,ENG,A,Chinese,Tue Oct  9 17:19:32 2018,Mouse
2,0,1,0,119,2,4,0,-366,16,350,140,0,500,200,8000,"[(512, 384), (511, 384), (509, 385), (509, 385), (508, 386), (507, 387), (505, 387), (502, 390), (500, 390), (499, 390), (492, 394), (487, 396), (483, 400), (478, 401), (472, 404), (469, 406), (467, 407), (465, 408), (463, 408), (462, 408), (461, 409), (460, 410), (452, 411), (447, 411), (436, 411), (425, 411), (396, 411), (376, 410), (358, 409), (333, 403), (310, 395), (300, 390), (291, 384), (286, 379), (277, 357), (271, 343), (265, 326)]",193.21465858563533,"[6, 8, 3, 9, 4, 2, 1, 7, 5]","(0, 0.25)",ENG007A,ENG,A,Chinese,Tue Oct  9 17:19:32 2018,Mouse
2,0,1,0,120,5,6,0,-342,232,110,141,0,500,200,8000,"[(512, 384), (512, 384), (512, 384), (512, 384), (512, 384), (512, 384), (512, 384), (512, 384), (512, 384), (512, 384), (512, 384), (512, 384), (512, 384), (512, 384), (512, 384), (512, 384), (512, 384), (512, 384), (512, 384), (512, 384), (512, 384), (512, 384), (512, 384), (513, 384), (516, 385), (520, 388), (537, 393), (548, 395), (558, 400), (572, 401), (615, 413), (642, 419), (683, 430), (722, 440), (799, 460)]",14.831967020665754,"[6, 8, 3, 9, 4, 2, 1, 7, 5]","(0, 0.25)",ENG007A,ENG,A,Chinese,Tue Oct  9 17:19:32 2018,Mouse
2,0,1,0,121,3,3,1,612,12,600,142,0,500,200,8000,"[(512, 382), (512, 381), (512, 381), (512, 379), (511, 378), (511, 378), (511, 378), (511, 377), (508, 377), (508, 377), (506, 377), (505, 375), (505, 375), (505, 375), (505, 375), (505, 375), (504, 374), (503, 374), (503, 374), (503, 374), (502, 374), (502, 374), (502, 374), (502, 374), (502, 374), (502, 374), (502, 374), (502, 374), (502, 374), (502, 374), (502, 374), (502, 374), (502, 374), (502, 374), (502, 374), (502, 374), (502, 374), (502, 374), (502, 374), (502, 374), (502, 374), (502, 374), (502, 374), (502, 374), (502, 374), (502, 374), (502, 374), (502, 374), (502, 375), (501, 377), (501, 378), (501, 381), (501, 393), (501, 403), (501, 415), (501, 430), (496, 477), (493, 506), (488, 541), (483, 571), (471, 630), (469, 646)]",99.32041344677648,"[6, 8, 3, 9, 4, 2, 1, 7, 5]","(0, 0.25)",ENG007A,ENG,A,Chinese,Tue Oct  9 17:19:32 2018,Mouse
2,0,1,0,122,5,5,1,404,184,220,142,0,500,200,8000,"[(512, 384), (512, 384), (512, 384), (512, 384), (512, 384), (512, 384), (512, 384), (512, 384), (512, 384), (512, 384), (512, 384), (512, 384), (512, 384), (512, 384), (512, 384), (512, 384), (512, 384), (512, 384), (514, 384), (516, 383), (516, 383), (517, 383), (517, 383), (517, 383), (517, 383), (517, 383), (517, 383), (517, 383), (519, 382), (519, 381), (523, 379), (526, 378), (531, 376), (537, 373), (562, 366), (580, 361), (613, 350), (635, 344), (696, 318), (723, 303), (751, 286)]",337.7043185521947,"[6, 8, 3, 9, 4, 2, 1, 7, 5]","(0, 0.25)",ENG007A,ENG,A,Chinese,Tue Oct  9 17:19:32 2018,Mouse
2,0,1,0,123,9,9,1,501,21,480,141,0,500,200,8000,"[(512, 384), (512, 384), (511, 384), (511, 384), (511, 384), (509, 384), (508, 385), (508, 386), (508, 386), (506, 386), (505, 386), (505, 387), (503, 387), (502, 387), (499, 389), (499, 389), (498, 389), (496, 389), (492, 390), (491, 390), (489, 390), (486, 390), (479, 392), (477, 392), (472, 393), (468, 393), (455, 395), (446, 396), (439, 397), (431, 398), (411, 404), (404, 405), (394, 409), (387, 412), (379, 418), (376, 419), (376, 420), (375, 421), (373, 423), (373, 425), (373, 426), (373, 428), (373, 435), (373, 439), (373, 445), (372, 452), (366, 473), (361, 485), (356, 502), (349, 522), (333, 560)]",135.48417816048098,"[6, 8, 3, 9, 4, 2, 1, 7, 5]","(0, 0.25)",ENG007A,ENG,A,Chinese,Tue Oct  9 17:19:32 2018,Mouse
2,0,1,0,124,6,6,1,423,13,410,140,0,500,200,8000,"[(514, 383), (516, 383), (520, 380), (523, 379), (532, 379), (537, 377), (540, 376), (543, 375), (549, 373), (550, 372), (553, 372), (555, 371), (557, 371), (557, 371), (558, 371), (559, 370), (559, 370), (559, 370), (559, 370), (560, 369), (561, 368), (561, 368), (563, 368), (564, 368), (567, 368), (567, 368), (568, 368), (570, 368), (572, 368), (575, 368), (577, 371), (579, 373), (587, 380), (592, 385), (598, 391), (607, 397), (624, 413), (634, 422), (647, 432), (660, 443), (701, 478), (717, 492), (734, 503)]",28.192912264269815,"[6, 8, 3, 9, 4, 2, 1, 7, 5]","(0, 0.25)",ENG007A,ENG,A,Chinese,Tue Oct  9 17:19:32 2018,Mouse
2,0,1,0,125,7,7,1,702,62,640,139,0,500,200,8000,"[(512, 384), (512, 384), (512, 384), (512, 384), (512, 384), (512, 384), (509, 380), (509, 379), (509, 378), (509, 375), (508, 366), (508, 360), (505, 352), (504, 345), (502, 330), (502, 320), (499, 309), (497, 299), (494, 280), (493, 270), (491, 261), (491, 255), (491, 238), (491, 230), (491, 222), (491, 214), (491, 198), (491, 194), (493, 188), (494, 185), (499, 176), (500, 173), (503, 170), (506, 166), (512, 162), (516, 159), (518, 159), (520, 159), (524, 157), (524, 157), (527, 157), (528, 157), (529, 157), (529, 157), (531, 157), (531, 157), (533, 160), (533, 161), (533, 162), (533, 162), (533, 165), (533, 165), (533, 167), (534, 170), (537, 174), (538, 177), (538, 179), (539, 181), (542, 186), (545, 189), (546, 191), (548, 192), (553, 193), (556, 193), (559, 193), (561, 193), (575, 185), (582, 180), (589, 173), (597, 165), (609, 150)]",292.5154694738066,"[6, 8, 3, 9, 4, 2, 1, 7, 5]","(0, 0.25)",ENG007A,ENG,A,Chinese,Tue Oct  9 17:19:32 2018,Mouse
2,0,1,0,126,9,9,1,513,13,500,138,0,500,200,8000,"[(512, 384), (508, 385), (503, 388), (499, 390), (496, 394), (496, 394), (495, 394), (495, 394), (495, 394), (495, 394), (495, 394), (495, 394), (495, 395), (494, 395), (493, 396), (491, 399), (489, 403), (488, 408), (485, 411), (484, 416), (484, 416), (484, 417), (484, 419), (484, 419), (484, 421), (484, 423), (484, 427), (485, 432), (486, 434), (486, 435), (486, 435), (486, 435), (486, 435), (486, 435), (486, 435), (486, 435), (486, 435), (486, 435), (486, 435), (486, 435), (486, 436), (485, 437), (479, 439), (461, 444), (454, 445), (439, 452), (418, 460), (379, 481), (360, 491), (332, 500), (309, 509), (261, 531)]",149.64431263715568,"[6, 8, 3, 9, 4, 2, 1, 7, 5]","(0, 0.25)",ENG007A,ENG,A,Chinese,Tue Oct  9 17:19:32 2018,Mouse
2,0,1,0,127,9,9,1,362,62,300,137,0,500,200,8000,"[(512, 384), (512, 384), (512, 384), (512, 384), (512, 384), (512, 384), (512, 383), (512, 382), (511, 380), (511, 380), (510, 379), (508, 378), (506, 378), (505, 378), (504, 377), (501, 377), (495, 377), (493, 377), (488, 379), (479, 382), (459, 394), (449, 400), (439, 407), (430, 412), (412, 424), (403, 432), (394, 441), (385, 451), (368, 466), (360, 472), (355, 476), (350, 480), (339, 488), (331, 495), (319, 503), (304, 512), (267, 540)]",147.51367811364545,"[6, 8, 3, 9, 4, 2, 1, 7, 5]","(0, 0.25)",ENG007A,ENG,A,Chinese,Tue Oct  9 17:19:32 2018,Mouse
2,0,1,0,128,3,3,1,644,344,300,136,0,500,200,8000,"[(512, 384), (512, 384), (512, 384), (512, 384), (512, 384), (512, 384), (512, 384), (512, 384), (512, 384), (512, 384), (512, 384), (512, 384), (512, 384), (512, 384), (512, 384), (512, 384), (512, 384), (512, 384), (512, 384), (512, 384), (512, 384), (512, 384), (512, 384), (512, 384), (512, 384), (512, 384), (512, 384), (512, 384), (512, 384), (512, 384), (512, 384), (512, 384), (512, 384), (512, 384), (512, 383), (514, 383), (514, 383), (515, 385), (516, 388), (519, 398), (520, 401), (521, 404), (521, 407), (521, 413), (521, 415), (522, 420), (522, 421), (522, 422), (522, 422), (522, 423), (522, 423), (522, 424), (522, 424), (522, 426), (518, 430), (511, 443), (507, 451), (502, 465), (497, 482), (490, 512), (482, 537), (480, 563), (479, 597), (479, 625), (479, 635)]",97.48995268463244,"[6, 8, 3, 9, 4, 2, 1, 7, 5]","(0, 0.25)",ENG007A,ENG,A,Chinese,Tue Oct  9 17:19:32 2018,Mouse
2,0,1,0,129,6,4,0,-641,142,499,135,0,500,200,8000,"[(512, 384), (512, 384), (512, 384), (512, 384), (512, 384), (512, 384), (512, 384), (512, 384), (512, 384), (512, 384), (512, 384), (512, 384), (512, 384), (512, 384), (511, 383), (511, 377), (506, 372), (501, 368), (494, 363), (485, 357), (480, 352), (472, 346), (467, 341), (457, 331), (453, 328), (448, 319), (443, 311), (433, 298), (429, 293), (427, 290), (424, 288), (422, 286), (421, 285), (421, 285), (421, 285), (421, 285), (421, 285), (421, 285), (421, 285), (421, 285), (421, 285), (420, 285), (420, 285), (417, 286), (415, 290), (413, 295), (410, 302), (405, 313), (403, 317), (400, 320), (399, 322), (389, 331), (382, 334), (373, 338), (365, 341), (340, 348), (326, 350), (313, 355), (302, 356), (287, 358), (282, 359), (277, 359), (272, 360), (264, 360), (261, 360)]",185.46187584631394,"[6, 8, 3, 9, 4, 2, 1, 7, 5]","(0, 0.25)",ENG007A,ENG,A,Chinese,Tue Oct  9 17:19:32 2018,Mouse
2,0,1,0,130,7,5,0,-382,232,150,136,0,500,200,8000,"[(512, 384), (512, 384), (512, 384), (512, 384), (512, 384), (512, 384), (512, 384), (512, 384), (512, 384), (512, 384), (512, 384), (512, 384), (512, 384), (512, 384), (512, 384), (512, 384), (512, 384), (512, 384), (512, 384), (512, 384), (512, 384), (512, 384), (512, 384), (513, 383), (514, 383), (514, 383), (516, 382), (518, 381), (520, 380), (524, 379), (530, 376), (545, 370), (557, 365), (578, 355), (607, 345), (665, 320), (694, 306), (720, 296), (752, 282)]",336.97450799147197,"[6, 8, 3, 9, 4, 2, 1, 7, 5]","(0, 0.25)",ENG007A,ENG,A,Chinese,Tue Oct  9 17:19:32 2018,Mouse
