NativeLangNumber,LanuageNumber,SessionNumber,Block,TrialNum,ConditionNumber,Response,Accuracy,RT,MovementOnsetTime,TimeInMotion,SignalContrast,SignalContrastNumber,StimDisplayTime,MaskTime,MaxResponseTime,MousePositionXY,MouseAngle,WheelOrder,NoiseMuSigma,ParticipantID,LanuageTested,SessionTested,NativeLanuage,Date,ResponseDevice
2,0,4,0,1,4,4,1,498,418,80,153,0,500,200,8000,"[(512, 384), (512, 384), (512, 384), (512, 384), (512, 384), (512, 384), (512, 384), (512, 384), (512, 384), (512, 384), (512, 384), (512, 384), (512, 384), (512, 384), (512, 384), (512, 384), (512, 384), (512, 384), (512, 384), (512, 384), (512, 384), (512, 384), (512, 384), (512, 384), (512, 384), (512, 384), (512, 384), (512, 384), (512, 384), (512, 384), (512, 384), (512, 384), (512, 384), (512, 384), (512, 384), (512, 384), (512, 384), (512, 384), (512, 384), (512, 384), (512, 384), (517, 360), (522, 345), (531, 325), (539, 306), (560, 260), (568, 232), (576, 204), (585, 176), (603, 132)]",289.85521436932106,"[1, 2, 8, 9, 7, 5, 6, 4, 3]","(0, 0.25)",ENG001D,ENG,D,Chinese,Thu Aug 30 16:00:51 2018,Mouse
2,0,4,0,2,9,9,1,492,422,70,153,0,500,200,8000,"[(512, 384), (512, 384), (512, 384), (512, 384), (512, 384), (512, 384), (512, 384), (512, 384), (512, 384), (512, 384), (512, 384), (512, 384), (512, 384), (512, 384), (512, 384), (512, 384), (512, 384), (512, 384), (512, 384), (512, 384), (512, 384), (512, 384), (512, 384), (512, 384), (512, 384), (512, 384), (512, 384), (512, 384), (512, 384), (512, 384), (512, 384), (512, 384), (512, 384), (512, 384), (512, 384), (512, 384), (512, 384), (512, 384), (512, 384), (512, 384), (512, 384), (512, 384), (510, 384), (503, 392), (469, 426), (440, 453), (413, 478), (384, 503), (329, 551), (302, 569)]",138.62148470411734,"[1, 2, 8, 9, 7, 5, 6, 4, 3]","(0, 0.25)",ENG001D,ENG,D,Chinese,Thu Aug 30 16:00:51 2018,Mouse
2,0,4,0,3,8,8,1,576,476,100,152,0,500,200,8000,"[(512, 384), (512, 384), (512, 384), (512, 384), (512, 384), (512, 384), (512, 384), (512, 384), (512, 384), (512, 384), (512, 384), (512, 384), (512, 384), (512, 384), (512, 384), (512, 384), (512, 384), (512, 384), (512, 384), (512, 384), (512, 384), (512, 384), (512, 384), (512, 384), (512, 384), (512, 384), (512, 384), (512, 384), (512, 384), (512, 384), (512, 384), (512, 384), (512, 384), (512, 384), (512, 384), (512, 384), (512, 384), (512, 384), (512, 384), (512, 384), (512, 384), (512, 384), (512, 384), (512, 384), (512, 384), (512, 384), (512, 384), (511, 384), (506, 396), (488, 443), (478, 469), (464, 488), (452, 507), (437, 536), (430, 552), (419, 571), (413, 589), (401, 630)]",114.2858251556513,"[1, 2, 8, 9, 7, 5, 6, 4, 3]","(0, 0.25)",ENG001D,ENG,D,Chinese,Thu Aug 30 16:00:51 2018,Mouse
2,0,4,0,4,2,2,1,483,353,130,151,0,500,200,8000,"[(512, 384), (512, 384), (512, 384), (512, 384), (512, 384), (512, 384), (512, 384), (512, 384), (512, 384), (512, 384), (512, 384), (512, 384), (512, 384), (512, 384), (512, 384), (512, 384), (512, 384), (512, 384), (512, 384), (512, 384), (512, 384), (512, 384), (512, 384), (512, 384), (512, 384), (512, 384), (512, 384), (512, 384), (512, 384), (512, 384), (512, 384), (512, 384), (512, 384), (512, 384), (512, 384), (511, 389), (511, 393), (511, 403), (511, 412), (516, 437), (522, 452), (526, 468), (535, 492), (551, 532), (558, 550), (565, 568), (572, 588), (587, 621), (597, 640)]",71.63222087609871,"[1, 2, 8, 9, 7, 5, 6, 4, 3]","(0, 0.25)",ENG001D,ENG,D,Chinese,Thu Aug 30 16:00:51 2018,Mouse
2,0,4,0,5,5,5,1,472,302,170,150,0,500,200,8000,"[(512, 384), (512, 384), (512, 384), (512, 384), (512, 384), (512, 384), (512, 384), (512, 384), (512, 384), (512, 384), (512, 384), (512, 384), (512, 384), (512, 384), (512, 384), (512, 384), (512, 384), (512, 384), (512, 384), (512, 384), (512, 384), (512, 384), (512, 384), (512, 384), (512, 384), (512, 384), (512, 384), (512, 384), (512, 384), (512, 384), (510, 383), (506, 378), (502, 375), (498, 371), (493, 368), (487, 362), (483, 358), (479, 355), (472, 347), (455, 334), (445, 327), (433, 318), (423, 311), (389, 287), (372, 276), (355, 265), (341, 254), (312, 234)]",216.86989764584402,"[1, 2, 8, 9, 7, 5, 6, 4, 3]","(0, 0.25)",ENG001D,ENG,D,Chinese,Thu Aug 30 16:00:51 2018,Mouse
2,0,4,0,6,3,3,1,584,454,130,149,0,500,200,8000,"[(512, 384), (512, 384), (512, 384), (512, 384), (512, 384), (512, 384), (512, 384), (512, 384), (512, 384), (512, 384), (512, 384), (512, 384), (512, 384), (512, 384), (512, 384), (512, 384), (512, 384), (512, 384), (512, 384), (512, 384), (512, 384), (512, 384), (512, 384), (512, 384), (512, 384), (512, 384), (512, 384), (512, 384), (512, 384), (512, 384), (512, 384), (512, 384), (512, 384), (512, 384), (512, 384), (512, 384), (512, 384), (512, 384), (512, 384), (512, 384), (512, 384), (512, 384), (512, 384), (512, 384), (512, 384), (514, 383), (524, 380), (549, 373), (564, 372), (582, 368), (596, 367), (640, 358), (659, 355), (680, 351), (694, 347), (726, 340), (737, 338), (751, 333), (763, 331)]",348.0768333641554,"[1, 2, 8, 9, 7, 5, 6, 4, 3]","(0, 0.25)",ENG001D,ENG,D,Chinese,Thu Aug 30 16:00:51 2018,Mouse
2,0,4,0,7,8,8,1,541,381,160,148,0,500,200,8000,"[(512, 384), (512, 384), (512, 384), (512, 384), (512, 384), (512, 384), (512, 384), (512, 384), (512, 384), (512, 384), (512, 384), (512, 384), (512, 384), (512, 384), (512, 384), (512, 384), (512, 384), (512, 384), (512, 384), (512, 384), (512, 384), (512, 384), (512, 384), (512, 384), (512, 384), (512, 384), (512, 384), (512, 384), (512, 384), (512, 384), (512, 384), (512, 384), (512, 384), (512, 384), (512, 384), (512, 384), (512, 384), (512, 384), (513, 390), (513, 399), (513, 410), (511, 421), (504, 445), (503, 459), (499, 472), (499, 489), (499, 523), (499, 538), (499, 554), (499, 566), (497, 588), (495, 598), (494, 608), (493, 619), (493, 637)]",94.29478325702267,"[1, 2, 8, 9, 7, 5, 6, 4, 3]","(0, 0.25)",ENG001D,ENG,D,Chinese,Thu Aug 30 16:00:51 2018,Mouse
2,0,4,0,8,2,2,1,452,302,150,147,0,500,200,8000,"[(512, 384), (512, 384), (512, 384), (512, 384), (512, 384), (512, 384), (512, 384), (512, 384), (512, 384), (512, 384), (512, 384), (512, 384), (512, 384), (512, 384), (512, 384), (512, 384), (512, 384), (512, 384), (512, 384), (512, 384), (512, 384), (512, 384), (512, 384), (512, 384), (512, 384), (512, 384), (512, 384), (512, 384), (512, 384), (512, 384), (515, 388), (521, 396), (535, 411), (543, 420), (552, 429), (566, 442), (592, 467), (601, 474), (612, 487), (624, 499), (642, 518), (653, 531), (659, 538), (667, 547), (681, 562), (686, 569)]",46.755031887744344,"[1, 2, 8, 9, 7, 5, 6, 4, 3]","(0, 0.25)",ENG001D,ENG,D,Chinese,Thu Aug 30 16:00:51 2018,Mouse
2,0,4,0,9,5,5,1,426,266,160,146,0,500,200,8000,"[(512, 384), (512, 384), (512, 384), (512, 384), (512, 384), (512, 384), (512, 384), (512, 384), (512, 384), (512, 384), (512, 384), (512, 384), (512, 384), (512, 384), (512, 384), (512, 384), (512, 384), (512, 384), (512, 384), (512, 384), (512, 384), (512, 384), (512, 384), (512, 384), (512, 384), (512, 384), (510, 384), (508, 384), (507, 384), (505, 384), (499, 375), (496, 370), (490, 364), (486, 357), (470, 337), (456, 323), (443, 309), (429, 294), (396, 253), (383, 236), (366, 218), (352, 200), (325, 170)]",228.85200649343793,"[1, 2, 8, 9, 7, 5, 6, 4, 3]","(0, 0.25)",ENG001D,ENG,D,Chinese,Thu Aug 30 16:00:51 2018,Mouse
2,0,4,0,10,4,4,1,464,214,250,145,0,500,200,8000,"[(512, 384), (512, 384), (512, 384), (512, 384), (512, 384), (512, 384), (512, 384), (512, 384), (512, 384), (512, 384), (512, 384), (512, 384), (512, 384), (512, 384), (512, 384), (512, 384), (512, 384), (512, 384), (512, 384), (512, 384), (512, 384), (512, 382), (519, 373), (519, 371), (521, 365), (527, 359), (532, 351), (536, 347), (540, 343), (542, 340), (551, 328), (554, 321), (560, 314), (565, 303), (572, 289), (576, 283), (581, 274), (588, 265), (598, 254), (602, 249), (607, 242), (610, 236), (619, 220), (622, 212), (629, 200), (632, 190), (640, 168)]",300.65066795705286,"[1, 2, 8, 9, 7, 5, 6, 4, 3]","(0, 0.25)",ENG001D,ENG,D,Chinese,Thu Aug 30 16:00:51 2018,Mouse
2,0,4,0,11,9,9,1,665,585,80,144,0,500,200,8000,"[(512, 384), (512, 384), (512, 384), (512, 384), (512, 384), (512, 384), (512, 384), (512, 384), (512, 384), (512, 384), (512, 384), (512, 384), (512, 384), (512, 384), (512, 384), (512, 384), (512, 384), (512, 384), (512, 384), (512, 384), (512, 384), (512, 384), (512, 384), (512, 384), (512, 384), (512, 384), (512, 384), (512, 384), (512, 384), (512, 384), (512, 384), (512, 384), (512, 384), (512, 384), (512, 384), (512, 384), (512, 384), (512, 384), (512, 384), (512, 384), (512, 384), (512, 384), (512, 384), (512, 384), (512, 384), (512, 384), (512, 384), (512, 384), (512, 384), (512, 384), (512, 384), (512, 384), (512, 384), (512, 384), (512, 384), (512, 384), (512, 384), (512, 384), (512, 389), (493, 406), (479, 419), (460, 435), (440, 453), (390, 495), (364, 516), (341, 534), (321, 550)]",139.0057700356083,"[1, 2, 8, 9, 7, 5, 6, 4, 3]","(0, 0.25)",ENG001D,ENG,D,Chinese,Thu Aug 30 16:00:51 2018,Mouse
2,0,4,0,12,9,9,1,372,172,200,143,0,500,200,8000,"[(512, 384), (512, 384), (512, 384), (512, 384), (512, 384), (512, 384), (512, 384), (512, 384), (512, 384), (512, 384), (512, 384), (512, 384), (512, 384), (512, 384), (512, 384), (512, 384), (512, 384), (503, 390), (496, 394), (488, 397), (480, 403), (459, 414), (448, 422), (438, 428), (426, 434), (411, 445), (400, 452), (394, 457), (387, 464), (372, 477), (367, 482), (362, 488), (357, 494), (346, 508), (340, 514), (334, 521), (329, 528), (317, 541)]",141.16147810367062,"[1, 2, 8, 9, 7, 5, 6, 4, 3]","(0, 0.25)",ENG001D,ENG,D,Chinese,Thu Aug 30 16:00:51 2018,Mouse
2,0,4,0,13,4,4,1,691,571,120,142,0,500,200,8000,"[(512, 384), (512, 384), (512, 384), (512, 384), (512, 384), (512, 384), (512, 384), (512, 384), (512, 384), (512, 384), (512, 384), (512, 384), (512, 384), (512, 384), (512, 384), (512, 384), (512, 384), (512, 384), (512, 384), (512, 384), (512, 384), (512, 384), (512, 384), (512, 384), (512, 384), (512, 384), (512, 384), (512, 384), (512, 384), (512, 384), (512, 384), (512, 384), (512, 384), (512, 384), (512, 384), (512, 384), (512, 384), (512, 384), (512, 384), (512, 384), (512, 384), (512, 384), (512, 384), (512, 384), (512, 384), (512, 384), (512, 384), (512, 384), (512, 384), (512, 384), (512, 384), (512, 384), (512, 384), (512, 384), (512, 384), (512, 384), (512, 384), (512, 375), (517, 359), (527, 340), (537, 319), (552, 292), (559, 279), (568, 265), (576, 254), (595, 227), (608, 207), (616, 197), (625, 186), (641, 167)]",300.73021524592014,"[1, 2, 8, 9, 7, 5, 6, 4, 3]","(0, 0.25)",ENG001D,ENG,D,Chinese,Thu Aug 30 16:00:51 2018,Mouse
2,0,4,0,14,1,1,1,492,52,440,141,0,500,200,8000,"[(512, 384), (512, 384), (512, 384), (512, 384), (512, 384), (512, 383), (512, 383), (512, 383), (512, 383), (512, 383), (512, 383), (512, 383), (512, 383), (512, 383), (512, 383), (512, 383), (512, 383), (512, 383), (512, 383), (512, 383), (512, 383), (512, 383), (512, 383), (512, 382), (513, 381), (514, 380), (514, 380), (514, 380), (518, 380), (518, 380), (522, 380), (528, 383), (544, 385), (554, 387), (566, 388), (577, 391), (605, 395), (614, 398), (627, 402), (638, 405), (666, 410), (674, 411), (685, 413), (698, 416), (721, 422), (731, 424), (741, 428), (748, 430), (756, 433), (759, 434)]",11.443696696782615,"[1, 2, 8, 9, 7, 5, 6, 4, 3]","(0, 0.25)",ENG001D,ENG,D,Chinese,Thu Aug 30 16:00:51 2018,Mouse
2,0,4,0,15,8,9,0,-402,272,130,140,0,500,200,8000,"[(512, 384), (512, 384), (512, 384), (512, 384), (512, 384), (512, 384), (512, 384), (512, 384), (512, 384), (512, 384), (512, 384), (512, 384), (512, 384), (512, 384), (512, 384), (512, 384), (512, 384), (512, 384), (512, 384), (512, 384), (512, 384), (512, 384), (512, 384), (512, 384), (512, 384), (512, 384), (512, 384), (508, 385), (503, 391), (497, 398), (491, 409), (476, 435), (467, 447), (454, 464), (445, 483), (424, 518), (414, 537), (404, 553), (398, 565), (385, 594), (380, 605)]",120.84924146900761,"[1, 2, 8, 9, 7, 5, 6, 4, 3]","(0, 0.25)",ENG001D,ENG,D,Chinese,Thu Aug 30 16:00:51 2018,Mouse
2,0,4,0,16,7,7,1,372,182,190,141,0,500,200,8000,"[(512, 384), (512, 384), (512, 384), (512, 384), (512, 384), (512, 384), (512, 384), (512, 384), (512, 384), (512, 384), (512, 384), (512, 384), (512, 384), (512, 384), (512, 384), (512, 384), (512, 384), (512, 384), (509, 384), (506, 384), (502, 384), (498, 383), (486, 382), (477, 381), (469, 380), (458, 378), (437, 377), (424, 376), (408, 374), (396, 371), (365, 366), (350, 365), (331, 363), (308, 361), (282, 359), (272, 358), (264, 358), (254, 358)]",185.75456533110219,"[1, 2, 8, 9, 7, 5, 6, 4, 3]","(0, 0.25)",ENG001D,ENG,D,Chinese,Thu Aug 30 16:00:51 2018,Mouse
2,0,4,0,17,6,6,1,965,795,170,141,0,500,200,8000,"[(512, 384), (512, 384), (512, 384), (512, 384), (512, 384), (512, 384), (512, 384), (512, 384), (512, 384), (512, 384), (512, 384), (512, 384), (512, 384), (512, 384), (512, 384), (512, 384), (512, 384), (512, 384), (512, 384), (512, 384), (512, 384), (512, 384), (512, 384), (512, 384), (512, 384), (512, 384), (512, 384), (512, 384), (512, 384), (512, 384), (512, 384), (512, 384), (512, 384), (512, 384), (512, 384), (512, 384), (512, 384), (512, 384), (512, 384), (512, 384), (512, 384), (512, 384), (512, 384), (512, 384), (512, 384), (512, 384), (512, 384), (512, 384), (512, 384), (512, 384), (512, 384), (512, 384), (512, 384), (512, 384), (512, 384), (512, 384), (512, 384), (512, 384), (512, 384), (512, 384), (512, 384), (512, 384), (512, 384), (512, 384), (512, 384), (512, 384), (512, 384), (512, 384), (512, 384), (512, 384), (512, 384), (512, 384), (512, 384), (512, 384), (512, 384), (512, 384), (512, 384), (512, 384), (512, 384), (508, 383), (501, 364), (497, 352), (494, 341), (490, 326), (482, 296), (477, 281), (473, 267), (471, 252), (467, 227), (466, 215), (462, 202), (462, 190), (462, 168), (462, 157), (462, 149), (462, 141), (462, 126)]",259.03212781733833,"[1, 2, 8, 9, 7, 5, 6, 4, 3]","(0, 0.25)",ENG001D,ENG,D,Chinese,Thu Aug 30 16:00:51 2018,Mouse
2,0,4,0,18,7,7,1,251,11,240,140,0,500,200,8000,"[(509, 384), (508, 384), (504, 384), (497, 384), (487, 384), (480, 384), (470, 384), (462, 384), (448, 384), (440, 384), (431, 384), (422, 384), (409, 384), (399, 384), (390, 384), (383, 384), (365, 384), (357, 384), (347, 384), (336, 384), (316, 384), (305, 384), (295, 384), (287, 384), (269, 385), (260, 386)]",179.54528113830688,"[1, 2, 8, 9, 7, 5, 6, 4, 3]","(0, 0.25)",ENG001D,ENG,D,Chinese,Thu Aug 30 16:00:51 2018,Mouse
2,0,4,0,19,6,5,0,-432,272,160,139,0,500,200,8000,"[(512, 384), (512, 384), (512, 384), (512, 384), (512, 384), (512, 384), (512, 384), (512, 384), (512, 384), (512, 384), (512, 384), (512, 384), (512, 384), (512, 384), (512, 384), (512, 384), (512, 384), (512, 384), (512, 384), (512, 384), (512, 384), (512, 384), (512, 384), (512, 384), (512, 384), (512, 384), (512, 384), (511, 384), (511, 384), (511, 384), (510, 384), (509, 383), (509, 383), (505, 380), (500, 372), (484, 356), (476, 348), (466, 339), (454, 328), (421, 301), (401, 285), (376, 269), (354, 256), (308, 231)]",216.86989764584402,"[1, 2, 8, 9, 7, 5, 6, 4, 3]","(0, 0.25)",ENG001D,ENG,D,Chinese,Thu Aug 30 16:00:51 2018,Mouse
2,0,4,0,20,3,3,1,543,343,200,140,0,500,200,8000,"[(512, 384), (512, 384), (512, 384), (512, 384), (512, 384), (512, 384), (512, 384), (512, 384), (512, 384), (512, 384), (512, 384), (512, 384), (512, 384), (512, 384), (512, 384), (512, 384), (512, 384), (512, 384), (512, 384), (512, 384), (512, 384), (512, 384), (512, 384), (512, 384), (512, 384), (512, 384), (512, 384), (512, 384), (512, 384), (512, 384), (512, 384), (512, 384), (512, 384), (512, 384), (512, 381), (518, 377), (542, 367), (555, 358), (575, 351), (591, 343), (615, 335), (625, 331), (633, 327), (643, 323), (659, 316), (665, 314), (672, 311), (681, 309), (694, 305), (701, 304), (708, 301), (717, 298), (734, 295), (739, 294), (749, 293)]",338.99489608623156,"[1, 2, 8, 9, 7, 5, 6, 4, 3]","(0, 0.25)",ENG001D,ENG,D,Chinese,Thu Aug 30 16:00:51 2018,Mouse
2,0,4,0,21,5,5,1,322,52,270,140,0,500,200,8000,"[(512, 384), (512, 384), (512, 384), (512, 384), (512, 384), (509, 384), (508, 384), (506, 384), (503, 384), (496, 382), (493, 382), (490, 381), (487, 379), (480, 376), (476, 373), (473, 371), (470, 369), (463, 362), (461, 360), (457, 355), (452, 350), (441, 337), (436, 332), (430, 326), (421, 319), (403, 305), (393, 295), (379, 284), (367, 274), (343, 259), (329, 249), (310, 237), (288, 223)]",215.7066914006029,"[1, 2, 8, 9, 7, 5, 6, 4, 3]","(0, 0.25)",ENG001D,ENG,D,Chinese,Thu Aug 30 16:00:51 2018,Mouse
2,0,4,0,22,6,5,0,-622,152,470,139,0,500,200,8000,"[(512, 384), (512, 384), (512, 384), (512, 384), (512, 384), (512, 384), (512, 384), (512, 384), (512, 384), (512, 384), (512, 384), (512, 384), (512, 384), (512, 384), (512, 384), (511, 383), (511, 383), (508, 382), (507, 380), (506, 380), (505, 379), (505, 378), (504, 378), (503, 377), (503, 377), (502, 376), (502, 376), (502, 376), (502, 376), (502, 376), (502, 376), (502, 376), (502, 376), (502, 376), (501, 375), (501, 375), (501, 374), (500, 374), (499, 372), (498, 371), (498, 371), (497, 370), (497, 370), (497, 370), (497, 370), (494, 365), (490, 360), (488, 355), (486, 352), (477, 341), (471, 333), (465, 326), (459, 319), (446, 302), (440, 295), (431, 286), (419, 275), (399, 258), (385, 247), (376, 237), (366, 229), (344, 211), (333, 204)]",225.1595978588467,"[1, 2, 8, 9, 7, 5, 6, 4, 3]","(0, 0.25)",ENG001D,ENG,D,Chinese,Thu Aug 30 16:00:51 2018,Mouse
2,0,4,0,23,9,9,1,392,142,250,140,0,500,200,8000,"[(512, 384), (512, 384), (512, 384), (512, 384), (512, 384), (512, 384), (512, 384), (512, 384), (512, 384), (512, 384), (512, 384), (512, 384), (512, 384), (512, 384), (511, 384), (501, 386), (495, 389), (486, 394), (479, 397), (459, 406), (449, 411), (439, 417), (433, 421), (416, 431), (410, 436), (401, 440), (394, 444), (380, 455), (374, 459), (369, 463), (363, 469), (353, 480), (349, 483), (343, 491), (338, 496), (329, 508), (325, 517), (322, 522), (316, 529), (308, 540)]",142.59464336859145,"[1, 2, 8, 9, 7, 5, 6, 4, 3]","(0, 0.25)",ENG001D,ENG,D,Chinese,Thu Aug 30 16:00:51 2018,Mouse
2,0,4,0,24,3,3,1,553,353,200,140,0,500,200,8000,"[(512, 384), (512, 384), (512, 384), (512, 384), (512, 384), (512, 384), (512, 384), (512, 384), (512, 384), (512, 384), (512, 384), (512, 384), (512, 384), (512, 384), (512, 384), (512, 384), (512, 384), (512, 384), (512, 384), (512, 384), (512, 384), (512, 384), (512, 384), (512, 384), (512, 384), (512, 384), (512, 384), (512, 384), (512, 384), (512, 384), (512, 384), (512, 384), (512, 384), (512, 384), (512, 384), (516, 384), (531, 384), (541, 384), (550, 384), (560, 384), (586, 377), (598, 372), (610, 366), (623, 360), (646, 349), (656, 341), (669, 332), (678, 325), (695, 311), (704, 305), (710, 300), (715, 295), (726, 284), (732, 279), (737, 276), (744, 271)]",334.0307240169667,"[1, 2, 8, 9, 7, 5, 6, 4, 3]","(0, 0.25)",ENG001D,ENG,D,Chinese,Thu Aug 30 16:00:51 2018,Mouse
2,0,4,0,25,3,3,1,346,76,270,139,0,500,200,8000,"[(512, 384), (512, 384), (512, 384), (512, 384), (512, 384), (512, 384), (512, 384), (523, 382), (530, 381), (538, 378), (546, 376), (562, 369), (571, 368), (579, 367), (585, 364), (595, 361), (600, 358), (607, 356), (612, 354), (620, 351), (622, 350), (626, 348), (630, 347), (639, 344), (646, 342), (651, 339), (659, 335), (674, 328), (681, 326), (687, 322), (695, 319), (715, 310), (726, 307), (736, 302), (747, 298)]",339.89952434316587,"[1, 2, 8, 9, 7, 5, 6, 4, 3]","(0, 0.25)",ENG001D,ENG,D,Chinese,Thu Aug 30 16:00:51 2018,Mouse
2,0,4,0,26,5,5,1,541,261,280,138,0,500,200,8000,"[(512, 384), (512, 384), (512, 384), (512, 384), (512, 384), (512, 384), (512, 384), (512, 384), (512, 384), (512, 384), (512, 384), (512, 384), (512, 384), (512, 384), (512, 384), (512, 384), (512, 384), (512, 384), (512, 384), (512, 384), (512, 384), (512, 384), (512, 384), (512, 384), (512, 384), (512, 384), (512, 385), (511, 385), (510, 385), (509, 385), (506, 383), (505, 383), (502, 380), (498, 373), (483, 354), (474, 345), (468, 337), (458, 327), (436, 304), (427, 295), (421, 286), (411, 276), (401, 263), (397, 256), (394, 252), (390, 248), (386, 239), (383, 233), (380, 227), (376, 222), (369, 213), (365, 209), (360, 204), (354, 199), (342, 192)]",228.47778651979817,"[1, 2, 8, 9, 7, 5, 6, 4, 3]","(0, 0.25)",ENG001D,ENG,D,Chinese,Thu Aug 30 16:00:51 2018,Mouse
2,0,4,0,27,5,5,1,322,112,210,137,0,500,200,8000,"[(512, 384), (512, 384), (512, 384), (512, 384), (512, 384), (512, 384), (512, 384), (512, 384), (512, 384), (512, 384), (512, 384), (505, 383), (504, 382), (498, 379), (492, 375), (481, 369), (474, 363), (468, 358), (461, 352), (441, 334), (429, 326), (420, 319), (410, 312), (392, 300), (383, 293), (375, 287), (367, 280), (350, 264), (345, 258), (336, 248), (331, 240), (320, 229), (315, 223)]",219.25771672219585,"[1, 2, 8, 9, 7, 5, 6, 4, 3]","(0, 0.25)",ENG001D,ENG,D,Chinese,Thu Aug 30 16:00:51 2018,Mouse
2,0,4,0,28,7,7,1,352,162,190,136,0,500,200,8000,"[(512, 384), (512, 384), (512, 384), (512, 384), (512, 384), (512, 384), (512, 384), (512, 384), (512, 384), (512, 384), (512, 384), (512, 384), (512, 384), (512, 384), (512, 384), (512, 384), (510, 384), (506, 385), (503, 385), (489, 385), (483, 385), (474, 385), (462, 385), (438, 385), (424, 385), (412, 385), (397, 385), (369, 385), (355, 385), (340, 385), (328, 385), (304, 385), (291, 385), (281, 385), (268, 385), (244, 385)]",179.7862107701229,"[1, 2, 8, 9, 7, 5, 6, 4, 3]","(0, 0.25)",ENG001D,ENG,D,Chinese,Thu Aug 30 16:00:51 2018,Mouse
2,0,4,0,29,2,2,1,904,684,220,135,0,500,200,8000,"[(512, 384), (512, 384), (512, 384), (512, 384), (512, 384), (512, 384), (512, 384), (512, 384), (512, 384), (512, 384), (512, 384), (512, 384), (512, 384), (512, 384), (512, 384), (512, 384), (512, 384), (512, 384), (512, 384), (512, 384), (512, 384), (512, 384), (512, 384), (512, 384), (512, 384), (512, 384), (512, 384), (512, 384), (512, 384), (512, 384), (512, 384), (512, 384), (512, 384), (512, 384), (512, 384), (512, 384), (512, 384), (512, 384), (512, 384), (512, 384), (512, 384), (512, 384), (512, 384), (512, 384), (512, 384), (512, 384), (512, 384), (512, 384), (512, 384), (512, 384), (512, 384), (512, 384), (512, 384), (512, 384), (512, 384), (512, 384), (512, 384), (512, 384), (512, 384), (512, 384), (512, 384), (512, 384), (512, 384), (512, 384), (512, 384), (512, 384), (512, 384), (512, 384), (512, 383), (515, 383), (523, 391), (536, 406), (542, 413), (550, 422), (559, 431), (574, 450), (580, 459), (585, 466), (589, 473), (597, 488), (602, 494), (606, 503), (610, 511), (619, 527), (624, 536), (627, 543), (632, 553), (638, 573), (641, 581), (645, 592), (646, 598)]",57.946509515636926,"[1, 2, 8, 9, 7, 5, 6, 4, 3]","(0, 0.25)",ENG001D,ENG,D,Chinese,Thu Aug 30 16:00:51 2018,Mouse
2,0,4,0,30,3,3,1,473,313,160,134,0,500,200,8000,"[(512, 384), (512, 384), (512, 384), (512, 384), (512, 384), (512, 384), (512, 384), (512, 384), (512, 384), (512, 384), (512, 384), (512, 384), (512, 384), (512, 384), (512, 384), (512, 384), (512, 384), (512, 384), (512, 384), (512, 384), (512, 384), (512, 384), (512, 384), (512, 384), (512, 384), (512, 384), (512, 384), (512, 384), (512, 384), (512, 384), (512, 384), (517, 382), (524, 380), (547, 370), (559, 365), (576, 359), (593, 352), (627, 343), (639, 340), (650, 337), (660, 333), (677, 328), (689, 324), (696, 321), (706, 317), (727, 306), (740, 301), (754, 296)]",340.01689347810003,"[1, 2, 8, 9, 7, 5, 6, 4, 3]","(0, 0.25)",ENG001D,ENG,D,Chinese,Thu Aug 30 16:00:51 2018,Mouse
2,0,4,0,31,4,3,0,-661,481,180,133,0,500,200,8000,"[(512, 384), (512, 384), (512, 384), (512, 384), (512, 384), (512, 384), (512, 384), (512, 384), (512, 384), (512, 384), (512, 384), (512, 384), (512, 384), (512, 384), (512, 384), (512, 384), (512, 384), (512, 384), (512, 384), (512, 384), (512, 384), (512, 384), (512, 384), (512, 384), (512, 384), (512, 384), (512, 384), (512, 384), (512, 384), (512, 384), (512, 384), (512, 384), (512, 384), (512, 384), (512, 384), (512, 384), (512, 384), (512, 384), (512, 384), (512, 384), (512, 384), (512, 384), (512, 384), (512, 384), (512, 384), (512, 384), (512, 384), (512, 384), (514, 384), (520, 383), (540, 377), (551, 374), (564, 371), (578, 365), (606, 354), (618, 350), (630, 346), (640, 341), (658, 334), (668, 329), (677, 325), (685, 323), (705, 313), (714, 308), (727, 304), (738, 300), (757, 292)]",339.41833055157343,"[1, 2, 8, 9, 7, 5, 6, 4, 3]","(0, 0.25)",ENG001D,ENG,D,Chinese,Thu Aug 30 16:00:51 2018,Mouse
2,0,4,0,32,5,5,1,521,421,100,134,0,500,200,8000,"[(512, 384), (512, 384), (512, 384), (512, 384), (512, 384), (512, 384), (512, 384), (512, 384), (512, 384), (512, 384), (512, 384), (512, 384), (512, 384), (512, 384), (512, 384), (512, 384), (512, 384), (512, 384), (512, 384), (512, 384), (512, 384), (512, 384), (512, 384), (512, 384), (512, 384), (512, 384), (512, 384), (512, 384), (512, 384), (512, 384), (512, 384), (512, 384), (512, 384), (512, 384), (512, 384), (512, 384), (512, 384), (512, 384), (512, 384), (512, 384), (512, 384), (512, 384), (511, 383), (511, 382), (509, 378), (496, 357), (488, 344), (474, 324), (458, 302), (415, 250), (394, 232), (368, 208), (345, 190)]",229.27731617324474,"[1, 2, 8, 9, 7, 5, 6, 4, 3]","(0, 0.25)",ENG001D,ENG,D,Chinese,Thu Aug 30 16:00:51 2018,Mouse
2,0,4,0,33,8,9,0,-1402,1002,400,134,0,500,200,8000,"[(512, 384), (512, 384), (512, 384), (512, 384), (512, 384), (512, 384), (512, 384), (512, 384), (512, 384), (512, 384), (512, 384), (512, 384), (512, 384), (512, 384), (512, 384), (512, 384), (512, 384), (512, 384), (512, 384), (512, 384), (512, 384), (512, 384), (512, 384), (512, 384), (512, 384), (512, 384), (512, 384), (512, 384), (512, 384), (512, 384), (512, 384), (512, 384), (512, 384), (512, 384), (512, 384), (512, 384), (512, 384), (512, 384), (512, 384), (512, 384), (512, 384), (512, 384), (512, 384), (512, 384), (512, 384), (512, 384), (512, 384), (512, 384), (512, 384), (512, 384), (512, 384), (512, 384), (512, 384), (512, 384), (512, 384), (512, 384), (512, 384), (512, 384), (512, 384), (512, 384), (512, 384), (512, 384), (512, 384), (512, 384), (512, 384), (512, 384), (512, 384), (512, 384), (512, 384), (512, 384), (512, 384), (512, 384), (512, 384), (512, 384), (512, 384), (512, 384), (512, 384), (512, 384), (512, 384), (512, 384), (512, 384), (512, 384), (512, 384), (512, 384), (512, 384), (512, 384), (512, 384), (512, 384), (512, 384), (512, 384), (512, 384), (512, 384), (512, 384), (512, 384), (512, 384), (512, 384), (512, 384), (512, 384), (512, 384), (512, 384), (511, 384), (511, 384), (511, 383), (511, 383), (511, 383), (511, 383), (510, 383), (510, 383), (510, 383), (510, 383), (510, 383), (510, 383), (510, 383), (510, 383), (510, 383), (510, 383), (510, 383), (510, 383), (510, 383), (510, 383), (510, 383), (510, 383), (510, 383), (510, 383), (510, 383), (510, 383), (510, 383), (510, 383), (510, 383), (510, 383), (510, 383), (510, 383), (504, 383), (492, 390), (481, 398), (461, 410), (418, 435), (391, 448), (364, 464), (336, 481), (285, 511)]",150.77423650113664,"[1, 2, 8, 9, 7, 5, 6, 4, 3]","(0, 0.25)",ENG001D,ENG,D,Chinese,Thu Aug 30 16:00:51 2018,Mouse
2,0,4,0,34,3,3,1,504,414,90,135,0,500,200,8000,"[(512, 384), (512, 384), (512, 384), (512, 384), (512, 384), (512, 384), (512, 384), (512, 384), (512, 384), (512, 384), (512, 384), (512, 384), (512, 384), (512, 384), (512, 384), (512, 384), (512, 384), (512, 384), (512, 384), (512, 384), (512, 384), (512, 384), (512, 384), (512, 384), (512, 384), (512, 384), (512, 384), (512, 384), (512, 384), (512, 384), (512, 384), (512, 384), (512, 384), (512, 384), (512, 384), (512, 384), (512, 384), (512, 384), (512, 384), (512, 384), (512, 384), (516, 381), (524, 379), (550, 371), (567, 366), (592, 356), (623, 348), (674, 330), (712, 321), (735, 313), (760, 305)]",342.3308057925853,"[1, 2, 8, 9, 7, 5, 6, 4, 3]","(0, 0.25)",ENG001D,ENG,D,Chinese,Thu Aug 30 16:00:51 2018,Mouse
2,0,4,0,35,6,6,1,442,362,80,135,0,500,200,8000,"[(512, 384), (512, 384), (512, 384), (512, 384), (512, 384), (512, 384), (512, 384), (512, 384), (512, 384), (512, 384), (512, 384), (512, 384), (512, 384), (512, 384), (512, 384), (512, 384), (512, 384), (512, 384), (512, 384), (512, 384), (512, 384), (512, 384), (512, 384), (512, 384), (512, 384), (512, 384), (512, 384), (512, 384), (512, 384), (512, 384), (512, 384), (512, 384), (512, 384), (512, 384), (512, 384), (512, 384), (511, 383), (511, 344), (511, 316), (511, 280), (510, 262), (505, 210), (504, 179), (502, 159), (496, 129)]",266.4096773978604,"[1, 2, 8, 9, 7, 5, 6, 4, 3]","(0, 0.25)",ENG001D,ENG,D,Chinese,Thu Aug 30 16:00:51 2018,Mouse
2,0,4,0,36,8,3,0,-313,93,220,134,0,500,200,8000,"[(512, 384), (512, 384), (512, 384), (512, 384), (512, 384), (512, 384), (512, 384), (512, 384), (512, 384), (512, 386), (512, 388), (513, 389), (516, 391), (522, 394), (528, 396), (533, 397), (538, 397), (547, 397), (552, 397), (559, 397), (565, 396), (581, 392), (589, 390), (599, 386), (607, 384), (627, 374), (640, 367), (657, 358), (675, 347), (718, 326), (739, 316), (760, 307)]",342.75127417376694,"[1, 2, 8, 9, 7, 5, 6, 4, 3]","(0, 0.25)",ENG001D,ENG,D,Chinese,Thu Aug 30 16:00:51 2018,Mouse
2,0,4,0,37,9,9,1,342,202,140,135,0,500,200,8000,"[(512, 384), (512, 384), (512, 384), (512, 384), (512, 384), (512, 384), (512, 384), (512, 384), (512, 384), (512, 384), (512, 384), (512, 384), (512, 384), (512, 384), (512, 384), (512, 384), (512, 384), (512, 384), (512, 384), (512, 384), (511, 384), (511, 384), (511, 384), (508, 384), (503, 384), (495, 390), (473, 401), (458, 407), (438, 419), (422, 429), (371, 457), (349, 469), (324, 484), (308, 493), (271, 520)]",150.5632956298963,"[1, 2, 8, 9, 7, 5, 6, 4, 3]","(0, 0.25)",ENG001D,ENG,D,Chinese,Thu Aug 30 16:00:51 2018,Mouse
2,0,4,0,38,1,1,1,317,217,100,135,0,500,200,8000,"[(512, 384), (512, 384), (512, 384), (512, 384), (512, 384), (512, 384), (512, 384), (512, 384), (512, 384), (512, 384), (512, 384), (512, 384), (512, 384), (512, 384), (512, 384), (512, 384), (512, 384), (512, 384), (512, 384), (512, 384), (512, 384), (511, 385), (512, 388), (532, 400), (546, 406), (564, 412), (586, 418), (642, 435), (672, 443), (700, 451), (723, 457), (762, 470)]",18.98321705922621,"[1, 2, 8, 9, 7, 5, 6, 4, 3]","(0, 0.25)",ENG001D,ENG,D,Chinese,Thu Aug 30 16:00:51 2018,Mouse
2,0,4,0,39,7,2,0,-801,701,100,134,0,500,200,8000,"[(512, 384), (512, 384), (512, 384), (512, 384), (512, 384), (512, 384), (512, 384), (512, 384), (512, 384), (512, 384), (512, 384), (512, 384), (512, 384), (512, 384), (512, 384), (512, 384), (512, 384), (512, 384), (512, 384), (512, 384), (512, 384), (512, 384), (512, 384), (512, 384), (512, 384), (512, 384), (512, 384), (512, 384), (512, 384), (512, 384), (512, 384), (512, 384), (512, 384), (512, 384), (512, 384), (512, 384), (512, 384), (512, 384), (512, 384), (512, 384), (512, 384), (512, 384), (512, 384), (512, 384), (512, 384), (512, 384), (512, 384), (512, 384), (512, 384), (512, 384), (512, 384), (512, 384), (512, 384), (512, 384), (512, 384), (512, 384), (512, 384), (512, 384), (512, 384), (512, 384), (512, 384), (512, 384), (512, 384), (512, 384), (512, 384), (512, 384), (512, 384), (512, 384), (512, 384), (512, 384), (513, 385), (513, 386), (519, 408), (524, 428), (526, 446), (530, 467), (542, 514), (553, 538), (564, 562), (579, 587), (603, 634)]",69.99849406334614,"[1, 2, 8, 9, 7, 5, 6, 4, 3]","(0, 0.25)",ENG001D,ENG,D,Chinese,Thu Aug 30 16:00:51 2018,Mouse
2,0,4,0,40,5,9,0,-1010,780,230,135,0,500,200,8000,"[(512, 384), (512, 384), (512, 384), (512, 384), (512, 384), (512, 384), (512, 384), (512, 384), (512, 384), (512, 384), (512, 384), (512, 384), (512, 384), (512, 384), (512, 384), (512, 384), (512, 384), (512, 384), (512, 384), (512, 384), (512, 384), (512, 384), (512, 384), (512, 384), (512, 384), (512, 384), (512, 384), (512, 384), (512, 384), (512, 384), (512, 384), (512, 384), (512, 384), (512, 384), (512, 384), (512, 384), (512, 384), (512, 384), (512, 384), (512, 384), (512, 384), (512, 384), (512, 384), (512, 384), (512, 384), (512, 384), (512, 384), (512, 384), (512, 384), (512, 384), (512, 384), (512, 384), (512, 384), (512, 384), (512, 384), (512, 384), (512, 384), (512, 384), (512, 384), (512, 384), (512, 384), (512, 384), (512, 384), (512, 384), (512, 384), (512, 384), (512, 384), (512, 384), (512, 384), (512, 384), (512, 384), (512, 384), (512, 384), (512, 384), (512, 384), (512, 384), (512, 384), (511, 385), (509, 387), (507, 388), (507, 389), (506, 389), (506, 389), (505, 390), (505, 390), (504, 391), (503, 391), (501, 394), (501, 396), (498, 400), (497, 402), (490, 414), (482, 423), (473, 432), (463, 441), (439, 463), (424, 475), (403, 493), (385, 507), (333, 551), (310, 569)]",137.51525185703878,"[1, 2, 8, 9, 7, 5, 6, 4, 3]","(0, 0.25)",ENG001D,ENG,D,Chinese,Thu Aug 30 16:00:51 2018,Mouse
2,0,4,0,41,2,2,1,472,272,200,136,0,500,200,8000,"[(512, 384), (512, 384), (512, 384), (512, 384), (512, 384), (512, 384), (512, 384), (512, 384), (512, 384), (512, 384), (512, 384), (512, 384), (512, 384), (512, 384), (512, 384), (512, 384), (512, 384), (512, 384), (512, 384), (512, 384), (512, 384), (512, 384), (512, 384), (512, 384), (512, 384), (512, 384), (512, 384), (512, 385), (513, 387), (518, 390), (529, 395), (552, 406), (563, 413), (575, 421), (584, 429), (602, 447), (605, 456), (611, 466), (616, 477), (627, 500), (629, 511), (632, 522), (633, 533), (639, 554), (642, 565), (644, 574), (648, 585), (657, 607)]",56.96710237658497,"[1, 2, 8, 9, 7, 5, 6, 4, 3]","(0, 0.25)",ENG001D,ENG,D,Chinese,Thu Aug 30 16:00:51 2018,Mouse
2,0,4,0,42,5,5,1,632,252,380,136,0,500,200,8000,"[(512, 384), (512, 384), (512, 384), (512, 384), (512, 384), (512, 384), (512, 384), (512, 384), (512, 384), (512, 384), (512, 384), (512, 384), (512, 384), (512, 384), (512, 384), (512, 384), (512, 384), (512, 384), (512, 384), (512, 384), (512, 384), (512, 384), (512, 384), (512, 384), (512, 384), (512, 382), (512, 378), (513, 373), (516, 357), (518, 349), (523, 337), (526, 326), (527, 311), (528, 305), (529, 300), (529, 297), (529, 294), (529, 294), (529, 294), (529, 294), (529, 294), (529, 294), (529, 294), (529, 294), (529, 294), (529, 294), (529, 294), (529, 294), (529, 294), (529, 294), (526, 291), (519, 289), (501, 284), (488, 279), (473, 277), (460, 272), (430, 264), (417, 261), (399, 254), (379, 249), (346, 239), (333, 234), (320, 227), (302, 217)]",218.4930573293375,"[1, 2, 8, 9, 7, 5, 6, 4, 3]","(0, 0.25)",ENG001D,ENG,D,Chinese,Thu Aug 30 16:00:51 2018,Mouse
2,0,4,0,43,8,9,0,-692,612,80,135,0,500,200,8000,"[(512, 384), (512, 384), (512, 384), (512, 384), (512, 384), (512, 384), (512, 384), (512, 384), (512, 384), (512, 384), (512, 384), (512, 384), (512, 384), (512, 384), (512, 384), (512, 384), (512, 384), (512, 384), (512, 384), (512, 384), (512, 384), (512, 384), (512, 384), (512, 384), (512, 384), (512, 384), (512, 384), (512, 384), (512, 384), (512, 384), (512, 384), (512, 384), (512, 384), (512, 384), (512, 384), (512, 384), (512, 384), (512, 384), (512, 384), (512, 384), (512, 384), (512, 384), (512, 384), (512, 384), (512, 384), (512, 384), (512, 384), (512, 384), (512, 384), (512, 384), (512, 384), (512, 384), (512, 384), (512, 384), (512, 384), (512, 384), (512, 384), (512, 384), (512, 384), (512, 384), (512, 384), (497, 400), (482, 412), (461, 429), (436, 446), (384, 478), (357, 493), (338, 503), (315, 519), (282, 540)]",145.85249086025343,"[1, 2, 8, 9, 7, 5, 6, 4, 3]","(0, 0.25)",ENG001D,ENG,D,Chinese,Thu Aug 30 16:00:51 2018,Mouse
2,0,4,0,44,5,5,1,521,262,259,136,0,500,200,8000,"[(512, 384), (512, 384), (512, 384), (512, 384), (512, 384), (512, 384), (512, 384), (512, 384), (512, 384), (512, 384), (512, 384), (512, 384), (512, 384), (512, 384), (512, 384), (512, 384), (512, 384), (512, 384), (512, 384), (512, 384), (512, 384), (512, 384), (512, 384), (512, 384), (512, 384), (512, 384), (511, 384), (508, 384), (503, 383), (502, 382), (499, 382), (499, 382), (497, 381), (497, 381), (497, 381), (496, 381), (496, 381), (496, 381), (496, 381), (496, 381), (494, 378), (491, 375), (486, 371), (480, 368), (465, 355), (453, 349), (440, 339), (423, 327), (381, 298), (356, 283), (334, 269), (314, 255), (270, 228)]",212.80696552449305,"[1, 2, 8, 9, 7, 5, 6, 4, 3]","(0, 0.25)",ENG001D,ENG,D,Chinese,Thu Aug 30 16:00:51 2018,Mouse
2,0,4,0,45,8,8,1,446,236,210,136,0,500,200,8000,"[(512, 384), (512, 384), (512, 384), (512, 384), (512, 384), (512, 384), (512, 384), (512, 384), (512, 384), (512, 384), (512, 384), (512, 384), (512, 384), (512, 384), (512, 384), (512, 384), (512, 384), (512, 384), (512, 384), (512, 384), (512, 384), (512, 384), (512, 384), (510, 391), (509, 398), (504, 409), (502, 420), (497, 445), (496, 456), (494, 469), (493, 480), (491, 503), (489, 513), (487, 524), (486, 533), (482, 554), (482, 563), (482, 572), (482, 579), (482, 598), (482, 605), (482, 612), (482, 617), (482, 629), (482, 633)]",96.86999230821426,"[1, 2, 8, 9, 7, 5, 6, 4, 3]","(0, 0.25)",ENG001D,ENG,D,Chinese,Thu Aug 30 16:00:51 2018,Mouse
2,0,4,0,46,6,7,0,-1665,1565,100,135,0,500,200,8000,"[(512, 384), (512, 384), (512, 384), (512, 384), (512, 384), (512, 384), (512, 384), (512, 384), (512, 384), (512, 384), (512, 384), (512, 384), (512, 384), (512, 384), (512, 384), (512, 384), (512, 384), (512, 384), (512, 384), (512, 384), (512, 384), (512, 384), (512, 384), (512, 384), (512, 384), (512, 384), (512, 384), (512, 384), (512, 384), (512, 384), (512, 384), (512, 384), (512, 384), (512, 384), (512, 384), (512, 384), (512, 384), (512, 384), (512, 384), (512, 384), (512, 384), (512, 384), (512, 384), (512, 384), (512, 384), (512, 384), (512, 384), (512, 384), (512, 384), (512, 384), (512, 384), (512, 384), (512, 384), (512, 384), (512, 384), (512, 384), (512, 384), (512, 384), (512, 384), (512, 384), (512, 384), (512, 384), (512, 384), (512, 384), (512, 384), (512, 384), (512, 384), (512, 384), (512, 384), (512, 384), (512, 384), (512, 384), (512, 384), (512, 384), (512, 384), (512, 384), (512, 384), (512, 384), (512, 384), (512, 384), (512, 384), (512, 384), (512, 384), (512, 384), (512, 384), (512, 384), (512, 384), (512, 384), (512, 384), (512, 384), (512, 384), (512, 384), (512, 384), (512, 384), (512, 384), (512, 384), (512, 384), (512, 384), (512, 384), (512, 384), (512, 384), (512, 384), (512, 384), (512, 384), (512, 384), (512, 384), (512, 384), (512, 384), (512, 384), (512, 384), (512, 384), (512, 384), (512, 384), (512, 384), (512, 384), (512, 384), (512, 384), (512, 384), (512, 384), (512, 384), (512, 384), (512, 384), (512, 384), (512, 384), (512, 384), (512, 384), (512, 384), (512, 384), (512, 384), (512, 384), (512, 384), (512, 384), (512, 384), (512, 384), (512, 384), (512, 384), (512, 384), (512, 384), (512, 384), (512, 384), (512, 384), (512, 384), (512, 384), (512, 384), (512, 384), (512, 384), (512, 384), (512, 384), (512, 384), (512, 384), (512, 384), (512, 384), (512, 384), (512, 384), (512, 384), (512, 384), (499, 384), (484, 384), (456, 384), (433, 384), (411, 384), (383, 384), (335, 384), (318, 384), (299, 384), (284, 384), (251, 384)]",180.0,"[1, 2, 8, 9, 7, 5, 6, 4, 3]","(0, 0.25)",ENG001D,ENG,D,Chinese,Thu Aug 30 16:00:51 2018,Mouse
2,0,4,0,47,2,3,0,-602,482,120,136,0,500,200,8000,"[(512, 384), (512, 384), (512, 384), (512, 384), (512, 384), (512, 384), (512, 384), (512, 384), (512, 384), (512, 384), (512, 384), (512, 384), (512, 384), (512, 384), (512, 384), (512, 384), (512, 384), (512, 384), (512, 384), (512, 384), (512, 384), (512, 384), (512, 384), (512, 384), (512, 384), (512, 384), (512, 384), (512, 384), (512, 384), (512, 384), (512, 384), (512, 384), (512, 384), (512, 384), (512, 384), (512, 384), (512, 384), (512, 384), (512, 384), (512, 384), (512, 384), (512, 384), (512, 384), (512, 384), (512, 384), (512, 384), (512, 384), (512, 384), (514, 382), (520, 379), (528, 376), (538, 372), (563, 367), (581, 362), (601, 356), (614, 353), (653, 336), (679, 328), (702, 320), (728, 309), (777, 288)]",340.08636392543036,"[1, 2, 8, 9, 7, 5, 6, 4, 3]","(0, 0.25)",ENG001D,ENG,D,Chinese,Thu Aug 30 16:00:51 2018,Mouse
2,0,4,0,48,8,3,0,-443,293,150,137,0,500,200,8000,"[(512, 384), (512, 384), (512, 384), (512, 384), (512, 384), (512, 384), (512, 384), (512, 384), (512, 384), (512, 384), (512, 384), (512, 384), (512, 384), (512, 384), (512, 384), (512, 384), (512, 384), (512, 384), (512, 384), (512, 384), (512, 384), (512, 384), (512, 384), (512, 384), (512, 384), (512, 384), (512, 384), (512, 384), (512, 384), (517, 381), (525, 377), (535, 373), (554, 363), (564, 359), (577, 355), (593, 349), (628, 337), (643, 330), (660, 324), (676, 317), (704, 308), (716, 303), (728, 300), (739, 296), (752, 290)]",338.61137717218116,"[1, 2, 8, 9, 7, 5, 6, 4, 3]","(0, 0.25)",ENG001D,ENG,D,Chinese,Thu Aug 30 16:00:51 2018,Mouse
2,0,4,0,49,7,7,1,374,194,180,138,0,500,200,8000,"[(512, 384), (512, 384), (512, 384), (512, 384), (512, 384), (512, 384), (512, 384), (512, 384), (512, 384), (512, 384), (512, 384), (512, 384), (512, 384), (512, 384), (512, 384), (512, 384), (512, 384), (512, 384), (512, 384), (511, 384), (511, 384), (510, 384), (510, 384), (510, 384), (510, 384), (510, 384), (510, 384), (497, 384), (485, 384), (473, 384), (458, 384), (426, 384), (408, 384), (380, 384), (355, 384), (293, 384), (271, 384), (249, 384)]",180.0,"[1, 2, 8, 9, 7, 5, 6, 4, 3]","(0, 0.25)",ENG001D,ENG,D,Chinese,Thu Aug 30 16:00:51 2018,Mouse
2,0,4,0,50,6,9,0,-342,102,240,138,0,500,200,8000,"[(512, 384), (512, 384), (512, 384), (512, 384), (512, 384), (512, 384), (512, 384), (512, 384), (512, 384), (512, 384), (509, 384), (506, 387), (500, 389), (495, 392), (484, 399), (478, 403), (472, 407), (465, 412), (449, 424), (442, 429), (435, 435), (429, 440), (415, 452), (407, 458), (402, 464), (396, 471), (381, 484), (374, 491), (368, 498), (360, 506), (345, 519), (341, 525), (333, 531), (326, 537), (306, 551)]",140.96902286592962,"[1, 2, 8, 9, 7, 5, 6, 4, 3]","(0, 0.25)",ENG001D,ENG,D,Chinese,Thu Aug 30 16:00:51 2018,Mouse
2,0,4,0,51,9,9,1,131,21,110,139,0,500,200,8000,"[(512, 384), (512, 384), (504, 388), (494, 392), (473, 397), (461, 402), (448, 406), (431, 414), (384, 436), (359, 451), (340, 463), (320, 478), (293, 500), (284, 509)]",151.26643725256162,"[1, 2, 8, 9, 7, 5, 6, 4, 3]","(0, 0.25)",ENG001D,ENG,D,Chinese,Thu Aug 30 16:00:51 2018,Mouse
2,0,4,0,52,5,5,1,355,105,250,139,0,500,200,8000,"[(512, 384), (512, 384), (512, 384), (512, 384), (512, 384), (512, 384), (512, 384), (512, 384), (512, 384), (512, 384), (513, 383), (513, 383), (513, 382), (512, 381), (511, 381), (510, 381), (508, 379), (508, 374), (504, 364), (500, 356), (496, 349), (491, 340), (475, 322), (470, 317), (463, 308), (453, 299), (438, 286), (425, 278), (413, 271), (403, 265), (387, 253), (375, 246), (362, 241), (351, 235), (326, 220), (318, 214)]",221.22771639062017,"[1, 2, 8, 9, 7, 5, 6, 4, 3]","(0, 0.25)",ENG001D,ENG,D,Chinese,Thu Aug 30 16:00:51 2018,Mouse
2,0,4,0,53,3,3,1,642,492,150,138,0,500,200,8000,"[(512, 384), (512, 384), (512, 384), (512, 384), (512, 384), (512, 384), (512, 384), (512, 384), (512, 384), (512, 384), (512, 384), (512, 384), (512, 384), (512, 384), (512, 384), (512, 384), (512, 384), (512, 384), (512, 384), (512, 384), (512, 384), (512, 384), (512, 384), (512, 384), (512, 384), (512, 384), (512, 384), (512, 384), (512, 384), (512, 384), (512, 384), (512, 384), (512, 384), (512, 384), (512, 384), (512, 384), (512, 384), (512, 384), (512, 384), (512, 384), (512, 384), (512, 384), (512, 384), (512, 384), (512, 384), (512, 384), (512, 384), (512, 384), (512, 384), (513, 384), (519, 383), (537, 379), (548, 377), (560, 373), (573, 371), (598, 363), (614, 360), (628, 355), (645, 350), (674, 341), (686, 336), (699, 331), (716, 323), (742, 315), (756, 312)]",343.55962047831986,"[1, 2, 8, 9, 7, 5, 6, 4, 3]","(0, 0.25)",ENG001D,ENG,D,Chinese,Thu Aug 30 16:00:51 2018,Mouse
2,0,4,0,54,2,2,1,497,127,370,137,0,500,200,8000,"[(512, 384), (512, 384), (512, 384), (512, 384), (512, 384), (512, 384), (512, 384), (512, 384), (512, 384), (512, 384), (512, 384), (512, 384), (512, 385), (513, 386), (515, 387), (517, 388), (519, 389), (523, 390), (524, 391), (526, 392), (526, 392), (527, 394), (529, 394), (529, 395), (530, 395), (532, 397), (532, 397), (534, 398), (535, 399), (537, 400), (537, 401), (537, 402), (538, 403), (539, 405), (539, 408), (539, 413), (540, 417), (542, 434), (544, 444), (545, 455), (545, 467), (546, 494), (550, 510), (551, 525), (555, 543), (558, 572), (561, 584), (563, 598), (567, 609), (575, 630)]",75.6354175503028,"[1, 2, 8, 9, 7, 5, 6, 4, 3]","(0, 0.25)",ENG001D,ENG,D,Chinese,Thu Aug 30 16:00:51 2018,Mouse
2,0,4,0,55,2,3,0,-562,432,130,136,0,500,200,8000,"[(512, 384), (512, 384), (512, 384), (512, 384), (512, 384), (512, 384), (512, 384), (512, 384), (512, 384), (512, 384), (512, 384), (512, 384), (512, 384), (512, 384), (512, 384), (512, 384), (512, 384), (512, 384), (512, 384), (512, 384), (512, 384), (512, 384), (512, 384), (512, 384), (512, 384), (512, 384), (512, 384), (512, 384), (512, 384), (512, 384), (512, 384), (512, 384), (512, 384), (512, 384), (512, 384), (512, 384), (512, 384), (512, 384), (512, 384), (512, 384), (512, 384), (512, 384), (512, 384), (514, 382), (527, 377), (538, 374), (549, 370), (561, 367), (594, 357), (608, 354), (626, 348), (643, 344), (693, 328), (710, 324), (729, 319), (749, 313), (789, 300)]",343.13012026267023,"[1, 2, 8, 9, 7, 5, 6, 4, 3]","(0, 0.25)",ENG001D,ENG,D,Chinese,Thu Aug 30 16:00:51 2018,Mouse
2,0,4,0,56,1,4,0,-974,824,150,137,0,500,200,8000,"[(512, 384), (512, 384), (512, 384), (512, 384), (512, 384), (512, 384), (512, 384), (512, 384), (512, 384), (512, 384), (512, 384), (512, 384), (512, 384), (512, 384), (512, 384), (512, 384), (512, 384), (512, 384), (512, 384), (512, 384), (512, 384), (512, 384), (512, 384), (512, 384), (512, 384), (512, 384), (512, 384), (512, 384), (512, 384), (512, 384), (512, 384), (512, 384), (512, 384), (512, 384), (512, 384), (512, 384), (512, 384), (512, 384), (512, 384), (512, 384), (512, 384), (512, 384), (512, 384), (512, 384), (512, 384), (512, 384), (512, 384), (512, 384), (512, 384), (512, 384), (512, 384), (512, 384), (512, 384), (512, 384), (512, 384), (512, 384), (512, 384), (512, 384), (512, 384), (512, 384), (512, 384), (512, 384), (512, 384), (512, 384), (512, 384), (512, 384), (512, 384), (512, 384), (512, 384), (512, 384), (512, 384), (512, 384), (512, 384), (512, 384), (512, 384), (512, 384), (512, 384), (512, 384), (512, 384), (512, 384), (512, 384), (512, 384), (511, 384), (516, 370), (519, 362), (526, 349), (534, 336), (556, 296), (566, 279), (576, 260), (584, 242), (601, 210), (607, 199), (612, 189), (615, 182), (620, 167), (623, 162), (625, 158)]",296.565051177078,"[1, 2, 8, 9, 7, 5, 6, 4, 3]","(0, 0.25)",ENG001D,ENG,D,Chinese,Thu Aug 30 16:00:51 2018,Mouse
2,0,4,0,57,7,7,1,501,61,440,138,0,500,200,8000,"[(512, 384), (512, 384), (512, 384), (512, 384), (512, 384), (512, 384), (519, 387), (520, 387), (521, 387), (524, 389), (524, 389), (524, 389), (524, 389), (524, 389), (524, 389), (524, 389), (524, 389), (524, 389), (524, 389), (524, 389), (524, 389), (524, 389), (524, 389), (524, 389), (524, 389), (524, 389), (524, 389), (524, 389), (524, 389), (524, 389), (524, 389), (524, 389), (524, 389), (524, 389), (524, 389), (524, 389), (524, 389), (524, 389), (524, 389), (524, 391), (521, 392), (516, 393), (499, 395), (487, 396), (474, 396), (453, 396), (388, 394), (353, 390), (319, 385), (281, 378), (222, 370)]",182.76385737091258,"[1, 2, 8, 9, 7, 5, 6, 4, 3]","(0, 0.25)",ENG001D,ENG,D,Chinese,Thu Aug 30 16:00:51 2018,Mouse
2,0,4,0,58,8,8,1,492,322,170,138,0,500,200,8000,"[(512, 384), (512, 384), (512, 384), (512, 384), (512, 384), (512, 384), (512, 384), (512, 384), (512, 384), (512, 384), (512, 384), (512, 384), (512, 384), (512, 384), (512, 384), (512, 384), (512, 384), (512, 384), (512, 384), (512, 384), (512, 384), (512, 384), (512, 384), (512, 384), (512, 384), (512, 384), (512, 384), (512, 384), (512, 384), (512, 384), (512, 384), (512, 384), (512, 391), (510, 401), (509, 411), (507, 422), (504, 445), (502, 461), (501, 474), (497, 488), (491, 514), (490, 527), (487, 539), (486, 551), (484, 576), (481, 587), (480, 597), (478, 608), (475, 625), (475, 633)]",98.4519853695547,"[1, 2, 8, 9, 7, 5, 6, 4, 3]","(0, 0.25)",ENG001D,ENG,D,Chinese,Thu Aug 30 16:00:51 2018,Mouse
2,0,4,0,59,4,4,1,503,383,120,137,0,500,200,8000,"[(512, 384), (512, 384), (512, 384), (512, 384), (512, 384), (512, 384), (512, 384), (512, 384), (512, 384), (512, 384), (512, 384), (512, 384), (512, 384), (512, 384), (512, 384), (512, 384), (512, 384), (512, 384), (512, 384), (512, 384), (512, 384), (512, 384), (512, 384), (512, 384), (512, 384), (512, 384), (512, 384), (512, 384), (512, 384), (512, 384), (512, 384), (512, 384), (512, 384), (512, 384), (512, 384), (512, 384), (512, 384), (512, 384), (516, 371), (520, 364), (526, 354), (533, 343), (551, 315), (559, 299), (570, 282), (578, 267), (606, 225), (617, 210), (626, 198), (638, 182), (658, 156)]",302.6335028467852,"[1, 2, 8, 9, 7, 5, 6, 4, 3]","(0, 0.25)",ENG001D,ENG,D,Chinese,Thu Aug 30 16:00:51 2018,Mouse
2,0,4,0,60,6,5,0,-452,302,150,136,0,500,200,8000,"[(512, 384), (512, 384), (512, 384), (512, 384), (512, 384), (512, 384), (512, 384), (512, 384), (512, 384), (512, 384), (512, 384), (512, 384), (512, 384), (512, 384), (512, 384), (512, 384), (512, 384), (512, 384), (512, 384), (512, 384), (512, 384), (512, 384), (512, 384), (512, 384), (512, 384), (512, 384), (512, 384), (512, 384), (512, 384), (512, 384), (510, 382), (507, 379), (499, 368), (494, 359), (489, 351), (481, 341), (465, 323), (458, 314), (450, 305), (440, 295), (415, 271), (398, 260), (384, 249), (366, 236), (335, 215), (321, 204)]",223.30170084366378,"[1, 2, 8, 9, 7, 5, 6, 4, 3]","(0, 0.25)",ENG001D,ENG,D,Chinese,Thu Aug 30 16:00:51 2018,Mouse
2,0,4,0,61,8,8,1,423,83,340,137,0,500,200,8000,"[(512, 384), (512, 384), (512, 384), (512, 384), (512, 384), (512, 384), (512, 384), (512, 384), (515, 387), (515, 388), (515, 388), (515, 388), (515, 388), (516, 388), (516, 388), (516, 389), (516, 390), (516, 391), (515, 392), (512, 394), (510, 395), (508, 399), (505, 402), (496, 417), (489, 427), (485, 436), (480, 447), (472, 471), (469, 480), (467, 491), (464, 503), (462, 524), (462, 535), (461, 547), (461, 557), (461, 573), (461, 581), (461, 588), (461, 598), (461, 613), (461, 621), (461, 628), (463, 636)]",101.0035408517495,"[1, 2, 8, 9, 7, 5, 6, 4, 3]","(0, 0.25)",ENG001D,ENG,D,Chinese,Thu Aug 30 16:00:51 2018,Mouse
2,0,4,0,62,7,7,1,312,192,120,137,0,500,200,8000,"[(512, 384), (512, 384), (512, 384), (512, 384), (512, 384), (512, 384), (512, 384), (512, 384), (512, 384), (512, 384), (512, 384), (512, 384), (512, 384), (512, 384), (512, 384), (512, 384), (512, 384), (512, 384), (512, 384), (511, 384), (511, 384), (502, 384), (492, 384), (481, 384), (469, 384), (433, 384), (408, 384), (383, 384), (358, 384), (308, 384), (285, 384), (260, 384)]",180.0,"[1, 2, 8, 9, 7, 5, 6, 4, 3]","(0, 0.25)",ENG001D,ENG,D,Chinese,Thu Aug 30 16:00:51 2018,Mouse
2,0,4,0,63,2,7,0,-261,171,90,136,0,500,200,8000,"[(512, 384), (512, 384), (512, 384), (512, 384), (512, 384), (512, 384), (512, 384), (512, 384), (512, 384), (512, 384), (512, 384), (512, 384), (512, 384), (512, 384), (512, 384), (512, 384), (512, 384), (509, 385), (486, 385), (471, 385), (452, 385), (433, 385), (385, 385), (363, 385), (330, 379), (307, 378), (244, 373)]",182.3503731645487,"[1, 2, 8, 9, 7, 5, 6, 4, 3]","(0, 0.25)",ENG001D,ENG,D,Chinese,Thu Aug 30 16:00:51 2018,Mouse
2,0,4,0,64,1,1,1,402,302,100,137,0,500,200,8000,"[(512, 384), (512, 384), (512, 384), (512, 384), (512, 384), (512, 384), (512, 384), (512, 384), (512, 384), (512, 384), (512, 384), (512, 384), (512, 384), (512, 384), (512, 384), (512, 384), (512, 384), (512, 384), (512, 384), (512, 384), (512, 384), (512, 384), (512, 384), (512, 384), (512, 384), (512, 384), (512, 384), (512, 384), (512, 384), (512, 384), (514, 386), (521, 390), (544, 399), (560, 404), (585, 412), (610, 417), (660, 432), (688, 441), (716, 447), (740, 452), (806, 469)]",16.12540897853958,"[1, 2, 8, 9, 7, 5, 6, 4, 3]","(0, 0.25)",ENG001D,ENG,D,Chinese,Thu Aug 30 16:00:51 2018,Mouse
2,0,4,0,65,7,7,1,274,44,230,137,0,500,200,8000,"[(512, 384), (512, 384), (512, 384), (512, 384), (513, 384), (513, 385), (513, 385), (513, 386), (513, 386), (513, 386), (513, 386), (513, 386), (513, 386), (513, 386), (513, 386), (513, 386), (513, 386), (513, 386), (513, 387), (504, 388), (496, 388), (484, 388), (473, 388), (434, 388), (406, 388), (365, 388), (320, 388), (223, 388)]",179.20702946376414,"[1, 2, 8, 9, 7, 5, 6, 4, 3]","(0, 0.25)",ENG001D,ENG,D,Chinese,Thu Aug 30 16:00:51 2018,Mouse
2,0,4,0,66,4,4,1,512,422,90,136,0,500,200,8000,"[(512, 384), (512, 384), (512, 384), (512, 384), (512, 384), (512, 384), (512, 384), (512, 384), (512, 384), (512, 384), (512, 384), (512, 384), (512, 384), (512, 384), (512, 384), (512, 384), (512, 384), (512, 384), (512, 384), (512, 384), (512, 384), (512, 384), (512, 384), (512, 384), (512, 384), (512, 384), (512, 384), (512, 384), (512, 384), (512, 384), (512, 384), (512, 384), (512, 384), (512, 384), (512, 384), (512, 384), (512, 384), (512, 384), (512, 384), (512, 384), (512, 384), (512, 384), (512, 383), (516, 375), (538, 342), (554, 319), (573, 294), (590, 273), (627, 229), (641, 214), (659, 193), (680, 172)]",308.395164503246,"[1, 2, 8, 9, 7, 5, 6, 4, 3]","(0, 0.25)",ENG001D,ENG,D,Chinese,Thu Aug 30 16:00:51 2018,Mouse
2,0,4,0,67,9,7,0,-903,703,200,135,0,500,200,8000,"[(512, 384), (512, 384), (512, 384), (512, 384), (512, 384), (512, 384), (512, 384), (512, 384), (512, 384), (512, 384), (512, 384), (512, 384), (512, 384), (512, 384), (512, 384), (512, 384), (512, 384), (512, 384), (512, 384), (512, 384), (512, 384), (512, 384), (512, 384), (512, 384), (512, 384), (512, 384), (512, 384), (512, 384), (512, 384), (512, 384), (512, 384), (512, 384), (512, 384), (512, 384), (512, 384), (512, 384), (512, 384), (512, 384), (512, 384), (512, 384), (512, 384), (512, 384), (512, 384), (512, 384), (512, 384), (512, 384), (512, 384), (512, 384), (512, 384), (512, 384), (512, 384), (512, 384), (512, 384), (512, 384), (512, 384), (512, 384), (512, 384), (512, 384), (512, 384), (512, 384), (512, 384), (512, 384), (512, 384), (512, 384), (512, 384), (512, 384), (512, 384), (512, 384), (512, 384), (512, 384), (511, 382), (511, 382), (511, 382), (511, 382), (511, 382), (511, 382), (511, 382), (511, 382), (511, 382), (511, 382), (511, 382), (496, 383), (485, 385), (472, 387), (458, 387), (423, 391), (397, 391), (375, 391), (344, 391), (277, 391), (244, 391)]",178.50380862917078,"[1, 2, 8, 9, 7, 5, 6, 4, 3]","(0, 0.25)",ENG001D,ENG,D,Chinese,Thu Aug 30 16:00:51 2018,Mouse
2,0,4,0,68,7,7,1,432,362,70,136,0,500,200,8000,"[(512, 384), (512, 384), (512, 384), (512, 384), (512, 384), (512, 384), (512, 384), (512, 384), (512, 384), (512, 384), (512, 384), (512, 384), (512, 384), (512, 384), (512, 384), (512, 384), (512, 384), (512, 384), (512, 384), (512, 384), (512, 384), (512, 384), (512, 384), (512, 384), (512, 384), (512, 384), (512, 384), (512, 384), (512, 384), (512, 384), (512, 384), (512, 384), (512, 384), (512, 384), (512, 384), (512, 384), (512, 383), (511, 382), (504, 381), (448, 375), (408, 372), (365, 366), (311, 362), (227, 357)]",185.41186915231702,"[1, 2, 8, 9, 7, 5, 6, 4, 3]","(0, 0.25)",ENG001D,ENG,D,Chinese,Thu Aug 30 16:00:51 2018,Mouse
2,0,4,0,69,6,3,0,-372,82,290,136,0,500,200,8000,"[(512, 384), (512, 384), (512, 384), (512, 384), (512, 384), (512, 384), (512, 384), (512, 384), (514, 382), (519, 379), (525, 376), (530, 375), (547, 372), (553, 370), (558, 369), (566, 368), (581, 365), (584, 365), (588, 365), (593, 364), (599, 362), (604, 360), (608, 360), (613, 358), (622, 355), (627, 354), (631, 352), (633, 352), (645, 348), (648, 347), (654, 345), (662, 341), (679, 334), (688, 330), (698, 325), (709, 321), (735, 314), (752, 310)]",342.863725496424,"[1, 2, 8, 9, 7, 5, 6, 4, 3]","(0, 0.25)",ENG001D,ENG,D,Chinese,Thu Aug 30 16:00:51 2018,Mouse
2,0,4,0,70,1,1,1,343,93,250,137,0,500,200,8000,"[(512, 384), (512, 384), (512, 384), (512, 384), (512, 384), (512, 384), (512, 384), (512, 384), (512, 384), (519, 385), (536, 390), (544, 391), (553, 393), (563, 395), (578, 400), (587, 403), (593, 404), (598, 405), (608, 409), (612, 410), (617, 411), (621, 413), (629, 415), (634, 417), (639, 418), (647, 420), (658, 423), (664, 425), (670, 428), (679, 430), (697, 436), (710, 440), (726, 447), (739, 451), (760, 457)]",16.402047598519175,"[1, 2, 8, 9, 7, 5, 6, 4, 3]","(0, 0.25)",ENG001D,ENG,D,Chinese,Thu Aug 30 16:00:51 2018,Mouse
2,0,4,0,71,9,2,0,-442,162,280,137,0,500,200,8000,"[(512, 384), (512, 384), (512, 384), (512, 384), (512, 384), (512, 384), (512, 384), (512, 384), (512, 384), (512, 384), (512, 384), (512, 384), (512, 384), (512, 384), (512, 384), (512, 384), (516, 385), (521, 386), (523, 387), (525, 388), (532, 390), (534, 392), (536, 393), (536, 393), (538, 395), (538, 395), (539, 396), (539, 396), (542, 399), (543, 401), (544, 403), (547, 407), (554, 426), (558, 436), (562, 446), (565, 458), (571, 481), (576, 493), (582, 506), (588, 518), (605, 553), (614, 567), (621, 581), (628, 594), (643, 617)]",60.65392279279461,"[1, 2, 8, 9, 7, 5, 6, 4, 3]","(0, 0.25)",ENG001D,ENG,D,Chinese,Thu Aug 30 16:00:51 2018,Mouse
2,0,4,0,72,5,5,1,422,242,180,138,0,500,200,8000,"[(512, 384), (512, 384), (512, 384), (512, 384), (512, 384), (512, 384), (512, 384), (512, 384), (512, 384), (512, 384), (512, 384), (512, 384), (512, 384), (512, 384), (512, 384), (512, 384), (512, 384), (512, 384), (512, 384), (512, 384), (512, 384), (512, 384), (512, 384), (512, 384), (512, 378), (511, 367), (508, 358), (504, 351), (490, 333), (482, 323), (473, 314), (466, 306), (450, 288), (442, 279), (436, 273), (428, 264), (410, 250), (400, 240), (390, 234), (379, 226), (357, 212), (347, 206), (338, 202)]",226.28732894152503,"[1, 2, 8, 9, 7, 5, 6, 4, 3]","(0, 0.25)",ENG001D,ENG,D,Chinese,Thu Aug 30 16:00:51 2018,Mouse
2,0,4,0,73,5,5,1,334,74,260,138,0,500,200,8000,"[(512, 384), (512, 384), (512, 384), (512, 384), (512, 384), (512, 384), (512, 384), (509, 383), (507, 382), (499, 377), (492, 373), (486, 368), (479, 363), (464, 353), (459, 348), (451, 343), (444, 337), (434, 328), (427, 322), (420, 317), (417, 314), (409, 303), (405, 299), (401, 296), (398, 292), (389, 281), (382, 275), (379, 272), (371, 266), (354, 255), (346, 251), (336, 244), (326, 239), (307, 228)]",217.27024983780905,"[1, 2, 8, 9, 7, 5, 6, 4, 3]","(0, 0.25)",ENG001D,ENG,D,Chinese,Thu Aug 30 16:00:51 2018,Mouse
2,0,4,0,74,2,2,1,363,53,310,137,0,500,200,8000,"[(512, 384), (512, 384), (512, 384), (512, 384), (512, 384), (512, 383), (514, 383), (515, 384), (522, 390), (526, 393), (531, 397), (536, 401), (544, 408), (549, 413), (551, 416), (555, 421), (564, 432), (567, 436), (571, 443), (575, 447), (579, 455), (583, 461), (585, 464), (586, 468), (592, 480), (596, 486), (601, 493), (605, 498), (614, 514), (618, 521), (624, 528), (630, 537), (637, 552), (642, 559), (647, 568), (651, 574), (660, 588)]",54.03948280335512,"[1, 2, 8, 9, 7, 5, 6, 4, 3]","(0, 0.25)",ENG001D,ENG,D,Chinese,Thu Aug 30 16:00:51 2018,Mouse
2,0,4,0,75,1,1,1,486,386,100,136,0,500,200,8000,"[(512, 384), (512, 384), (512, 384), (512, 384), (512, 384), (512, 384), (512, 384), (512, 384), (512, 384), (512, 384), (512, 384), (512, 384), (512, 384), (512, 384), (512, 384), (512, 384), (512, 384), (512, 384), (512, 384), (512, 384), (512, 384), (512, 384), (512, 384), (512, 384), (512, 384), (512, 384), (512, 384), (512, 384), (512, 384), (512, 384), (512, 384), (512, 384), (512, 384), (512, 384), (512, 384), (512, 384), (512, 384), (512, 384), (512, 386), (524, 393), (539, 399), (555, 407), (574, 413), (625, 430), (654, 442), (681, 456), (704, 465), (742, 481), (755, 486)]",22.770378908762215,"[1, 2, 8, 9, 7, 5, 6, 4, 3]","(0, 0.25)",ENG001D,ENG,D,Chinese,Thu Aug 30 16:00:51 2018,Mouse
2,0,4,0,76,1,1,1,315,145,170,135,0,500,200,8000,"[(512, 384), (512, 384), (512, 384), (512, 384), (512, 384), (512, 384), (512, 384), (512, 384), (512, 384), (512, 384), (512, 384), (512, 384), (512, 384), (512, 384), (516, 384), (523, 384), (534, 384), (546, 384), (573, 387), (587, 392), (609, 398), (629, 403), (663, 414), (674, 416), (685, 420), (696, 423), (716, 429), (723, 431), (733, 432), (739, 435), (752, 439), (762, 442)]",13.061551083328114,"[1, 2, 8, 9, 7, 5, 6, 4, 3]","(0, 0.25)",ENG001D,ENG,D,Chinese,Thu Aug 30 16:00:51 2018,Mouse
2,0,4,0,77,4,9,0,-751,631,120,134,0,500,200,8000,"[(512, 384), (512, 384), (512, 384), (512, 384), (512, 384), (512, 384), (512, 384), (512, 384), (512, 384), (512, 384), (512, 384), (512, 384), (512, 384), (512, 384), (512, 384), (512, 384), (512, 384), (512, 384), (512, 384), (512, 384), (512, 384), (512, 384), (512, 384), (512, 384), (512, 384), (512, 384), (512, 384), (512, 384), (512, 384), (512, 384), (512, 384), (512, 384), (512, 384), (512, 384), (512, 384), (512, 384), (512, 384), (512, 384), (512, 384), (512, 384), (512, 384), (512, 384), (512, 384), (512, 384), (512, 384), (512, 384), (512, 384), (512, 384), (512, 384), (512, 384), (512, 384), (512, 384), (512, 384), (512, 384), (512, 384), (512, 384), (512, 384), (512, 384), (512, 384), (512, 384), (512, 384), (512, 384), (512, 384), (503, 393), (498, 398), (490, 404), (480, 412), (460, 427), (448, 436), (431, 448), (416, 460), (377, 485), (361, 497), (346, 509), (329, 520), (302, 534)]",144.46232220802563,"[1, 2, 8, 9, 7, 5, 6, 4, 3]","(0, 0.25)",ENG001D,ENG,D,Chinese,Thu Aug 30 16:00:51 2018,Mouse
2,0,4,0,78,3,1,0,-474,354,120,135,0,500,200,8000,"[(512, 384), (512, 384), (512, 384), (512, 384), (512, 384), (512, 384), (512, 384), (512, 384), (512, 384), (512, 384), (512, 384), (512, 384), (512, 384), (512, 384), (512, 384), (512, 384), (512, 384), (512, 384), (512, 384), (512, 384), (512, 384), (512, 384), (512, 384), (512, 384), (512, 384), (512, 384), (512, 384), (512, 384), (512, 384), (512, 384), (512, 384), (512, 384), (512, 384), (512, 384), (512, 384), (513, 385), (517, 389), (523, 395), (529, 400), (566, 424), (587, 436), (610, 453), (633, 469), (667, 494), (683, 508), (695, 518), (704, 528), (717, 550)]",38.999033298733494,"[1, 2, 8, 9, 7, 5, 6, 4, 3]","(0, 0.25)",ENG001D,ENG,D,Chinese,Thu Aug 30 16:00:51 2018,Mouse
2,0,4,0,79,2,2,1,394,74,320,136,0,500,200,8000,"[(512, 384), (512, 384), (512, 384), (512, 384), (512, 384), (512, 384), (512, 384), (511, 384), (512, 386), (513, 388), (517, 393), (526, 403), (532, 407), (535, 410), (537, 414), (541, 421), (545, 426), (546, 429), (549, 432), (554, 438), (557, 443), (558, 445), (559, 446), (563, 454), (566, 459), (570, 465), (573, 470), (584, 485), (589, 493), (595, 501), (599, 506), (611, 524), (616, 530), (620, 538), (625, 545), (632, 557), (636, 565), (640, 572), (644, 580), (655, 595)]",55.873520395255056,"[1, 2, 8, 9, 7, 5, 6, 4, 3]","(0, 0.25)",ENG001D,ENG,D,Chinese,Thu Aug 30 16:00:51 2018,Mouse
2,0,4,0,80,4,4,1,442,272,170,136,0,500,200,8000,"[(512, 384), (512, 384), (512, 384), (512, 384), (512, 384), (512, 384), (512, 384), (512, 384), (512, 384), (512, 384), (512, 384), (512, 384), (512, 384), (512, 384), (512, 384), (512, 384), (512, 384), (512, 384), (512, 384), (512, 384), (512, 384), (512, 384), (512, 384), (512, 384), (512, 384), (512, 384), (512, 384), (513, 376), (519, 360), (523, 349), (529, 338), (534, 327), (546, 307), (553, 296), (562, 284), (569, 275), (588, 251), (597, 239), (604, 231), (615, 218), (631, 202), (640, 195), (647, 189), (653, 182), (670, 167)]",306.0587597306429,"[1, 2, 8, 9, 7, 5, 6, 4, 3]","(0, 0.25)",ENG001D,ENG,D,Chinese,Thu Aug 30 16:00:51 2018,Mouse
2,0,4,0,81,1,1,1,667,327,340,135,0,500,200,8000,"[(512, 384), (512, 384), (512, 384), (512, 384), (512, 384), (512, 384), (512, 384), (512, 384), (512, 384), (512, 384), (512, 384), (512, 384), (512, 384), (512, 384), (512, 384), (512, 384), (512, 384), (512, 384), (512, 384), (512, 384), (512, 384), (512, 384), (512, 384), (512, 384), (512, 384), (512, 384), (512, 384), (512, 384), (512, 384), (512, 384), (512, 384), (512, 384), (512, 385), (513, 385), (514, 387), (515, 388), (515, 388), (515, 388), (515, 388), (515, 388), (515, 388), (515, 388), (515, 388), (515, 388), (515, 388), (515, 388), (515, 388), (515, 388), (515, 388), (515, 388), (515, 388), (516, 389), (516, 390), (517, 392), (519, 394), (525, 400), (532, 402), (542, 406), (553, 411), (584, 421), (601, 426), (625, 431), (645, 436), (695, 444), (722, 449), (744, 453), (771, 458)]",15.945395900922854,"[1, 2, 8, 9, 7, 5, 6, 4, 3]","(0, 0.25)",ENG001D,ENG,D,Chinese,Thu Aug 30 16:00:51 2018,Mouse
2,0,4,0,82,5,3,0,-1242,442,800,134,0,500,200,8000,"[(512, 384), (512, 384), (512, 384), (512, 384), (512, 384), (512, 384), (512, 384), (512, 384), (512, 384), (512, 384), (512, 384), (512, 384), (512, 384), (512, 384), (512, 384), (512, 384), (512, 384), (512, 384), (512, 384), (512, 384), (512, 384), (512, 384), (512, 384), (512, 384), (512, 384), (512, 384), (512, 384), (512, 384), (512, 384), (512, 384), (512, 384), (512, 384), (512, 384), (512, 384), (512, 384), (512, 384), (512, 384), (512, 384), (512, 384), (512, 384), (512, 384), (512, 384), (512, 384), (512, 384), (513, 385), (513, 388), (514, 389), (514, 389), (514, 389), (514, 389), (514, 389), (514, 389), (514, 389), (514, 389), (514, 389), (514, 389), (514, 389), (514, 389), (514, 389), (514, 389), (514, 389), (514, 389), (514, 389), (514, 389), (514, 389), (514, 389), (514, 389), (514, 389), (514, 389), (514, 389), (514, 389), (514, 389), (514, 389), (514, 389), (514, 389), (514, 389), (514, 389), (514, 389), (514, 389), (514, 389), (514, 389), (514, 389), (514, 389), (514, 389), (514, 389), (514, 389), (514, 389), (514, 389), (514, 389), (518, 389), (519, 388), (521, 387), (522, 387), (525, 387), (525, 387), (526, 387), (526, 387), (526, 387), (526, 387), (526, 387), (526, 387), (526, 387), (526, 387), (526, 387), (526, 387), (527, 387), (527, 387), (527, 387), (527, 387), (527, 387), (527, 386), (527, 385), (530, 383), (548, 376), (558, 372), (568, 368), (580, 363), (622, 348), (639, 341), (665, 333), (689, 320), (720, 306), (732, 300), (744, 295), (752, 289)]",338.40468955103233,"[1, 2, 8, 9, 7, 5, 6, 4, 3]","(0, 0.25)",ENG001D,ENG,D,Chinese,Thu Aug 30 16:00:51 2018,Mouse
2,0,4,0,83,2,2,1,371,51,320,135,0,500,200,8000,"[(512, 384), (512, 384), (512, 384), (512, 384), (512, 384), (519, 387), (527, 392), (534, 396), (542, 401), (561, 413), (570, 417), (577, 423), (585, 428), (595, 437), (598, 442), (601, 444), (605, 448), (610, 454), (612, 456), (614, 459), (616, 461), (622, 467), (625, 471), (627, 475), (629, 479), (634, 488), (636, 494), (639, 499), (641, 506), (646, 519), (649, 527), (650, 532), (652, 540), (660, 556), (663, 564), (666, 572), (668, 579), (672, 592)]",52.43140797117251,"[1, 2, 8, 9, 7, 5, 6, 4, 3]","(0, 0.25)",ENG001D,ENG,D,Chinese,Thu Aug 30 16:00:51 2018,Mouse
2,0,4,0,84,9,9,1,424,124,300,135,0,500,200,8000,"[(511, 384), (511, 384), (511, 384), (511, 384), (511, 384), (511, 384), (511, 384), (511, 384), (511, 384), (511, 384), (511, 384), (511, 384), (510, 384), (510, 384), (508, 383), (508, 383), (508, 383), (508, 383), (508, 383), (508, 383), (508, 383), (508, 383), (508, 383), (508, 383), (508, 383), (508, 383), (508, 383), (508, 383), (508, 383), (508, 383), (507, 383), (502, 383), (497, 387), (488, 393), (478, 398), (457, 412), (441, 424), (417, 437), (400, 448), (360, 479), (339, 498), (319, 512), (299, 525)]",146.4965630175858,"[1, 2, 8, 9, 7, 5, 6, 4, 3]","(0, 0.25)",ENG001D,ENG,D,Chinese,Thu Aug 30 16:00:51 2018,Mouse
2,0,4,0,85,1,9,0,-712,602,110,134,0,500,200,8000,"[(512, 384), (512, 384), (512, 384), (512, 384), (512, 384), (512, 384), (512, 384), (512, 384), (512, 384), (512, 384), (512, 384), (512, 384), (512, 384), (512, 384), (512, 384), (512, 384), (512, 384), (512, 384), (512, 384), (512, 384), (512, 384), (512, 384), (512, 384), (512, 384), (512, 384), (512, 384), (512, 384), (512, 384), (512, 384), (512, 384), (512, 384), (512, 384), (512, 384), (512, 384), (512, 384), (512, 384), (512, 384), (512, 384), (512, 384), (512, 384), (512, 384), (512, 384), (512, 384), (512, 384), (512, 384), (512, 384), (512, 384), (512, 384), (512, 384), (512, 384), (512, 384), (512, 384), (512, 384), (512, 384), (512, 384), (512, 384), (512, 384), (512, 384), (512, 384), (512, 384), (510, 389), (494, 401), (482, 409), (473, 415), (460, 424), (423, 450), (403, 466), (380, 482), (364, 492), (331, 520), (321, 530), (309, 539)]",142.63657221548885,"[1, 2, 8, 9, 7, 5, 6, 4, 3]","(0, 0.25)",ENG001D,ENG,D,Chinese,Thu Aug 30 16:00:51 2018,Mouse
2,0,4,0,86,4,7,0,-382,302,80,135,0,500,200,8000,"[(512, 384), (512, 384), (512, 384), (512, 384), (512, 384), (512, 384), (512, 384), (512, 384), (512, 384), (512, 384), (512, 384), (512, 384), (512, 384), (512, 384), (512, 384), (512, 384), (512, 384), (512, 384), (512, 384), (512, 384), (512, 384), (512, 384), (512, 384), (512, 384), (512, 384), (512, 384), (512, 384), (512, 384), (512, 384), (512, 384), (509, 384), (495, 384), (474, 384), (446, 384), (376, 384), (337, 383), (309, 383), (276, 383), (217, 383)]",180.19422223746983,"[1, 2, 8, 9, 7, 5, 6, 4, 3]","(0, 0.25)",ENG001D,ENG,D,Chinese,Thu Aug 30 16:00:51 2018,Mouse
2,0,4,0,87,6,7,0,-315,265,50,136,0,500,200,8000,"[(512, 384), (512, 384), (512, 384), (512, 384), (512, 384), (512, 384), (512, 384), (512, 384), (512, 384), (512, 384), (512, 384), (512, 384), (512, 384), (512, 384), (512, 384), (512, 384), (512, 384), (512, 384), (512, 384), (512, 384), (512, 384), (512, 384), (512, 384), (512, 384), (512, 384), (512, 384), (499, 384), (443, 384), (404, 384), (362, 384), (323, 384), (223, 384)]",180.0,"[1, 2, 8, 9, 7, 5, 6, 4, 3]","(0, 0.25)",ENG001D,ENG,D,Chinese,Thu Aug 30 16:00:51 2018,Mouse
2,0,4,0,88,7,7,1,162,72,90,137,0,500,200,8000,"[(512, 384), (512, 384), (512, 384), (512, 384), (512, 384), (512, 384), (512, 384), (510, 385), (488, 385), (469, 385), (450, 385), (424, 385), (358, 385), (327, 385), (299, 385), (266, 385), (221, 385)]",179.80310806192807,"[1, 2, 8, 9, 7, 5, 6, 4, 3]","(0, 0.25)",ENG001D,ENG,D,Chinese,Thu Aug 30 16:00:51 2018,Mouse
2,0,4,0,89,3,3,1,441,351,90,137,0,500,200,8000,"[(512, 384), (512, 384), (512, 384), (512, 384), (512, 384), (512, 384), (512, 384), (512, 384), (512, 384), (512, 384), (512, 384), (512, 384), (512, 384), (512, 384), (512, 384), (512, 384), (512, 384), (512, 384), (512, 384), (512, 384), (512, 384), (512, 384), (512, 384), (512, 384), (512, 384), (512, 384), (512, 384), (512, 384), (512, 384), (512, 384), (512, 384), (512, 384), (512, 384), (512, 384), (512, 384), (517, 385), (535, 376), (544, 372), (554, 371), (570, 365), (620, 342), (655, 327), (697, 312), (733, 301), (798, 278)]",339.66381471246353,"[1, 2, 8, 9, 7, 5, 6, 4, 3]","(0, 0.25)",ENG001D,ENG,D,Chinese,Thu Aug 30 16:00:51 2018,Mouse
2,0,4,0,90,7,7,1,182,92,90,136,0,500,200,8000,"[(512, 384), (512, 384), (512, 384), (512, 384), (512, 384), (512, 384), (512, 384), (512, 384), (512, 384), (511, 384), (504, 384), (496, 384), (464, 387), (444, 389), (419, 389), (391, 389), (322, 389), (283, 389), (243, 393)]",178.08375562750362,"[1, 2, 8, 9, 7, 5, 6, 4, 3]","(0, 0.25)",ENG001D,ENG,D,Chinese,Thu Aug 30 16:00:51 2018,Mouse
2,0,4,0,91,4,1,0,-445,295,150,135,0,500,200,8000,"[(512, 384), (512, 384), (512, 384), (512, 384), (512, 384), (512, 384), (512, 384), (512, 384), (512, 384), (512, 384), (512, 384), (512, 384), (512, 384), (512, 384), (512, 384), (512, 384), (512, 384), (512, 384), (512, 384), (512, 384), (512, 384), (512, 384), (512, 384), (512, 384), (512, 384), (512, 384), (512, 384), (512, 384), (512, 384), (514, 384), (514, 384), (518, 388), (522, 391), (528, 395), (535, 398), (541, 399), (551, 402), (576, 410), (591, 413), (611, 419), (631, 425), (673, 440), (705, 454), (734, 466), (785, 484)]",20.117801024312257,"[1, 2, 8, 9, 7, 5, 6, 4, 3]","(0, 0.25)",ENG001D,ENG,D,Chinese,Thu Aug 30 16:00:51 2018,Mouse
2,0,4,0,92,6,3,0,-402,212,190,136,0,500,200,8000,"[(512, 384), (512, 384), (512, 384), (512, 384), (512, 384), (512, 384), (512, 384), (512, 384), (512, 384), (512, 384), (512, 384), (512, 384), (512, 384), (512, 384), (512, 384), (512, 384), (512, 384), (512, 384), (512, 384), (512, 384), (512, 384), (513, 384), (516, 384), (520, 384), (527, 384), (537, 384), (544, 384), (549, 384), (555, 382), (567, 380), (572, 379), (580, 376), (584, 375), (604, 370), (615, 366), (627, 363), (644, 358), (685, 347), (716, 338), (743, 333), (771, 325)]",347.1670525857759,"[1, 2, 8, 9, 7, 5, 6, 4, 3]","(0, 0.25)",ENG001D,ENG,D,Chinese,Thu Aug 30 16:00:51 2018,Mouse
2,0,4,0,93,1,1,1,283,72,211,137,0,500,200,8000,"[(512, 384), (512, 384), (512, 384), (512, 384), (512, 384), (512, 384), (512, 384), (512, 385), (512, 385), (515, 385), (517, 386), (520, 386), (523, 387), (536, 392), (543, 395), (553, 397), (561, 400), (576, 405), (584, 407), (594, 410), (601, 412), (622, 419), (634, 424), (645, 429), (656, 433), (689, 442), (708, 448), (728, 453), (753, 461)]",17.7187888774516,"[1, 2, 8, 9, 7, 5, 6, 4, 3]","(0, 0.25)",ENG001D,ENG,D,Chinese,Thu Aug 30 16:00:51 2018,Mouse
2,0,4,0,94,9,9,1,612,502,110,137,0,500,200,8000,"[(512, 384), (512, 384), (512, 384), (512, 384), (512, 384), (512, 384), (512, 384), (512, 384), (512, 384), (512, 384), (512, 384), (512, 384), (512, 384), (512, 384), (512, 384), (512, 384), (512, 384), (512, 384), (512, 384), (512, 384), (512, 384), (512, 384), (512, 384), (512, 384), (512, 384), (512, 384), (512, 384), (512, 384), (512, 384), (512, 384), (512, 384), (512, 384), (512, 384), (512, 384), (512, 384), (512, 384), (512, 384), (512, 384), (512, 384), (512, 384), (512, 384), (512, 384), (512, 384), (512, 384), (512, 384), (512, 384), (512, 384), (512, 384), (512, 384), (512, 384), (512, 386), (507, 390), (498, 396), (471, 411), (454, 423), (434, 438), (409, 455), (369, 486), (350, 505), (334, 523), (320, 536), (287, 567)]",140.87739260664313,"[1, 2, 8, 9, 7, 5, 6, 4, 3]","(0, 0.25)",ENG001D,ENG,D,Chinese,Thu Aug 30 16:00:51 2018,Mouse
2,0,4,0,95,7,7,1,176,96,80,136,0,500,200,8000,"[(512, 384), (512, 384), (512, 384), (512, 384), (512, 384), (512, 384), (512, 384), (512, 384), (512, 384), (510, 385), (488, 385), (472, 385), (457, 385), (434, 385), (366, 382), (324, 380), (284, 373), (246, 365)]",184.08561677997488,"[1, 2, 8, 9, 7, 5, 6, 4, 3]","(0, 0.25)",ENG001D,ENG,D,Chinese,Thu Aug 30 16:00:51 2018,Mouse
2,0,4,0,96,3,7,0,-411,261,150,135,0,500,200,8000,"[(512, 384), (512, 384), (512, 384), (512, 384), (512, 384), (512, 384), (512, 384), (512, 384), (512, 384), (512, 384), (512, 384), (512, 384), (512, 384), (512, 384), (512, 384), (512, 384), (512, 384), (512, 384), (512, 384), (512, 384), (512, 384), (512, 384), (512, 384), (512, 384), (512, 384), (512, 384), (512, 383), (512, 383), (512, 383), (510, 383), (506, 383), (503, 383), (497, 384), (493, 384), (479, 384), (469, 384), (456, 384), (440, 384), (384, 384), (340, 384), (292, 384), (245, 384)]",180.0,"[1, 2, 8, 9, 7, 5, 6, 4, 3]","(0, 0.25)",ENG001D,ENG,D,Chinese,Thu Aug 30 16:00:51 2018,Mouse
2,0,4,0,97,8,9,0,-92,22,70,136,0,500,200,8000,"[(512, 384), (512, 384), (511, 384), (505, 388), (488, 404), (441, 448), (415, 471), (388, 496), (360, 527), (306, 581)]",136.27934569237604,"[1, 2, 8, 9, 7, 5, 6, 4, 3]","(0, 0.25)",ENG001D,ENG,D,Chinese,Thu Aug 30 16:00:51 2018,Mouse
2,0,4,0,98,2,2,1,482,242,240,137,0,500,200,8000,"[(512, 384), (512, 384), (512, 384), (512, 384), (512, 384), (512, 384), (512, 384), (512, 384), (512, 384), (512, 384), (512, 384), (512, 384), (512, 384), (512, 384), (512, 384), (512, 384), (512, 384), (512, 384), (512, 384), (512, 384), (512, 384), (512, 384), (512, 384), (512, 384), (522, 387), (527, 390), (533, 392), (542, 396), (549, 402), (552, 404), (555, 406), (559, 409), (560, 410), (561, 410), (562, 412), (563, 414), (564, 420), (566, 425), (567, 432), (569, 440), (575, 464), (580, 478), (590, 497), (598, 515), (621, 551), (631, 563), (639, 575), (646, 585), (657, 604)]",56.61148642388849,"[1, 2, 8, 9, 7, 5, 6, 4, 3]","(0, 0.25)",ENG001D,ENG,D,Chinese,Thu Aug 30 16:00:51 2018,Mouse
2,0,4,0,99,9,9,1,852,802,50,137,0,500,200,8000,"[(512, 384), (512, 384), (512, 384), (512, 384), (512, 384), (512, 384), (512, 384), (512, 384), (512, 384), (512, 384), (512, 384), (512, 384), (512, 384), (512, 384), (512, 384), (512, 384), (512, 384), (512, 384), (512, 384), (512, 384), (512, 384), (512, 384), (512, 384), (512, 384), (512, 384), (512, 384), (512, 384), (512, 384), (512, 384), (512, 384), (512, 384), (512, 384), (512, 384), (512, 384), (512, 384), (512, 384), (512, 384), (512, 384), (512, 384), (512, 384), (512, 384), (512, 384), (512, 384), (512, 384), (512, 384), (512, 384), (512, 384), (512, 384), (512, 384), (512, 384), (512, 384), (512, 384), (512, 384), (512, 384), (512, 384), (512, 384), (512, 384), (512, 384), (512, 384), (512, 384), (512, 384), (512, 384), (512, 384), (512, 384), (512, 384), (512, 384), (512, 384), (512, 384), (512, 384), (512, 384), (512, 384), (512, 384), (512, 384), (512, 384), (512, 384), (512, 384), (512, 384), (512, 384), (512, 384), (512, 384), (511, 384), (498, 392), (472, 411), (397, 465), (352, 500), (304, 539)]",143.30680427508614,"[1, 2, 8, 9, 7, 5, 6, 4, 3]","(0, 0.25)",ENG001D,ENG,D,Chinese,Thu Aug 30 16:00:51 2018,Mouse
2,0,4,0,100,7,7,1,223,163,60,136,0,500,200,8000,"[(512, 384), (512, 384), (512, 384), (512, 384), (512, 384), (512, 384), (512, 384), (512, 384), (512, 384), (512, 384), (512, 384), (512, 384), (512, 384), (512, 384), (512, 384), (512, 384), (511, 384), (501, 384), (455, 384), (419, 384), (374, 384), (330, 384), (249, 384)]",180.0,"[1, 2, 8, 9, 7, 5, 6, 4, 3]","(0, 0.25)",ENG001D,ENG,D,Chinese,Thu Aug 30 16:00:51 2018,Mouse
2,0,4,0,101,7,7,1,241,181,60,135,0,500,200,8000,"[(512, 384), (512, 384), (512, 384), (512, 384), (512, 384), (512, 384), (512, 384), (512, 384), (512, 384), (512, 384), (512, 384), (512, 384), (512, 384), (512, 384), (512, 384), (512, 384), (512, 384), (512, 384), (509, 384), (488, 384), (472, 384), (441, 384), (400, 384), (297, 384), (225, 384)]",180.0,"[1, 2, 8, 9, 7, 5, 6, 4, 3]","(0, 0.25)",ENG001D,ENG,D,Chinese,Thu Aug 30 16:00:51 2018,Mouse
2,0,4,0,102,8,7,0,-275,215,60,134,0,500,200,8000,"[(512, 384), (512, 384), (512, 384), (512, 384), (512, 384), (512, 384), (512, 384), (512, 384), (512, 384), (512, 384), (512, 384), (512, 384), (512, 384), (512, 384), (512, 384), (512, 384), (512, 384), (512, 384), (512, 384), (512, 384), (512, 384), (511, 384), (489, 384), (468, 384), (435, 384), (398, 384), (279, 384), (205, 384)]",180.0,"[1, 2, 8, 9, 7, 5, 6, 4, 3]","(0, 0.25)",ENG001D,ENG,D,Chinese,Thu Aug 30 16:00:51 2018,Mouse
2,0,4,0,103,8,2,0,-721,661,60,135,0,500,200,8000,"[(512, 384), (512, 384), (512, 384), (512, 384), (512, 384), (512, 384), (512, 384), (512, 384), (512, 384), (512, 384), (512, 384), (512, 384), (512, 384), (512, 384), (512, 384), (512, 384), (512, 384), (512, 384), (512, 384), (512, 384), (512, 384), (512, 384), (512, 384), (512, 384), (512, 384), (512, 384), (512, 384), (512, 384), (512, 384), (512, 384), (512, 384), (512, 384), (512, 384), (512, 384), (512, 384), (512, 384), (512, 384), (512, 384), (512, 384), (512, 384), (512, 384), (512, 384), (512, 384), (512, 384), (512, 384), (512, 384), (512, 384), (512, 384), (512, 384), (512, 384), (512, 384), (512, 384), (512, 384), (512, 384), (512, 384), (512, 384), (512, 384), (512, 384), (512, 384), (512, 384), (512, 384), (512, 384), (512, 384), (512, 384), (512, 384), (512, 384), (513, 388), (524, 404), (560, 459), (585, 493), (609, 529), (633, 560), (670, 611)]",55.16072292763713,"[1, 2, 8, 9, 7, 5, 6, 4, 3]","(0, 0.25)",ENG001D,ENG,D,Chinese,Thu Aug 30 16:00:51 2018,Mouse
2,0,4,0,104,4,8,0,-1042,982,60,136,0,500,200,8000,"[(512, 384), (512, 384), (512, 384), (512, 384), (512, 384), (512, 384), (512, 384), (512, 384), (512, 384), (512, 384), (512, 384), (512, 384), (512, 384), (512, 384), (512, 384), (512, 384), (512, 384), (512, 384), (512, 384), (512, 384), (512, 384), (512, 384), (512, 384), (512, 384), (512, 384), (512, 384), (512, 384), (512, 384), (512, 384), (512, 384), (512, 384), (512, 384), (512, 384), (512, 384), (512, 384), (512, 384), (512, 384), (512, 384), (512, 384), (512, 384), (512, 384), (512, 384), (512, 384), (512, 384), (512, 384), (512, 384), (512, 384), (512, 384), (512, 384), (512, 384), (512, 384), (512, 384), (512, 384), (512, 384), (512, 384), (512, 384), (512, 384), (512, 384), (512, 384), (512, 384), (512, 384), (512, 384), (512, 384), (512, 384), (512, 384), (512, 384), (512, 384), (512, 384), (512, 384), (512, 384), (512, 384), (512, 384), (512, 384), (512, 384), (512, 384), (512, 384), (512, 384), (512, 384), (512, 384), (512, 384), (512, 384), (512, 384), (512, 384), (512, 384), (512, 384), (512, 384), (512, 384), (512, 384), (512, 384), (512, 384), (512, 384), (512, 384), (512, 384), (512, 384), (512, 384), (512, 384), (512, 384), (512, 384), (512, 399), (508, 426), (491, 492), (485, 527), (478, 562), (473, 595), (465, 630)]",100.81640233535308,"[1, 2, 8, 9, 7, 5, 6, 4, 3]","(0, 0.25)",ENG001D,ENG,D,Chinese,Thu Aug 30 16:00:51 2018,Mouse
2,0,4,0,105,1,1,1,262,82,180,137,0,500,200,8000,"[(512, 384), (512, 384), (512, 384), (512, 384), (512, 384), (512, 384), (512, 384), (512, 384), (513, 384), (519, 384), (527, 384), (536, 384), (563, 384), (578, 384), (595, 384), (612, 384), (639, 384), (655, 388), (667, 389), (681, 392), (705, 395), (715, 396), (724, 398), (731, 399), (748, 403), (756, 405), (765, 408)]",5.4189569976703105,"[1, 2, 8, 9, 7, 5, 6, 4, 3]","(0, 0.25)",ENG001D,ENG,D,Chinese,Thu Aug 30 16:00:51 2018,Mouse
2,0,4,0,106,6,6,1,1076,306,770,137,0,500,200,8000,"[(512, 384), (512, 384), (512, 384), (512, 384), (512, 384), (512, 384), (512, 384), (512, 384), (512, 384), (512, 384), (512, 384), (512, 384), (512, 384), (512, 384), (512, 384), (512, 384), (512, 384), (512, 384), (512, 384), (512, 384), (512, 384), (512, 384), (512, 384), (512, 384), (512, 384), (512, 384), (512, 384), (512, 384), (512, 384), (512, 384), (512, 386), (510, 391), (501, 394), (488, 397), (481, 399), (475, 401), (465, 402), (465, 402), (465, 402), (465, 402), (465, 402), (463, 404), (459, 408), (454, 416), (438, 429), (430, 436), (422, 442), (411, 449), (394, 458), (388, 461), (385, 464), (383, 465), (382, 465), (382, 465), (382, 465), (382, 465), (382, 465), (382, 465), (382, 465), (382, 465), (382, 465), (384, 465), (388, 465), (391, 463), (402, 456), (408, 452), (414, 449), (419, 445), (436, 431), (441, 422), (447, 413), (454, 400), (467, 370), (472, 353), (478, 338), (483, 321), (489, 298), (492, 287), (494, 279), (497, 270), (500, 260), (501, 253), (504, 248), (504, 246), (506, 241), (506, 241), (506, 241), (506, 241), (506, 241), (506, 241), (506, 241), (506, 241), (506, 241), (506, 241), (506, 241), (506, 241), (506, 237), (506, 230), (509, 218), (509, 207), (511, 191), (511, 183), (511, 179), (511, 172), (507, 156), (503, 146), (498, 136), (492, 124)]",265.6012946450045,"[1, 2, 8, 9, 7, 5, 6, 4, 3]","(0, 0.25)",ENG001D,ENG,D,Chinese,Thu Aug 30 16:00:51 2018,Mouse
2,0,4,0,107,4,1,0,-324,204,120,136,0,500,200,8000,"[(512, 384), (512, 384), (512, 384), (512, 384), (512, 384), (512, 384), (512, 384), (512, 384), (512, 384), (512, 384), (512, 384), (512, 384), (512, 384), (512, 384), (512, 384), (512, 384), (512, 384), (512, 384), (512, 384), (512, 384), (515, 384), (519, 384), (525, 386), (532, 387), (552, 390), (564, 392), (576, 395), (592, 399), (625, 410), (650, 418), (672, 424), (703, 432), (770, 453)]",14.97287576678692,"[1, 2, 8, 9, 7, 5, 6, 4, 3]","(0, 0.25)",ENG001D,ENG,D,Chinese,Thu Aug 30 16:00:51 2018,Mouse
2,0,4,0,108,5,5,1,752,602,150,137,0,500,200,8000,"[(512, 384), (512, 384), (512, 384), (512, 384), (512, 384), (512, 384), (512, 384), (512, 384), (512, 384), (512, 384), (512, 384), (512, 384), (512, 384), (512, 384), (512, 384), (512, 384), (512, 384), (512, 384), (512, 384), (512, 384), (512, 384), (512, 384), (512, 384), (512, 384), (512, 384), (512, 384), (512, 384), (512, 384), (512, 384), (512, 384), (512, 384), (512, 384), (512, 384), (512, 384), (512, 384), (512, 384), (512, 384), (512, 384), (512, 384), (512, 384), (512, 384), (512, 384), (512, 384), (512, 384), (512, 384), (512, 384), (512, 384), (512, 384), (512, 384), (512, 384), (512, 384), (512, 384), (512, 384), (512, 384), (512, 384), (512, 384), (512, 384), (512, 384), (512, 384), (512, 384), (510, 384), (508, 384), (504, 383), (497, 378), (484, 364), (473, 352), (453, 328), (439, 313), (409, 282), (390, 263), (375, 251), (360, 239), (345, 226), (337, 218), (330, 213), (328, 210)]",223.39997528485225,"[1, 2, 8, 9, 7, 5, 6, 4, 3]","(0, 0.25)",ENG001D,ENG,D,Chinese,Thu Aug 30 16:00:51 2018,Mouse
2,0,4,0,109,2,2,1,440,130,310,137,0,500,200,8000,"[(512, 384), (512, 384), (512, 384), (512, 384), (512, 384), (512, 384), (512, 384), (512, 384), (512, 384), (512, 384), (512, 384), (512, 384), (513, 385), (513, 385), (513, 385), (513, 386), (516, 388), (526, 395), (531, 399), (537, 403), (546, 407), (559, 415), (568, 419), (576, 421), (580, 424), (583, 425), (583, 425), (583, 425), (583, 425), (583, 425), (583, 426), (586, 429), (586, 432), (594, 450), (598, 459), (604, 472), (609, 483), (620, 505), (623, 516), (628, 527), (634, 538), (639, 567), (642, 582), (644, 600)]",58.57043438516149,"[1, 2, 8, 9, 7, 5, 6, 4, 3]","(0, 0.25)",ENG001D,ENG,D,Chinese,Thu Aug 30 16:00:51 2018,Mouse
2,0,4,0,110,2,7,0,-672,592,80,136,0,500,200,8000,"[(512, 384), (512, 384), (512, 384), (512, 384), (512, 384), (512, 384), (512, 384), (512, 384), (512, 384), (512, 384), (512, 384), (512, 384), (512, 384), (512, 384), (512, 384), (512, 384), (512, 384), (512, 384), (512, 384), (512, 384), (512, 384), (512, 384), (512, 384), (512, 384), (512, 384), (512, 384), (512, 384), (512, 384), (512, 384), (512, 384), (512, 384), (512, 384), (512, 384), (512, 384), (512, 384), (512, 384), (512, 384), (512, 384), (512, 384), (512, 384), (512, 384), (512, 384), (512, 384), (512, 384), (512, 384), (512, 384), (512, 384), (512, 384), (512, 384), (512, 384), (512, 384), (512, 384), (512, 384), (512, 384), (512, 384), (512, 384), (512, 384), (512, 384), (512, 384), (510, 384), (505, 384), (494, 386), (454, 394), (430, 399), (396, 400), (362, 400), (287, 400), (254, 400)]",176.45131802609555,"[1, 2, 8, 9, 7, 5, 6, 4, 3]","(0, 0.25)",ENG001D,ENG,D,Chinese,Thu Aug 30 16:00:51 2018,Mouse
2,0,4,0,111,8,8,1,502,412,90,137,0,500,200,8000,"[(512, 384), (512, 384), (512, 384), (512, 384), (512, 384), (512, 384), (512, 384), (512, 384), (512, 384), (512, 384), (512, 384), (512, 384), (512, 384), (512, 384), (512, 384), (512, 384), (512, 384), (512, 384), (512, 384), (512, 384), (512, 384), (512, 384), (512, 384), (512, 384), (512, 384), (512, 384), (512, 384), (512, 384), (512, 384), (512, 384), (512, 384), (512, 384), (512, 384), (512, 384), (512, 384), (512, 384), (512, 384), (512, 384), (512, 384), (512, 384), (512, 384), (513, 389), (513, 405), (513, 469), (518, 504), (518, 532), (518, 560), (512, 603), (510, 616), (505, 631), (504, 643)]",91.76919130604661,"[1, 2, 8, 9, 7, 5, 6, 4, 3]","(0, 0.25)",ENG001D,ENG,D,Chinese,Thu Aug 30 16:00:51 2018,Mouse
2,0,4,0,112,3,3,1,995,394,601,137,0,500,200,8000,"[(512, 384), (512, 384), (512, 384), (512, 384), (512, 384), (512, 384), (512, 384), (512, 384), (512, 384), (512, 384), (512, 384), (512, 384), (512, 384), (512, 384), (512, 384), (512, 384), (512, 384), (512, 384), (512, 384), (512, 384), (512, 384), (512, 384), (512, 384), (512, 384), (512, 384), (512, 384), (512, 384), (512, 384), (512, 384), (512, 384), (512, 384), (512, 384), (512, 384), (512, 384), (512, 384), (512, 384), (512, 384), (512, 384), (512, 384), (512, 383), (512, 375), (512, 365), (519, 355), (531, 336), (538, 330), (545, 322), (550, 318), (564, 309), (570, 305), (576, 300), (584, 294), (597, 279), (604, 270), (612, 260), (616, 252), (623, 242), (624, 241), (626, 240), (626, 239), (626, 239), (627, 238), (627, 238), (627, 238), (629, 237), (629, 237), (631, 237), (632, 237), (635, 237), (636, 237), (639, 238), (639, 238), (640, 239), (642, 242), (642, 242), (642, 243), (642, 243), (643, 243), (643, 245), (643, 248), (643, 254), (643, 257), (643, 260), (643, 264), (641, 272), (640, 274), (640, 277), (640, 278), (640, 280), (640, 280), (640, 280), (640, 281), (646, 284), (651, 284), (658, 285), (665, 285), (684, 286), (696, 286), (711, 286), (734, 286), (776, 286)]",339.634463735911,"[1, 2, 8, 9, 7, 5, 6, 4, 3]","(0, 0.25)",ENG001D,ENG,D,Chinese,Thu Aug 30 16:00:51 2018,Mouse
2,0,4,0,113,9,9,1,651,521,130,136,0,500,200,8000,"[(512, 384), (512, 384), (512, 384), (512, 384), (512, 384), (512, 384), (512, 384), (512, 384), (512, 384), (512, 384), (512, 384), (512, 384), (512, 384), (512, 384), (512, 384), (512, 384), (512, 384), (512, 384), (512, 384), (512, 384), (512, 384), (512, 384), (512, 384), (512, 384), (512, 384), (512, 384), (512, 384), (512, 384), (512, 384), (512, 384), (512, 384), (512, 384), (512, 384), (512, 384), (512, 384), (512, 384), (512, 384), (512, 384), (512, 384), (512, 384), (512, 384), (512, 384), (512, 384), (512, 384), (512, 384), (512, 384), (512, 384), (512, 384), (512, 384), (512, 384), (512, 384), (512, 384), (512, 385), (509, 396), (491, 416), (481, 431), (453, 462), (435, 478), (418, 490), (403, 500), (377, 515), (366, 521), (356, 526), (346, 532), (330, 543), (320, 551)]",138.98352581385066,"[1, 2, 8, 9, 7, 5, 6, 4, 3]","(0, 0.25)",ENG001D,ENG,D,Chinese,Thu Aug 30 16:00:51 2018,Mouse
2,0,4,0,114,3,3,1,305,95,210,135,0,500,200,8000,"[(512, 384), (512, 384), (512, 384), (512, 384), (512, 384), (512, 384), (512, 384), (512, 384), (512, 384), (511, 384), (511, 384), (509, 383), (509, 383), (508, 383), (508, 380), (508, 377), (509, 375), (513, 371), (523, 365), (529, 362), (538, 360), (546, 358), (566, 351), (579, 348), (595, 341), (618, 334), (660, 321), (686, 311), (706, 305), (732, 296), (779, 282)]",339.09201952899036,"[1, 2, 8, 9, 7, 5, 6, 4, 3]","(0, 0.25)",ENG001D,ENG,D,Chinese,Thu Aug 30 16:00:51 2018,Mouse
2,0,4,0,115,3,9,0,-531,431,100,134,0,500,200,8000,"[(512, 384), (512, 384), (512, 384), (512, 384), (512, 384), (512, 384), (512, 384), (512, 384), (512, 384), (512, 384), (512, 384), (512, 384), (512, 384), (512, 384), (512, 384), (512, 384), (512, 384), (512, 384), (512, 384), (512, 384), (512, 384), (512, 384), (512, 384), (512, 384), (512, 384), (512, 384), (512, 384), (512, 384), (512, 384), (512, 384), (512, 384), (512, 384), (512, 384), (512, 384), (512, 384), (512, 384), (512, 384), (512, 384), (512, 384), (512, 384), (512, 384), (512, 384), (512, 384), (510, 386), (499, 395), (476, 414), (461, 424), (444, 437), (428, 447), (392, 470), (373, 480), (348, 495), (333, 503), (296, 519)]",147.9946167919165,"[1, 2, 8, 9, 7, 5, 6, 4, 3]","(0, 0.25)",ENG001D,ENG,D,Chinese,Thu Aug 30 16:00:51 2018,Mouse
2,0,4,0,116,9,8,0,-262,142,120,135,0,500,200,8000,"[(512, 384), (512, 384), (512, 384), (512, 384), (512, 384), (512, 384), (512, 384), (512, 384), (512, 384), (512, 384), (512, 384), (512, 384), (512, 384), (512, 384), (512, 389), (511, 399), (511, 420), (511, 433), (511, 451), (512, 475), (523, 524), (526, 548), (529, 561), (529, 576), (529, 608), (526, 623), (521, 638)]",87.97068357065682,"[1, 2, 8, 9, 7, 5, 6, 4, 3]","(0, 0.25)",ENG001D,ENG,D,Chinese,Thu Aug 30 16:00:51 2018,Mouse
2,0,4,0,117,9,9,1,282,142,140,136,0,500,200,8000,"[(512, 384), (512, 384), (512, 384), (512, 384), (512, 384), (512, 384), (512, 384), (512, 384), (512, 384), (512, 384), (512, 384), (512, 384), (512, 384), (512, 384), (513, 387), (511, 388), (509, 391), (505, 393), (493, 402), (485, 407), (478, 412), (455, 429), (439, 440), (423, 448), (404, 460), (380, 473), (336, 498), (317, 510), (299, 518)]",147.8256743764762,"[1, 2, 8, 9, 7, 5, 6, 4, 3]","(0, 0.25)",ENG001D,ENG,D,Chinese,Thu Aug 30 16:00:51 2018,Mouse
2,0,4,0,118,9,8,0,-522,442,80,136,0,500,200,8000,"[(512, 384), (512, 384), (512, 384), (512, 384), (512, 384), (512, 384), (512, 384), (512, 384), (512, 384), (512, 384), (512, 384), (512, 384), (512, 384), (512, 384), (512, 384), (512, 384), (512, 384), (512, 384), (512, 384), (512, 384), (512, 384), (512, 384), (512, 384), (512, 384), (512, 384), (512, 384), (512, 384), (512, 384), (512, 384), (512, 384), (512, 384), (512, 384), (512, 384), (512, 384), (512, 384), (512, 384), (512, 384), (512, 384), (512, 384), (512, 384), (512, 384), (512, 384), (512, 384), (512, 384), (512, 389), (507, 432), (507, 455), (504, 481), (498, 509), (480, 565), (470, 591), (459, 614), (450, 633)]",103.98208868300107,"[1, 2, 8, 9, 7, 5, 6, 4, 3]","(0, 0.25)",ENG001D,ENG,D,Chinese,Thu Aug 30 16:00:51 2018,Mouse
2,0,4,0,119,4,4,1,493,383,110,137,0,500,200,8000,"[(512, 384), (512, 384), (512, 384), (512, 384), (512, 384), (512, 384), (512, 384), (512, 384), (512, 384), (512, 384), (512, 384), (512, 384), (512, 384), (512, 384), (512, 384), (512, 384), (512, 384), (512, 384), (512, 384), (512, 384), (512, 384), (512, 384), (512, 384), (512, 384), (512, 384), (512, 384), (512, 384), (512, 384), (512, 384), (512, 384), (512, 384), (512, 384), (512, 384), (512, 384), (512, 384), (512, 384), (512, 384), (512, 384), (513, 383), (516, 378), (523, 363), (545, 327), (557, 312), (566, 298), (576, 284), (601, 248), (616, 223), (629, 199), (641, 177), (663, 141)]",301.85678389080823,"[1, 2, 8, 9, 7, 5, 6, 4, 3]","(0, 0.25)",ENG001D,ENG,D,Chinese,Thu Aug 30 16:00:51 2018,Mouse
2,0,4,0,120,3,3,1,342,162,180,137,0,500,200,8000,"[(512, 384), (512, 384), (512, 384), (512, 384), (512, 384), (512, 384), (512, 384), (512, 384), (512, 384), (512, 384), (512, 384), (512, 384), (512, 384), (512, 384), (512, 384), (512, 384), (512, 382), (517, 380), (519, 379), (521, 378), (532, 371), (538, 369), (546, 366), (555, 364), (572, 363), (579, 361), (591, 359), (602, 358), (631, 352), (648, 347), (673, 340), (696, 333), (732, 323), (751, 318), (764, 313)]",344.26502836632903,"[1, 2, 8, 9, 7, 5, 6, 4, 3]","(0, 0.25)",ENG001D,ENG,D,Chinese,Thu Aug 30 16:00:51 2018,Mouse
2,0,4,0,121,6,5,0,-891,731,160,136,0,500,200,8000,"[(512, 384), (512, 384), (512, 384), (512, 384), (512, 384), (512, 384), (512, 384), (512, 384), (512, 384), (512, 384), (512, 384), (512, 384), (512, 384), (512, 384), (512, 384), (512, 384), (512, 384), (512, 384), (512, 384), (512, 384), (512, 384), (512, 384), (512, 384), (512, 384), (512, 384), (512, 384), (512, 384), (512, 384), (512, 384), (512, 384), (512, 384), (512, 384), (512, 384), (512, 384), (512, 384), (512, 384), (512, 384), (512, 384), (512, 384), (512, 384), (512, 384), (512, 384), (512, 384), (512, 384), (512, 384), (512, 384), (512, 384), (512, 384), (512, 384), (512, 384), (512, 384), (512, 384), (512, 384), (512, 384), (512, 384), (512, 384), (512, 384), (512, 384), (512, 384), (512, 384), (512, 384), (512, 384), (512, 384), (512, 384), (512, 384), (512, 384), (512, 384), (512, 384), (512, 384), (512, 384), (512, 384), (512, 384), (512, 384), (511, 379), (507, 369), (499, 352), (494, 341), (489, 329), (483, 317), (464, 285), (456, 273), (447, 261), (440, 251), (421, 235), (410, 226), (401, 219), (390, 211), (368, 198), (359, 191), (351, 186)]",230.88435978826092,"[1, 2, 8, 9, 7, 5, 6, 4, 3]","(0, 0.25)",ENG001D,ENG,D,Chinese,Thu Aug 30 16:00:51 2018,Mouse
2,0,4,0,122,1,1,1,498,228,270,137,0,500,200,8000,"[(512, 384), (512, 384), (512, 384), (512, 384), (512, 384), (512, 384), (512, 384), (512, 384), (512, 384), (512, 384), (512, 384), (512, 384), (512, 384), (512, 384), (512, 384), (512, 384), (512, 384), (512, 384), (512, 384), (512, 384), (512, 384), (512, 384), (515, 385), (517, 386), (520, 386), (537, 396), (547, 402), (556, 407), (567, 413), (588, 423), (600, 429), (610, 433), (620, 437), (636, 444), (640, 446), (646, 449), (652, 450), (661, 451), (666, 453), (669, 454), (673, 455), (681, 456), (686, 458), (693, 459), (703, 460), (719, 462), (727, 465), (734, 466), (742, 468), (760, 470)]",19.12522602078709,"[1, 2, 8, 9, 7, 5, 6, 4, 3]","(0, 0.25)",ENG001D,ENG,D,Chinese,Thu Aug 30 16:00:51 2018,Mouse
2,0,4,0,123,1,1,1,352,152,200,137,0,500,200,8000,"[(512, 384), (512, 384), (512, 384), (512, 384), (512, 384), (512, 384), (512, 384), (512, 384), (512, 384), (512, 384), (512, 384), (512, 384), (512, 384), (512, 384), (512, 384), (513, 384), (515, 386), (521, 389), (529, 392), (548, 403), (564, 410), (585, 420), (599, 424), (631, 435), (642, 440), (653, 442), (663, 445), (679, 452), (686, 456), (696, 458), (701, 460), (710, 463), (716, 466), (720, 467), (729, 471), (745, 476)]",21.54657448990162,"[1, 2, 8, 9, 7, 5, 6, 4, 3]","(0, 0.25)",ENG001D,ENG,D,Chinese,Thu Aug 30 16:00:51 2018,Mouse
2,0,4,0,124,6,3,0,-382,242,140,136,0,500,200,8000,"[(512, 384), (512, 384), (512, 384), (512, 384), (512, 384), (512, 384), (512, 384), (512, 384), (512, 384), (512, 384), (512, 384), (512, 384), (512, 384), (512, 384), (512, 384), (512, 384), (512, 384), (512, 384), (512, 384), (512, 384), (512, 384), (512, 384), (512, 384), (512, 384), (515, 383), (523, 380), (534, 378), (547, 377), (573, 372), (587, 371), (604, 369), (622, 368), (657, 365), (671, 362), (686, 360), (705, 356), (734, 353), (748, 351), (761, 348)]",351.77327753589185,"[1, 2, 8, 9, 7, 5, 6, 4, 3]","(0, 0.25)",ENG001D,ENG,D,Chinese,Thu Aug 30 16:00:51 2018,Mouse
2,0,4,0,125,1,1,1,363,223,140,137,0,500,200,8000,"[(512, 384), (512, 384), (512, 384), (512, 384), (512, 384), (512, 384), (512, 384), (512, 384), (512, 384), (512, 384), (512, 384), (512, 384), (512, 384), (512, 384), (512, 384), (512, 384), (512, 384), (512, 384), (512, 384), (512, 384), (512, 384), (512, 384), (530, 385), (547, 391), (567, 400), (589, 411), (617, 425), (634, 431), (652, 439), (664, 445), (688, 455), (700, 460), (708, 463), (717, 467), (733, 474), (742, 478), (750, 481)]",22.173992396107938,"[1, 2, 8, 9, 7, 5, 6, 4, 3]","(0, 0.25)",ENG001D,ENG,D,Chinese,Thu Aug 30 16:00:51 2018,Mouse
2,0,4,0,126,7,7,1,292,222,70,137,0,500,200,8000,"[(512, 384), (512, 384), (512, 384), (512, 384), (512, 384), (512, 384), (512, 384), (512, 384), (512, 384), (512, 384), (512, 384), (512, 384), (512, 384), (512, 384), (512, 384), (512, 384), (512, 384), (512, 384), (512, 384), (512, 384), (512, 384), (512, 384), (491, 384), (473, 384), (453, 384), (428, 384), (353, 375), (318, 370), (280, 362), (248, 359)]",185.4096049444734,"[1, 2, 8, 9, 7, 5, 6, 4, 3]","(0, 0.25)",ENG001D,ENG,D,Chinese,Thu Aug 30 16:00:51 2018,Mouse
2,0,4,0,127,2,7,0,-142,52,90,136,0,500,200,8000,"[(512, 384), (512, 384), (512, 384), (512, 384), (512, 384), (510, 386), (501, 387), (493, 387), (483, 387), (452, 387), (421, 387), (385, 387), (357, 387), (290, 387), (257, 387)]",179.32596310201552,"[1, 2, 8, 9, 7, 5, 6, 4, 3]","(0, 0.25)",ENG001D,ENG,D,Chinese,Thu Aug 30 16:00:51 2018,Mouse
2,0,4,0,128,5,5,1,481,411,70,137,0,500,200,8000,"[(512, 384), (512, 384), (512, 384), (512, 384), (512, 384), (512, 384), (512, 384), (512, 384), (512, 384), (512, 384), (512, 384), (512, 384), (512, 384), (512, 384), (512, 384), (512, 384), (512, 384), (512, 384), (512, 384), (512, 384), (512, 384), (512, 384), (512, 384), (512, 384), (512, 384), (512, 384), (512, 384), (512, 384), (512, 384), (512, 384), (512, 384), (512, 384), (512, 384), (512, 384), (512, 384), (512, 384), (512, 384), (512, 384), (512, 384), (512, 384), (512, 384), (512, 379), (502, 367), (488, 347), (454, 309), (431, 287), (397, 262), (366, 238), (294, 191)]",221.5191440360394,"[1, 2, 8, 9, 7, 5, 6, 4, 3]","(0, 0.25)",ENG001D,ENG,D,Chinese,Thu Aug 30 16:00:51 2018,Mouse
