NativeLangNumber,LanuageNumber,SessionNumber,Block,TrialNum,ConditionNumber,Response,Accuracy,RT,MovementOnsetTime,TimeInMotion,SignalContrast,SignalContrastNumber,StimDisplayTime,MaskTime,MaxResponseTime,MousePositionXY,MouseAngle,WheelOrder,NoiseMuSigma,ParticipantID,LanuageTested,SessionTested,NativeLanuage,Date,ResponseDevice
1,0,1,0,1,4,4,1,833,463,370,153,0,500,200,8000,"[(960, 540), (960, 540), (960, 540), (960, 540), (960, 540), (960, 540), (960, 540), (960, 540), (960, 540), (960, 540), (960, 540), (960, 540), (960, 540), (960, 540), (960, 540), (960, 540), (960, 540), (960, 540), (960, 540), (960, 540), (960, 540), (960, 540), (960, 540), (960, 540), (960, 540), (960, 540), (960, 540), (960, 540), (960, 540), (960, 540), (960, 540), (960, 540), (960, 540), (960, 540), (960, 540), (960, 540), (960, 540), (960, 540), (960, 540), (960, 540), (960, 540), (960, 540), (960, 540), (960, 540), (960, 540), (960, 540), (960, 541), (960, 544), (958, 550), (958, 554), (958, 557), (958, 562), (956, 582), (955, 595), (953, 608), (952, 623), (952, 654), (952, 677), (952, 693), (952, 710), (952, 733), (952, 746), (952, 754), (953, 764), (957, 779), (957, 785), (957, 789), (957, 793), (957, 810), (957, 819), (957, 829), (957, 837), (957, 860), (957, 870), (957, 878), (957, 884), (955, 894), (952, 899), (950, 902), (947, 907), (940, 920), (937, 928), (935, 936), (932, 943)]",93.9744610861578,"[3, 2, 4, 7, 6, 9, 1, 8, 5]","(0, 0.25)",ENG007A,ENG,A,English,Tue Aug 21 12:57:12 2018,Mouse
1,0,1,0,2,7,7,1,520,350,170,153,0,500,200,8000,"[(960, 540), (960, 540), (960, 540), (960, 540), (960, 540), (960, 540), (960, 540), (960, 540), (960, 540), (960, 540), (960, 540), (960, 540), (960, 540), (960, 540), (960, 540), (960, 540), (960, 540), (960, 540), (960, 540), (960, 540), (960, 540), (960, 540), (960, 540), (960, 540), (960, 540), (960, 540), (960, 540), (960, 540), (960, 540), (960, 540), (960, 540), (960, 540), (960, 540), (960, 540), (960, 539), (950, 542), (940, 546), (927, 550), (911, 556), (874, 575), (847, 590), (821, 600), (797, 611), (743, 639), (726, 650), (716, 660), (708, 670), (691, 702), (677, 721), (666, 738), (656, 753), (633, 776)]",144.1815437546906,"[3, 2, 4, 7, 6, 9, 1, 8, 5]","(0, 0.25)",ENG007A,ENG,A,English,Tue Aug 21 12:57:12 2018,Mouse
1,0,1,0,3,9,9,1,969,159,810,152,0,500,200,8000,"[(960, 540), (960, 540), (960, 540), (960, 540), (960, 540), (960, 540), (960, 540), (960, 540), (960, 540), (960, 540), (960, 540), (960, 540), (960, 540), (960, 540), (960, 540), (961, 539), (961, 539), (961, 539), (961, 538), (961, 538), (961, 538), (961, 538), (961, 538), (961, 538), (961, 538), (961, 538), (961, 538), (961, 538), (961, 538), (961, 538), (961, 538), (961, 538), (961, 538), (961, 538), (961, 538), (961, 538), (961, 538), (961, 538), (961, 538), (961, 538), (961, 538), (961, 538), (961, 538), (961, 538), (961, 538), (961, 538), (961, 538), (961, 538), (961, 538), (961, 538), (961, 538), (961, 538), (961, 538), (961, 538), (961, 538), (961, 538), (961, 538), (961, 538), (961, 538), (961, 538), (961, 538), (961, 538), (961, 538), (961, 538), (961, 538), (961, 538), (961, 538), (961, 538), (961, 538), (961, 538), (962, 537), (963, 536), (963, 536), (963, 536), (963, 534), (963, 534), (963, 532), (963, 531), (963, 529), (963, 528), (963, 526), (963, 524), (962, 513), (960, 504), (953, 486), (947, 473), (935, 446), (929, 431), (918, 414), (902, 392), (861, 333), (840, 305), (819, 276), (802, 251), (775, 214), (760, 194), (745, 177)]",239.3623134896353,"[3, 2, 4, 7, 6, 9, 1, 8, 5]","(0, 0.25)",ENG007A,ENG,A,English,Tue Aug 21 12:57:12 2018,Mouse
1,0,1,0,4,5,5,1,948,488,460,151,0,500,200,8000,"[(960, 540), (960, 540), (960, 540), (960, 540), (960, 540), (960, 540), (960, 540), (960, 540), (960, 540), (960, 540), (960, 540), (960, 540), (960, 540), (960, 540), (960, 540), (960, 540), (960, 540), (960, 540), (960, 540), (960, 540), (960, 540), (960, 540), (960, 540), (960, 540), (960, 540), (960, 540), (960, 540), (960, 540), (960, 540), (960, 540), (960, 540), (960, 540), (960, 540), (960, 540), (960, 540), (960, 540), (960, 540), (960, 540), (960, 540), (960, 540), (960, 540), (960, 540), (960, 540), (960, 540), (960, 540), (960, 540), (960, 540), (960, 540), (961, 540), (961, 540), (962, 540), (963, 540), (963, 540), (964, 540), (964, 540), (965, 540), (965, 540), (965, 540), (966, 540), (966, 540), (966, 540), (967, 540), (969, 540), (969, 539), (971, 535), (974, 533), (977, 529), (981, 525), (996, 517), (1007, 511), (1022, 505), (1038, 501), (1072, 491), (1097, 485), (1112, 484), (1128, 480), (1154, 472), (1172, 467), (1186, 463), (1204, 458), (1232, 451), (1247, 445), (1267, 438), (1279, 432), (1296, 428), (1303, 424), (1309, 422), (1315, 417), (1321, 413), (1324, 412), (1326, 411), (1329, 409), (1333, 406), (1335, 405), (1339, 401)]",339.8592546941336,"[3, 2, 4, 7, 6, 9, 1, 8, 5]","(0, 0.25)",ENG007A,ENG,A,English,Tue Aug 21 12:57:12 2018,Mouse
1,0,1,0,5,8,8,1,1048,688,360,150,0,500,200,8000,"[(960, 540), (960, 540), (960, 540), (960, 540), (960, 540), (960, 540), (960, 540), (960, 540), (960, 540), (960, 540), (960, 540), (960, 540), (960, 540), (960, 540), (960, 540), (960, 540), (960, 540), (960, 540), (960, 540), (960, 540), (960, 540), (960, 540), (960, 540), (960, 540), (960, 540), (960, 540), (960, 540), (960, 540), (960, 540), (960, 540), (960, 540), (960, 540), (960, 540), (960, 540), (960, 540), (960, 540), (960, 540), (960, 540), (960, 540), (960, 540), (960, 540), (960, 540), (960, 540), (960, 540), (960, 540), (960, 540), (960, 540), (960, 540), (960, 540), (960, 540), (960, 540), (960, 540), (960, 540), (960, 540), (960, 540), (960, 540), (960, 540), (960, 540), (960, 540), (960, 540), (960, 540), (960, 540), (960, 540), (960, 540), (960, 540), (960, 540), (960, 540), (960, 540), (959, 540), (959, 539), (959, 539), (959, 538), (959, 535), (961, 532), (963, 530), (966, 527), (975, 516), (980, 510), (988, 504), (997, 497), (1013, 483), (1023, 475), (1032, 467), (1043, 458), (1062, 435), (1069, 424), (1077, 413), (1089, 394), (1097, 386), (1105, 378), (1111, 371), (1117, 365), (1132, 343), (1138, 332), (1143, 323), (1149, 312), (1156, 291), (1159, 281), (1162, 272), (1170, 255), (1173, 248), (1177, 239), (1180, 232), (1184, 223), (1188, 209)]",304.5599159078413,"[3, 2, 4, 7, 6, 9, 1, 8, 5]","(0, 0.25)",ENG007A,ENG,A,English,Tue Aug 21 12:57:12 2018,Mouse
1,0,1,0,6,8,8,1,469,19,450,149,0,500,200,8000,"[(964, 533), (968, 525), (969, 521), (970, 517), (972, 515), (972, 513), (972, 513), (972, 513), (972, 513), (972, 513), (972, 513), (972, 513), (972, 513), (972, 513), (972, 513), (972, 513), (972, 513), (972, 513), (972, 512), (972, 511), (972, 510), (976, 504), (983, 491), (988, 481), (997, 466), (1008, 446), (1040, 399), (1056, 377), (1073, 358), (1091, 335), (1115, 306), (1127, 291), (1136, 280), (1143, 273), (1152, 260), (1155, 257), (1156, 254), (1158, 251), (1161, 245), (1161, 242), (1164, 238), (1165, 234), (1169, 220), (1171, 216), (1173, 209), (1174, 205), (1178, 197)]",302.4387546006853,"[3, 2, 4, 7, 6, 9, 1, 8, 5]","(0, 0.25)",ENG007A,ENG,A,English,Tue Aug 21 12:57:12 2018,Mouse
1,0,1,0,7,6,6,1,1239,468,771,148,0,500,200,8000,"[(960, 540), (960, 540), (960, 540), (960, 540), (960, 540), (960, 540), (960, 540), (960, 540), (960, 540), (960, 540), (960, 540), (960, 540), (960, 540), (960, 540), (960, 540), (960, 540), (960, 540), (960, 540), (960, 540), (960, 540), (960, 540), (960, 540), (960, 540), (960, 540), (960, 540), (960, 540), (960, 540), (960, 540), (960, 540), (960, 540), (960, 540), (960, 540), (960, 540), (960, 540), (960, 540), (960, 540), (960, 540), (960, 540), (960, 540), (960, 540), (960, 540), (960, 540), (960, 540), (960, 540), (960, 540), (960, 540), (960, 538), (960, 538), (960, 537), (960, 537), (960, 537), (960, 537), (960, 537), (961, 537), (962, 535), (964, 533), (964, 533), (966, 531), (967, 530), (967, 530), (967, 530), (967, 530), (967, 530), (967, 530), (967, 530), (967, 530), (967, 530), (967, 530), (967, 530), (967, 530), (967, 530), (967, 530), (968, 530), (968, 530), (968, 531), (968, 531), (968, 532), (968, 532), (968, 532), (968, 532), (968, 532), (968, 532), (968, 532), (968, 532), (968, 532), (968, 532), (966, 533), (965, 533), (963, 533), (961, 533), (958, 533), (957, 533), (956, 533), (956, 533), (954, 533), (954, 533), (954, 533), (953, 533), (947, 533), (943, 533), (937, 533), (931, 533), (922, 533), (919, 533), (917, 532), (917, 532), (917, 532), (917, 532), (917, 532), (915, 532), (908, 532), (899, 532), (888, 532), (876, 532), (847, 532), (834, 532), (819, 532), (807, 532), (773, 532), (745, 532), (704, 532), (665, 532), (568, 532), (512, 532)]",181.02303018866783,"[3, 2, 4, 7, 6, 9, 1, 8, 5]","(0, 0.25)",ENG007A,ENG,A,English,Tue Aug 21 12:57:12 2018,Mouse
1,0,1,0,8,2,2,1,989,579,410,147,0,500,200,8000,"[(960, 540), (960, 540), (960, 540), (960, 540), (960, 540), (960, 540), (960, 540), (960, 540), (960, 540), (960, 540), (960, 540), (960, 540), (960, 540), (960, 540), (960, 540), (960, 540), (960, 540), (960, 540), (960, 540), (960, 540), (960, 540), (960, 540), (960, 540), (960, 540), (960, 540), (960, 540), (960, 540), (960, 540), (960, 540), (960, 540), (960, 540), (960, 540), (960, 540), (960, 540), (960, 540), (960, 540), (960, 540), (960, 540), (960, 540), (960, 540), (960, 540), (960, 540), (960, 540), (960, 540), (960, 540), (960, 540), (960, 540), (960, 540), (960, 540), (960, 540), (960, 540), (960, 540), (960, 540), (960, 540), (960, 540), (960, 540), (960, 540), (960, 541), (960, 541), (960, 542), (960, 542), (959, 542), (959, 543), (959, 545), (959, 546), (959, 549), (959, 552), (959, 553), (959, 555), (959, 560), (959, 563), (959, 567), (959, 571), (959, 580), (959, 586), (959, 594), (959, 598), (959, 604), (959, 606), (959, 608), (961, 610), (961, 612), (962, 613), (964, 616), (965, 617), (972, 624), (977, 629), (982, 633), (989, 639), (1001, 648), (1006, 653), (1011, 657), (1014, 660), (1036, 680), (1059, 698), (1085, 722), (1128, 754), (1213, 828), (1255, 864)]",47.682332049892864,"[3, 2, 4, 7, 6, 9, 1, 8, 5]","(0, 0.25)",ENG007A,ENG,A,English,Tue Aug 21 12:57:12 2018,Mouse
1,0,1,0,9,2,2,1,480,200,280,146,0,500,200,8000,"[(960, 540), (960, 540), (960, 540), (960, 540), (960, 540), (960, 540), (960, 540), (960, 540), (960, 540), (960, 540), (960, 540), (960, 540), (960, 540), (960, 540), (960, 540), (960, 540), (960, 540), (960, 540), (960, 540), (961, 540), (962, 541), (968, 552), (971, 558), (975, 565), (978, 571), (986, 587), (990, 597), (996, 610), (1004, 629), (1019, 662), (1022, 674), (1027, 684), (1028, 689), (1033, 700), (1038, 710), (1042, 720), (1048, 734), (1055, 750), (1060, 762), (1066, 776), (1072, 786), (1077, 799), (1081, 807), (1082, 811), (1088, 823), (1111, 859), (1124, 879), (1143, 905)]",63.372193339240454,"[3, 2, 4, 7, 6, 9, 1, 8, 5]","(0, 0.25)",ENG007A,ENG,A,English,Tue Aug 21 12:57:12 2018,Mouse
1,0,1,0,10,4,4,1,529,369,160,145,0,500,200,8000,"[(960, 540), (960, 540), (960, 540), (960, 540), (960, 540), (960, 540), (960, 540), (960, 540), (960, 540), (960, 540), (960, 540), (960, 540), (960, 540), (960, 540), (960, 540), (960, 540), (960, 540), (960, 540), (960, 540), (960, 540), (960, 540), (960, 540), (960, 540), (960, 540), (960, 540), (960, 540), (960, 540), (960, 540), (960, 540), (960, 540), (960, 540), (960, 540), (960, 540), (960, 540), (960, 540), (960, 540), (958, 540), (957, 540), (955, 542), (953, 548), (948, 567), (944, 589), (933, 623), (927, 647), (917, 676), (911, 701), (907, 728), (901, 760), (901, 821), (898, 850), (892, 880), (885, 913), (864, 972)]",102.52880770915151,"[3, 2, 4, 7, 6, 9, 1, 8, 5]","(0, 0.25)",ENG007A,ENG,A,English,Tue Aug 21 12:57:12 2018,Mouse
1,0,1,0,11,5,5,1,890,420,470,144,0,500,200,8000,"[(960, 540), (960, 540), (960, 540), (960, 540), (960, 540), (960, 540), (960, 540), (960, 540), (960, 540), (960, 540), (960, 540), (960, 540), (960, 540), (960, 540), (960, 540), (960, 540), (960, 540), (960, 540), (960, 540), (960, 540), (960, 540), (960, 540), (960, 540), (960, 540), (960, 540), (960, 540), (960, 540), (960, 540), (960, 540), (960, 540), (960, 540), (960, 540), (960, 540), (960, 540), (960, 540), (960, 540), (960, 540), (960, 540), (960, 540), (960, 540), (960, 540), (960, 539), (960, 538), (960, 537), (960, 537), (960, 536), (960, 535), (960, 534), (960, 534), (960, 534), (960, 534), (960, 534), (960, 534), (960, 534), (960, 534), (960, 534), (960, 534), (960, 534), (960, 534), (960, 534), (960, 534), (960, 534), (960, 534), (960, 534), (960, 534), (960, 534), (960, 534), (960, 534), (960, 534), (960, 534), (960, 534), (960, 534), (960, 534), (960, 534), (962, 531), (962, 530), (966, 525), (972, 519), (991, 503), (1003, 496), (1018, 486), (1046, 471), (1099, 444), (1128, 432), (1164, 423), (1196, 416), (1277, 407), (1315, 400), (1338, 397)]",339.27802480840984,"[3, 2, 4, 7, 6, 9, 1, 8, 5]","(0, 0.25)",ENG007A,ENG,A,English,Tue Aug 21 12:57:12 2018,Mouse
1,0,1,0,12,8,8,1,929,339,590,143,0,500,200,8000,"[(960, 540), (960, 540), (960, 540), (960, 540), (960, 540), (960, 540), (960, 540), (960, 540), (960, 540), (960, 540), (960, 540), (960, 540), (960, 540), (960, 540), (960, 540), (960, 540), (960, 540), (960, 540), (960, 540), (960, 540), (960, 540), (960, 540), (960, 540), (960, 540), (960, 540), (960, 540), (960, 540), (960, 540), (960, 540), (960, 540), (960, 540), (960, 540), (960, 540), (959, 540), (959, 540), (959, 540), (959, 540), (959, 540), (959, 540), (959, 540), (959, 540), (959, 540), (959, 540), (959, 540), (959, 540), (959, 540), (959, 540), (959, 540), (959, 540), (959, 540), (959, 540), (959, 540), (959, 540), (959, 540), (959, 539), (957, 538), (957, 537), (957, 536), (957, 534), (957, 533), (957, 529), (956, 525), (954, 519), (952, 509), (946, 482), (940, 465), (938, 456), (935, 448), (934, 436), (934, 432), (934, 428), (934, 425), (934, 413), (935, 404), (937, 390), (942, 376), (956, 336), (965, 315), (976, 301), (982, 289), (1001, 268), (1010, 259), (1020, 253), (1027, 247), (1042, 234), (1051, 227), (1060, 219), (1070, 211), (1089, 194), (1098, 188), (1110, 181), (1116, 176), (1132, 163)]",294.52405667681984,"[3, 2, 4, 7, 6, 9, 1, 8, 5]","(0, 0.25)",ENG007A,ENG,A,English,Tue Aug 21 12:57:12 2018,Mouse
1,0,1,0,13,9,9,1,701,161,540,142,0,500,200,8000,"[(960, 540), (960, 540), (960, 540), (960, 540), (960, 540), (960, 540), (960, 540), (960, 540), (960, 540), (960, 540), (960, 540), (960, 540), (960, 540), (960, 540), (960, 540), (960, 540), (960, 541), (960, 541), (959, 541), (956, 541), (955, 541), (953, 541), (951, 541), (946, 541), (944, 542), (939, 544), (935, 545), (920, 552), (914, 555), (909, 558), (907, 560), (901, 563), (900, 565), (895, 568), (894, 570), (891, 574), (889, 577), (889, 577), (889, 579), (886, 581), (883, 583), (880, 585), (874, 585), (863, 585), (857, 585), (851, 582), (845, 580), (839, 576), (838, 574), (836, 573), (836, 573), (836, 573), (836, 571), (836, 571), (836, 571), (836, 567), (837, 562), (840, 552), (840, 540), (840, 510), (837, 492), (831, 475), (824, 453), (813, 416), (805, 398), (798, 383), (788, 364), (748, 310), (716, 278), (689, 249), (658, 217)]",226.92441421397714,"[3, 2, 4, 7, 6, 9, 1, 8, 5]","(0, 0.25)",ENG007A,ENG,A,English,Tue Aug 21 12:57:12 2018,Mouse
1,0,1,0,14,6,6,1,530,120,410,141,0,500,200,8000,"[(960, 540), (960, 540), (960, 540), (960, 540), (960, 540), (960, 540), (960, 540), (960, 540), (960, 540), (960, 540), (960, 540), (961, 540), (961, 540), (961, 540), (961, 540), (961, 540), (961, 540), (961, 540), (961, 540), (961, 540), (961, 540), (961, 540), (961, 540), (961, 540), (961, 540), (961, 540), (961, 540), (961, 540), (961, 540), (961, 540), (961, 540), (961, 540), (961, 540), (961, 540), (961, 540), (961, 540), (961, 540), (961, 540), (961, 540), (961, 540), (961, 540), (961, 540), (961, 540), (961, 540), (961, 540), (958, 540), (945, 540), (898, 540), (848, 540), (789, 540), (720, 540), (574, 540), (510, 540)]",180.0,"[3, 2, 4, 7, 6, 9, 1, 8, 5]","(0, 0.25)",ENG007A,ENG,A,English,Tue Aug 21 12:57:12 2018,Mouse
1,0,1,0,15,2,2,1,888,268,620,140,0,500,200,8000,"[(960, 540), (960, 540), (960, 540), (960, 540), (960, 540), (960, 540), (960, 540), (960, 540), (960, 540), (960, 540), (960, 540), (960, 540), (960, 540), (960, 540), (960, 540), (960, 540), (960, 540), (960, 540), (960, 540), (960, 540), (960, 540), (960, 540), (960, 540), (960, 540), (960, 540), (960, 540), (961, 539), (961, 539), (961, 539), (961, 539), (961, 539), (961, 539), (961, 539), (961, 539), (961, 539), (961, 539), (961, 539), (961, 539), (961, 539), (961, 539), (961, 539), (961, 539), (961, 539), (961, 539), (961, 539), (961, 539), (961, 539), (961, 539), (961, 539), (961, 539), (961, 539), (961, 539), (961, 539), (961, 539), (961, 539), (961, 539), (961, 539), (961, 539), (961, 539), (961, 539), (962, 540), (963, 542), (964, 544), (965, 546), (966, 548), (968, 553), (969, 556), (971, 559), (974, 564), (979, 573), (982, 581), (988, 597), (1002, 619), (1039, 690), (1063, 731), (1079, 753), (1091, 772), (1098, 790), (1101, 796), (1102, 800), (1103, 805), (1107, 814), (1109, 821), (1113, 829), (1118, 841), (1128, 864), (1134, 878), (1137, 891), (1141, 899)]",63.24375115828723,"[3, 2, 4, 7, 6, 9, 1, 8, 5]","(0, 0.25)",ENG007A,ENG,A,English,Tue Aug 21 12:57:12 2018,Mouse
1,0,1,0,16,7,7,1,570,20,550,139,0,500,200,8000,"[(960, 540), (960, 539), (960, 539), (960, 539), (960, 539), (960, 539), (960, 539), (960, 539), (960, 539), (960, 539), (960, 539), (960, 539), (960, 539), (960, 539), (960, 539), (960, 539), (960, 539), (960, 539), (960, 539), (960, 539), (960, 539), (960, 539), (960, 539), (960, 539), (960, 539), (960, 539), (960, 539), (960, 539), (960, 539), (960, 539), (960, 539), (960, 539), (960, 539), (960, 539), (960, 539), (960, 539), (960, 539), (960, 539), (960, 539), (960, 539), (960, 539), (958, 539), (951, 541), (938, 550), (930, 555), (923, 560), (915, 566), (899, 578), (890, 583), (880, 591), (866, 601), (816, 636), (787, 658), (753, 688), (716, 715), (650, 756), (628, 770)]",145.28690228535237,"[3, 2, 4, 7, 6, 9, 1, 8, 5]","(0, 0.25)",ENG007A,ENG,A,English,Tue Aug 21 12:57:12 2018,Mouse
1,0,1,0,17,5,5,1,1040,70,970,138,0,500,200,8000,"[(960, 540), (960, 540), (960, 540), (960, 540), (960, 540), (960, 540), (961, 540), (961, 540), (963, 540), (963, 540), (963, 540), (963, 540), (963, 540), (965, 540), (965, 540), (965, 540), (965, 541), (965, 541), (966, 541), (966, 541), (967, 542), (967, 542), (968, 543), (968, 544), (968, 546), (968, 550), (968, 551), (968, 553), (968, 555), (968, 557), (968, 557), (968, 557), (968, 557), (968, 559), (968, 559), (968, 559), (967, 562), (967, 563), (967, 563), (967, 563), (966, 564), (966, 564), (965, 564), (965, 564), (964, 564), (960, 564), (958, 564), (955, 562), (953, 561), (951, 559), (950, 559), (950, 558), (950, 558), (949, 558), (949, 558), (949, 557), (949, 557), (948, 554), (948, 553), (948, 550), (948, 549), (948, 547), (948, 547), (948, 545), (948, 544), (951, 541), (954, 540), (957, 539), (968, 535), (972, 534), (978, 532), (983, 530), (986, 529), (988, 529), (988, 529), (988, 529), (988, 529), (988, 529), (989, 529), (989, 529), (991, 529), (992, 529), (992, 529), (992, 529), (992, 529), (992, 529), (992, 529), (992, 529), (992, 529), (997, 528), (1001, 526), (1011, 525), (1021, 524), (1041, 521), (1054, 520), (1067, 517), (1083, 514), (1112, 508), (1138, 500), (1163, 492), (1201, 483), (1288, 452), (1334, 432), (1374, 415)]",343.19923511120663,"[3, 2, 4, 7, 6, 9, 1, 8, 5]","(0, 0.25)",ENG007A,ENG,A,English,Tue Aug 21 12:57:12 2018,Mouse
1,0,1,0,18,3,3,1,639,19,620,137,0,500,200,8000,"[(963, 541), (968, 541), (969, 542), (972, 543), (976, 544), (977, 545), (977, 545), (977, 546), (978, 546), (979, 547), (980, 548), (982, 549), (986, 549), (988, 551), (990, 552), (992, 552), (993, 553), (993, 554), (993, 554), (993, 555), (996, 560), (998, 563), (1004, 572), (1009, 580), (1021, 601), (1027, 614), (1032, 625), (1034, 635), (1035, 641), (1036, 643), (1036, 645), (1036, 645), (1036, 647), (1036, 647), (1036, 647), (1036, 647), (1037, 649), (1037, 649), (1037, 649), (1037, 649), (1037, 650), (1036, 652), (1035, 652), (1034, 652), (1034, 652), (1034, 652), (1034, 652), (1034, 652), (1034, 652), (1034, 651), (1037, 649), (1041, 647), (1062, 638), (1076, 635), (1094, 632), (1108, 631), (1151, 626), (1179, 626), (1209, 626), (1243, 626), (1296, 626), (1317, 628), (1332, 629), (1350, 633)]",13.412357641868418,"[3, 2, 4, 7, 6, 9, 1, 8, 5]","(0, 0.25)",ENG007A,ENG,A,English,Tue Aug 21 12:57:12 2018,Mouse
1,0,1,0,19,7,7,1,381,31,350,136,0,500,200,8000,"[(960, 540), (960, 540), (960, 540), (960, 541), (957, 545), (957, 548), (957, 551), (956, 553), (956, 556), (956, 558), (955, 559), (955, 560), (954, 563), (953, 565), (952, 568), (950, 571), (947, 575), (945, 577), (945, 577), (944, 579), (943, 580), (942, 580), (942, 581), (940, 584), (933, 595), (926, 606), (917, 618), (901, 634), (866, 664), (846, 677), (833, 684), (824, 690), (809, 698), (799, 704), (790, 709), (775, 720), (724, 757), (688, 780), (654, 806)]",139.00018576051312,"[3, 2, 4, 7, 6, 9, 1, 8, 5]","(0, 0.25)",ENG007A,ENG,A,English,Tue Aug 21 12:57:12 2018,Mouse
1,0,1,0,20,2,2,1,419,109,310,135,0,500,200,8000,"[(960, 540), (960, 540), (960, 540), (960, 540), (960, 540), (960, 540), (960, 540), (960, 540), (960, 540), (960, 540), (963, 540), (966, 542), (972, 546), (972, 547), (974, 547), (974, 547), (975, 548), (975, 548), (975, 548), (975, 548), (975, 550), (976, 552), (976, 552), (978, 554), (982, 561), (986, 567), (990, 575), (995, 585), (1008, 609), (1015, 620), (1021, 632), (1027, 642), (1042, 668), (1054, 690), (1061, 703), (1072, 724), (1094, 762), (1103, 775), (1124, 800), (1144, 824), (1177, 864), (1191, 880)]",55.80735080729919,"[3, 2, 4, 7, 6, 9, 1, 8, 5]","(0, 0.25)",ENG007A,ENG,A,English,Tue Aug 21 12:57:12 2018,Mouse
1,0,1,0,21,7,7,1,459,209,250,134,0,500,200,8000,"[(960, 540), (960, 540), (960, 540), (960, 540), (960, 540), (960, 540), (960, 540), (960, 540), (960, 540), (960, 540), (960, 540), (960, 540), (960, 540), (960, 540), (960, 540), (960, 540), (960, 540), (960, 540), (960, 540), (960, 540), (958, 542), (953, 549), (951, 552), (949, 554), (945, 557), (941, 562), (940, 564), (940, 564), (938, 566), (931, 575), (926, 581), (922, 585), (914, 590), (883, 611), (848, 628), (813, 644), (779, 659), (731, 681), (715, 690), (706, 696), (696, 702), (681, 715), (672, 724), (664, 732), (654, 743), (616, 768)]",146.46395301569257,"[3, 2, 4, 7, 6, 9, 1, 8, 5]","(0, 0.25)",ENG007A,ENG,A,English,Tue Aug 21 12:57:12 2018,Mouse
1,0,1,0,22,7,7,1,329,19,310,133,0,500,200,8000,"[(954, 546), (946, 552), (934, 563), (926, 571), (921, 577), (917, 585), (907, 600), (902, 608), (897, 621), (888, 634), (876, 655), (871, 661), (868, 667), (865, 669), (861, 675), (859, 678), (856, 680), (852, 685), (843, 695), (837, 699), (831, 705), (823, 712), (810, 725), (804, 730), (794, 735), (784, 739), (753, 743), (734, 748), (713, 750), (693, 752), (653, 759), (641, 761), (627, 766)]",145.8360980979339,"[3, 2, 4, 7, 6, 9, 1, 8, 5]","(0, 0.25)",ENG007A,ENG,A,English,Tue Aug 21 12:57:12 2018,Mouse
1,0,1,0,23,8,7,0,-431,231,200,132,0,500,200,8000,"[(960, 540), (960, 540), (960, 540), (960, 540), (960, 540), (960, 540), (960, 540), (960, 540), (960, 540), (960, 540), (960, 540), (960, 540), (960, 540), (960, 540), (960, 540), (960, 540), (960, 540), (960, 540), (960, 540), (960, 540), (960, 540), (960, 540), (960, 540), (960, 539), (956, 540), (942, 546), (936, 549), (930, 553), (924, 559), (908, 567), (898, 575), (889, 583), (877, 597), (849, 634), (832, 659), (820, 681), (805, 706), (769, 752), (753, 768), (738, 780), (724, 790), (701, 811), (690, 820), (680, 826)]",134.3926469951905,"[3, 2, 4, 7, 6, 9, 1, 8, 5]","(0, 0.25)",ENG007A,ENG,A,English,Tue Aug 21 12:57:12 2018,Mouse
1,0,1,0,24,7,7,1,449,249,200,133,0,500,200,8000,"[(960, 540), (960, 540), (960, 540), (960, 540), (960, 540), (960, 540), (960, 540), (960, 540), (960, 540), (960, 540), (960, 540), (960, 540), (960, 540), (960, 540), (960, 540), (960, 540), (960, 540), (960, 540), (960, 540), (960, 540), (960, 540), (960, 540), (960, 540), (960, 540), (961, 540), (960, 541), (958, 541), (954, 543), (941, 545), (933, 546), (923, 548), (912, 551), (888, 557), (878, 562), (865, 569), (854, 576), (826, 597), (814, 605), (798, 617), (779, 631), (736, 663), (700, 687), (666, 712), (633, 734), (578, 764)]",149.61317604705323,"[3, 2, 4, 7, 6, 9, 1, 8, 5]","(0, 0.25)",ENG007A,ENG,A,English,Tue Aug 21 12:57:12 2018,Mouse
1,0,1,0,25,3,3,1,469,19,450,133,0,500,200,8000,"[(963, 540), (964, 540), (966, 540), (968, 540), (969, 540), (971, 540), (976, 543), (978, 544), (982, 546), (984, 548), (987, 551), (988, 553), (990, 554), (991, 556), (995, 559), (997, 562), (1000, 563), (1004, 566), (1007, 568), (1010, 571), (1012, 573), (1014, 576), (1016, 581), (1020, 584), (1023, 588), (1029, 592), (1044, 599), (1051, 604), (1058, 607), (1064, 609), (1070, 609), (1073, 609), (1076, 609), (1077, 609), (1085, 609), (1092, 609), (1099, 609), (1107, 609), (1128, 609), (1141, 609), (1152, 609), (1164, 609), (1199, 612), (1220, 613), (1246, 617), (1278, 622), (1354, 632)]",13.143216109191787,"[3, 2, 4, 7, 6, 9, 1, 8, 5]","(0, 0.25)",ENG007A,ENG,A,English,Tue Aug 21 12:57:12 2018,Mouse
1,0,1,0,26,5,2,0,-1351,251,1100,132,0,500,200,8000,"[(960, 540), (960, 540), (960, 540), (960, 540), (960, 540), (960, 540), (960, 540), (960, 540), (960, 540), (960, 540), (960, 540), (960, 540), (960, 540), (960, 540), (960, 540), (960, 540), (960, 540), (960, 540), (960, 540), (960, 540), (960, 540), (960, 540), (960, 540), (960, 540), (960, 540), (960, 539), (960, 539), (960, 539), (960, 539), (960, 539), (961, 538), (961, 538), (961, 538), (961, 538), (961, 538), (962, 538), (962, 537), (962, 537), (963, 537), (963, 537), (963, 537), (963, 537), (963, 537), (963, 537), (963, 537), (963, 537), (964, 537), (966, 535), (966, 535), (967, 534), (968, 534), (968, 534), (968, 534), (968, 534), (968, 534), (968, 534), (968, 534), (968, 534), (969, 534), (969, 534), (969, 534), (969, 534), (969, 534), (969, 534), (969, 534), (969, 534), (971, 534), (972, 535), (973, 535), (974, 535), (976, 536), (982, 538), (986, 539), (991, 541), (995, 543), (1008, 544), (1015, 545), (1023, 546), (1032, 548), (1054, 550), (1065, 554), (1079, 557), (1090, 560), (1118, 567), (1131, 569), (1142, 572), (1150, 574), (1157, 578), (1160, 578), (1160, 578), (1162, 579), (1163, 580), (1164, 581), (1166, 581), (1168, 582), (1170, 583), (1170, 583), (1170, 583), (1171, 584), (1171, 584), (1171, 585), (1171, 585), (1172, 585), (1172, 585), (1172, 585), (1172, 585), (1172, 585), (1172, 585), (1172, 585), (1172, 585), (1172, 585), (1172, 585), (1172, 585), (1172, 585), (1172, 585), (1172, 585), (1172, 585), (1172, 585), (1172, 586), (1172, 590), (1172, 597), (1172, 605), (1172, 615), (1172, 636), (1173, 649), (1174, 660), (1175, 672), (1181, 694), (1183, 714), (1186, 737), (1186, 757), (1186, 794), (1186, 810), (1186, 830), (1186, 850), (1186, 884)]",56.6960167887651,"[3, 2, 4, 7, 6, 9, 1, 8, 5]","(0, 0.25)",ENG007A,ENG,A,English,Tue Aug 21 12:57:12 2018,Mouse
1,0,1,0,27,9,7,0,-370,30,340,133,0,500,200,8000,"[(960, 540), (960, 540), (960, 539), (960, 539), (961, 539), (961, 539), (961, 539), (961, 539), (961, 539), (961, 539), (961, 539), (961, 539), (961, 539), (961, 539), (961, 539), (961, 539), (961, 539), (961, 539), (961, 539), (958, 539), (953, 539), (942, 539), (918, 544), (904, 548), (890, 551), (875, 559), (852, 569), (842, 576), (832, 585), (824, 599), (802, 644), (789, 668), (773, 705), (752, 731), (702, 784), (682, 801), (653, 825)]",137.12825568433044,"[3, 2, 4, 7, 6, 9, 1, 8, 5]","(0, 0.25)",ENG007A,ENG,A,English,Tue Aug 21 12:57:12 2018,Mouse
1,0,1,0,28,1,2,0,-1820,30,1790,134,0,500,200,8000,"[(961, 539), (961, 539), (962, 539), (962, 539), (962, 539), (962, 539), (962, 539), (962, 539), (962, 539), (962, 539), (962, 539), (962, 539), (962, 539), (962, 539), (962, 539), (962, 539), (962, 539), (963, 538), (963, 538), (965, 537), (968, 536), (968, 536), (971, 535), (973, 535), (977, 533), (977, 533), (979, 533), (980, 533), (980, 532), (982, 532), (983, 531), (984, 531), (987, 530), (990, 529), (990, 529), (992, 529), (994, 528), (995, 528), (996, 528), (997, 528), (999, 528), (999, 528), (1000, 527), (1002, 527), (1002, 527), (1002, 527), (1002, 527), (1002, 527), (1003, 527), (1004, 527), (1004, 527), (1005, 527), (1007, 526), (1007, 526), (1008, 526), (1009, 526), (1009, 526), (1009, 525), (1009, 525), (1009, 525), (1009, 525), (1009, 525), (1009, 525), (1010, 525), (1011, 525), (1012, 525), (1012, 525), (1012, 525), (1013, 524), (1013, 524), (1013, 524), (1013, 524), (1013, 524), (1013, 524), (1013, 524), (1013, 524), (1013, 524), (1013, 524), (1013, 524), (1013, 524), (1013, 524), (1013, 524), (1013, 524), (1013, 524), (1013, 524), (1013, 524), (1013, 524), (1013, 524), (1013, 524), (1013, 524), (1013, 524), (1013, 524), (1009, 524), (1006, 524), (1003, 524), (1000, 524), (996, 524), (995, 524), (995, 524), (995, 524), (994, 524), (993, 524), (992, 525), (990, 525), (984, 526), (981, 526), (979, 527), (979, 527), (979, 527), (979, 527), (979, 527), (979, 527), (979, 527), (979, 527), (979, 527), (979, 527), (986, 529), (991, 531), (997, 534), (1005, 537), (1024, 549), (1033, 555), (1046, 563), (1058, 573), (1075, 589), (1082, 597), (1086, 606), (1093, 619), (1102, 646), (1105, 660), (1108, 676), (1110, 688), (1110, 706), (1110, 711), (1110, 717), (1114, 724), (1122, 740), (1131, 754), (1134, 766), (1140, 779), (1144, 799), (1144, 805), (1144, 814), (1144, 819), (1144, 833), (1144, 839), (1144, 845), (1144, 854), (1145, 859), (1145, 862), (1146, 863), (1146, 865), (1147, 865), (1147, 865), (1147, 865), (1147, 865), (1147, 865), (1147, 865), (1147, 866), (1147, 866), (1146, 865), (1145, 863), (1145, 861), (1144, 859), (1144, 857), (1144, 855), (1143, 853), (1143, 852), (1143, 849), (1143, 848), (1143, 848), (1143, 847), (1143, 847), (1143, 847), (1143, 847), (1143, 847), (1145, 848), (1150, 853), (1153, 858), (1155, 862), (1166, 872), (1173, 879)]",57.85809017299819,"[3, 2, 4, 7, 6, 9, 1, 8, 5]","(0, 0.25)",ENG007A,ENG,A,English,Tue Aug 21 12:57:12 2018,Mouse
1,0,1,0,29,5,5,1,729,29,700,135,0,500,200,8000,"[(960, 539), (960, 539), (959, 538), (959, 538), (959, 537), (959, 537), (958, 536), (958, 536), (957, 536), (957, 534), (957, 534), (957, 534), (957, 534), (957, 533), (957, 532), (957, 531), (957, 530), (957, 530), (957, 529), (957, 528), (957, 528), (956, 527), (956, 527), (956, 527), (954, 525), (954, 525), (954, 525), (954, 525), (954, 524), (953, 524), (953, 524), (953, 524), (953, 524), (953, 524), (953, 524), (953, 524), (953, 523), (953, 521), (953, 521), (953, 520), (953, 518), (953, 517), (953, 516), (955, 515), (959, 515), (971, 510), (978, 508), (988, 505), (995, 504), (1008, 499), (1011, 499), (1013, 498), (1018, 497), (1019, 497), (1021, 496), (1023, 496), (1024, 496), (1030, 496), (1035, 495), (1039, 494), (1045, 493), (1057, 489), (1060, 488), (1066, 485), (1073, 483), (1093, 479), (1110, 476), (1137, 473), (1169, 468), (1247, 455), (1282, 452), (1318, 439), (1377, 421)]",344.07275290414424,"[3, 2, 4, 7, 6, 9, 1, 8, 5]","(0, 0.25)",ENG007A,ENG,A,English,Tue Aug 21 12:57:12 2018,Mouse
1,0,1,0,30,4,6,0,-687,557,130,135,0,500,200,8000,"[(960, 540), (960, 540), (960, 540), (960, 540), (960, 540), (960, 540), (960, 540), (960, 540), (960, 540), (960, 540), (960, 540), (960, 540), (960, 540), (960, 540), (960, 540), (960, 540), (960, 540), (960, 540), (960, 540), (960, 540), (960, 540), (960, 540), (960, 540), (960, 540), (960, 540), (960, 540), (960, 540), (960, 540), (960, 540), (960, 540), (960, 540), (960, 540), (960, 540), (960, 540), (960, 540), (960, 540), (960, 540), (960, 540), (960, 540), (960, 540), (960, 540), (960, 540), (960, 540), (960, 540), (960, 540), (960, 540), (960, 540), (960, 540), (960, 540), (960, 540), (960, 540), (960, 540), (960, 540), (960, 540), (960, 540), (959, 543), (952, 543), (943, 543), (933, 543), (902, 543), (880, 543), (849, 543), (824, 543), (760, 543), (727, 543), (693, 543), (663, 543), (584, 545), (542, 548)]",178.903563916007,"[3, 2, 4, 7, 6, 9, 1, 8, 5]","(0, 0.25)",ENG007A,ENG,A,English,Tue Aug 21 12:57:12 2018,Mouse
1,0,1,0,31,6,2,0,-291,11,280,136,0,500,200,8000,"[(960, 540), (965, 547), (982, 578), (994, 600), (1006, 619), (1014, 635), (1021, 655), (1024, 662), (1024, 665), (1024, 668), (1025, 676), (1025, 681), (1027, 684), (1028, 687), (1033, 701), (1036, 708), (1039, 717), (1043, 725), (1051, 741), (1054, 749), (1058, 757), (1060, 764), (1069, 777), (1070, 782), (1076, 791), (1081, 798), (1111, 835), (1126, 855), (1148, 879), (1168, 902)]",60.118943607085306,"[3, 2, 4, 7, 6, 9, 1, 8, 5]","(0, 0.25)",ENG007A,ENG,A,English,Tue Aug 21 12:57:12 2018,Mouse
1,0,1,0,32,8,8,1,839,319,520,137,0,500,200,8000,"[(960, 540), (960, 540), (960, 540), (960, 540), (960, 540), (960, 540), (960, 540), (960, 540), (960, 540), (960, 540), (960, 540), (960, 540), (960, 540), (960, 540), (960, 540), (960, 540), (960, 540), (960, 540), (960, 540), (960, 540), (960, 540), (960, 540), (960, 540), (960, 540), (960, 540), (960, 540), (960, 540), (960, 540), (960, 540), (960, 540), (960, 540), (962, 537), (964, 535), (964, 535), (967, 533), (969, 531), (970, 529), (970, 529), (970, 529), (971, 529), (971, 529), (972, 529), (973, 529), (974, 528), (979, 527), (981, 526), (985, 524), (1001, 517), (1009, 514), (1016, 510), (1025, 506), (1037, 501), (1041, 499), (1047, 495), (1049, 494), (1052, 489), (1053, 485), (1053, 480), (1053, 475), (1053, 457), (1053, 446), (1053, 434), (1053, 423), (1053, 400), (1053, 388), (1053, 375), (1049, 363), (1047, 336), (1043, 320), (1043, 309), (1043, 297), (1043, 275), (1043, 263), (1043, 253), (1046, 246), (1052, 233), (1055, 227), (1060, 219), (1064, 214), (1076, 199), (1082, 193), (1094, 186), (1105, 179), (1134, 164)]",294.83309312443623,"[3, 2, 4, 7, 6, 9, 1, 8, 5]","(0, 0.25)",ENG007A,ENG,A,English,Tue Aug 21 12:57:12 2018,Mouse
1,0,1,0,33,2,2,1,460,210,250,137,0,500,200,8000,"[(960, 540), (960, 540), (960, 540), (960, 540), (960, 540), (960, 540), (960, 540), (960, 540), (960, 540), (960, 540), (960, 540), (960, 540), (960, 540), (960, 540), (960, 540), (960, 540), (960, 540), (960, 540), (960, 540), (960, 540), (960, 541), (960, 542), (962, 544), (962, 545), (964, 547), (965, 548), (968, 553), (968, 553), (969, 555), (969, 557), (970, 562), (972, 564), (975, 570), (980, 578), (997, 601), (1008, 618), (1018, 634), (1025, 648), (1036, 670), (1040, 682), (1048, 697), (1059, 723), (1093, 801), (1117, 844), (1140, 885), (1160, 918)]",62.1166593795518,"[3, 2, 4, 7, 6, 9, 1, 8, 5]","(0, 0.25)",ENG007A,ENG,A,English,Tue Aug 21 12:57:12 2018,Mouse
1,0,1,0,34,6,3,0,-420,250,170,136,0,500,200,8000,"[(960, 540), (960, 540), (960, 540), (960, 540), (960, 540), (960, 540), (960, 540), (960, 540), (960, 540), (960, 540), (960, 540), (960, 540), (960, 540), (960, 540), (960, 540), (960, 540), (960, 540), (960, 540), (960, 540), (960, 540), (960, 540), (960, 540), (960, 540), (960, 540), (961, 540), (966, 540), (978, 540), (1010, 541), (1028, 544), (1050, 548), (1071, 551), (1116, 557), (1140, 561), (1162, 565), (1187, 573), (1234, 587), (1254, 593), (1279, 601), (1295, 603), (1329, 614), (1344, 618), (1352, 621)]",11.674868809750858,"[3, 2, 4, 7, 6, 9, 1, 8, 5]","(0, 0.25)",ENG007A,ENG,A,English,Tue Aug 21 12:57:12 2018,Mouse
1,0,1,0,35,1,1,1,579,39,540,137,0,500,200,8000,"[(960, 540), (960, 540), (960, 540), (960, 539), (960, 539), (960, 539), (960, 539), (960, 539), (960, 539), (960, 539), (960, 539), (960, 539), (960, 539), (960, 539), (960, 539), (960, 539), (960, 538), (960, 537), (960, 536), (960, 536), (960, 530), (962, 521), (967, 511), (972, 499), (985, 468), (990, 448), (995, 433), (999, 417), (1003, 396), (1006, 388), (1009, 379), (1009, 374), (1009, 352), (1007, 339), (1001, 323), (995, 308), (986, 287), (983, 280), (981, 276), (978, 272), (977, 268), (977, 266), (975, 265), (975, 264), (971, 256), (964, 247), (955, 231), (941, 216), (917, 190), (908, 181), (902, 178), (900, 176), (898, 172), (898, 169), (898, 165), (898, 161), (898, 148), (898, 143)]",261.123743475836,"[3, 2, 4, 7, 6, 9, 1, 8, 5]","(0, 0.25)",ENG007A,ENG,A,English,Tue Aug 21 12:57:12 2018,Mouse
1,0,1,0,36,4,4,1,969,479,490,137,0,500,200,8000,"[(960, 540), (960, 540), (960, 540), (960, 540), (960, 540), (960, 540), (960, 540), (960, 540), (960, 540), (960, 540), (960, 540), (960, 540), (960, 540), (960, 540), (960, 540), (960, 540), (960, 540), (960, 540), (960, 540), (960, 540), (960, 540), (960, 540), (960, 540), (960, 540), (960, 540), (960, 540), (960, 540), (960, 540), (960, 540), (960, 540), (960, 540), (960, 540), (960, 540), (960, 540), (960, 540), (960, 540), (960, 540), (960, 540), (960, 540), (960, 540), (960, 540), (960, 540), (960, 540), (960, 540), (960, 540), (960, 540), (960, 540), (960, 541), (960, 541), (960, 542), (961, 542), (961, 542), (961, 542), (961, 542), (961, 542), (962, 542), (965, 544), (975, 547), (979, 548), (983, 549), (986, 549), (990, 552), (990, 552), (990, 552), (990, 552), (991, 552), (991, 552), (992, 553), (992, 553), (993, 554), (993, 555), (993, 555), (993, 555), (993, 555), (993, 555), (993, 555), (993, 555), (993, 555), (993, 555), (993, 555), (993, 555), (993, 555), (993, 557), (993, 561), (993, 567), (986, 587), (979, 601), (970, 624), (962, 650), (942, 722), (935, 754), (935, 785), (934, 805), (929, 863), (926, 895), (916, 933), (901, 975)]",97.72401793310281,"[3, 2, 4, 7, 6, 9, 1, 8, 5]","(0, 0.25)",ENG007A,ENG,A,English,Tue Aug 21 12:57:12 2018,Mouse
1,0,1,0,37,7,7,1,361,31,330,136,0,500,200,8000,"[(960, 540), (960, 540), (960, 540), (959, 540), (949, 545), (943, 550), (935, 556), (927, 564), (912, 583), (903, 594), (900, 603), (895, 613), (886, 632), (881, 642), (876, 650), (869, 659), (854, 676), (848, 685), (842, 692), (839, 698), (834, 703), (833, 704), (832, 705), (831, 706), (823, 710), (817, 712), (809, 715), (801, 718), (782, 728), (773, 735), (766, 742), (757, 749), (740, 763), (728, 773), (717, 780), (701, 791), (656, 814)]",137.97116326195064,"[3, 2, 4, 7, 6, 9, 1, 8, 5]","(0, 0.25)",ENG007A,ENG,A,English,Tue Aug 21 12:57:12 2018,Mouse
1,0,1,0,38,6,3,0,-450,110,340,135,0,500,200,8000,"[(960, 540), (960, 540), (960, 540), (960, 540), (960, 540), (960, 540), (960, 540), (960, 540), (960, 540), (960, 540), (961, 540), (961, 540), (961, 540), (961, 540), (961, 540), (961, 542), (963, 545), (967, 547), (979, 556), (989, 560), (999, 566), (1007, 571), (1019, 581), (1023, 583), (1025, 587), (1026, 591), (1034, 607), (1039, 617), (1052, 632), (1066, 647), (1088, 664), (1094, 668), (1102, 672), (1106, 674), (1118, 678), (1127, 679), (1139, 679), (1152, 680), (1190, 683), (1218, 685), (1244, 685), (1269, 686), (1314, 686), (1329, 686), (1344, 686)]",20.817220753109922,"[3, 2, 4, 7, 6, 9, 1, 8, 5]","(0, 0.25)",ENG007A,ENG,A,English,Tue Aug 21 12:57:12 2018,Mouse
1,0,1,0,39,8,3,0,-411,121,290,136,0,500,200,8000,"[(960, 540), (960, 540), (960, 540), (960, 540), (960, 540), (960, 540), (960, 540), (960, 540), (960, 540), (960, 540), (960, 540), (960, 540), (963, 540), (976, 540), (985, 540), (994, 540), (1002, 540), (1017, 540), (1023, 540), (1032, 542), (1039, 543), (1054, 547), (1064, 550), (1075, 552), (1089, 554), (1118, 558), (1133, 562), (1142, 563), (1151, 564), (1167, 569), (1177, 572), (1187, 575), (1198, 578), (1230, 588), (1247, 593), (1267, 599), (1287, 604), (1318, 613), (1330, 619), (1339, 623), (1342, 625), (1352, 631)]",13.069317896282177,"[3, 2, 4, 7, 6, 9, 1, 8, 5]","(0, 0.25)",ENG007A,ENG,A,English,Tue Aug 21 12:57:12 2018,Mouse
1,0,1,0,40,6,6,1,470,170,300,137,0,500,200,8000,"[(960, 540), (960, 540), (960, 540), (960, 540), (960, 540), (960, 540), (960, 540), (960, 540), (960, 540), (960, 540), (960, 540), (960, 540), (960, 540), (960, 540), (960, 540), (960, 540), (960, 538), (960, 538), (960, 535), (960, 535), (960, 534), (960, 533), (960, 532), (960, 532), (960, 532), (960, 532), (960, 532), (960, 532), (960, 532), (960, 532), (960, 532), (960, 532), (960, 532), (960, 532), (960, 532), (957, 531), (952, 530), (941, 529), (901, 526), (867, 524), (833, 521), (796, 517), (707, 508), (662, 504), (616, 497), (565, 489), (446, 474)]",187.31700723232476,"[3, 2, 4, 7, 6, 9, 1, 8, 5]","(0, 0.25)",ENG007A,ENG,A,English,Tue Aug 21 12:57:12 2018,Mouse
1,0,1,0,41,2,7,0,-348,18,330,137,0,500,200,8000,"[(960, 540), (959, 540), (956, 542), (955, 543), (954, 544), (953, 545), (951, 547), (949, 549), (946, 552), (941, 557), (928, 573), (920, 580), (908, 590), (900, 599), (883, 617), (878, 623), (873, 630), (872, 632), (871, 634), (871, 634), (870, 635), (868, 637), (861, 641), (856, 645), (849, 650), (840, 658), (807, 684), (787, 697), (770, 710), (756, 721), (731, 738), (715, 749), (697, 757), (679, 767), (639, 796)]",141.42736669501778,"[3, 2, 4, 7, 6, 9, 1, 8, 5]","(0, 0.25)",ENG007A,ENG,A,English,Tue Aug 21 12:57:12 2018,Mouse
1,0,1,0,42,3,3,1,319,69,250,138,0,500,200,8000,"[(960, 540), (960, 540), (960, 540), (960, 540), (960, 540), (960, 540), (963, 539), (967, 540), (973, 543), (977, 545), (999, 554), (1011, 559), (1028, 566), (1045, 572), (1076, 580), (1090, 586), (1097, 588), (1121, 596), (1130, 599), (1136, 602), (1147, 606), (1174, 618), (1187, 624), (1203, 630), (1222, 634), (1248, 642), (1260, 645), (1273, 649), (1284, 652), (1314, 661), (1337, 667), (1356, 671)]",18.304632642374646,"[3, 2, 4, 7, 6, 9, 1, 8, 5]","(0, 0.25)",ENG007A,ENG,A,English,Tue Aug 21 12:57:12 2018,Mouse
1,0,1,0,43,9,9,1,579,289,290,138,0,500,200,8000,"[(960, 540), (960, 540), (960, 540), (960, 540), (960, 540), (960, 540), (960, 540), (960, 540), (960, 540), (960, 540), (960, 540), (960, 540), (960, 540), (960, 540), (960, 540), (960, 540), (960, 540), (960, 540), (960, 540), (960, 540), (960, 540), (960, 540), (960, 540), (960, 540), (960, 540), (960, 540), (960, 540), (960, 540), (959, 539), (952, 534), (943, 530), (933, 524), (920, 517), (893, 500), (880, 493), (867, 486), (852, 473), (817, 446), (796, 430), (779, 417), (762, 406), (724, 382), (707, 371), (699, 363), (692, 357), (684, 351), (684, 350), (683, 349), (683, 349), (682, 348), (681, 348), (679, 347), (675, 343), (656, 333), (647, 328), (641, 324), (634, 321), (625, 317)]",213.65058043401433,"[3, 2, 4, 7, 6, 9, 1, 8, 5]","(0, 0.25)",ENG007A,ENG,A,English,Tue Aug 21 12:57:12 2018,Mouse
1,0,1,0,44,4,4,1,711,41,670,137,0,500,200,8000,"[(960, 540), (960, 540), (960, 540), (960, 540), (960, 542), (960, 544), (960, 547), (960, 552), (960, 556), (960, 558), (958, 563), (956, 569), (953, 575), (952, 578), (950, 582), (944, 593), (942, 599), (937, 609), (932, 620), (920, 642), (911, 657), (900, 674), (883, 694), (837, 737), (823, 747), (812, 754), (803, 758), (783, 768), (773, 773), (764, 776), (757, 779), (748, 787), (747, 795), (746, 805), (746, 813), (746, 840), (749, 851), (750, 862), (750, 865), (751, 871), (753, 873), (753, 873), (753, 873), (754, 874), (755, 874), (758, 874), (760, 874), (766, 873), (768, 873), (770, 872), (771, 872), (777, 871), (781, 871), (784, 869), (791, 869), (805, 869), (810, 869), (814, 869), (816, 869), (818, 869), (818, 869), (819, 870), (819, 870), (819, 871), (819, 871), (819, 872), (819, 873), (819, 879), (819, 883), (819, 890), (818, 897), (813, 913)]",111.509492802126,"[3, 2, 4, 7, 6, 9, 1, 8, 5]","(0, 0.25)",ENG007A,ENG,A,English,Tue Aug 21 12:57:12 2018,Mouse
1,0,1,0,45,3,3,1,519,229,290,136,0,500,200,8000,"[(960, 540), (960, 540), (960, 540), (960, 540), (960, 540), (960, 540), (960, 540), (960, 540), (960, 540), (960, 540), (960, 540), (960, 540), (960, 540), (960, 540), (960, 540), (960, 540), (960, 540), (960, 540), (960, 540), (960, 540), (960, 540), (960, 540), (958, 540), (958, 540), (958, 540), (958, 540), (958, 542), (960, 542), (967, 544), (977, 544), (1000, 549), (1017, 550), (1031, 552), (1048, 556), (1078, 562), (1090, 563), (1100, 567), (1114, 570), (1153, 581), (1173, 587), (1192, 591), (1211, 596), (1248, 607), (1262, 610), (1276, 615), (1289, 619), (1306, 624), (1314, 627), (1323, 631), (1330, 635), (1346, 640), (1353, 642)]",14.549632770122342,"[3, 2, 4, 7, 6, 9, 1, 8, 5]","(0, 0.25)",ENG007A,ENG,A,English,Tue Aug 21 12:57:12 2018,Mouse
1,0,1,0,46,9,3,0,-209,79,130,135,0,500,200,8000,"[(960, 540), (960, 540), (960, 540), (960, 540), (960, 540), (960, 540), (960, 540), (960, 539), (962, 539), (981, 544), (1001, 550), (1032, 559), (1065, 568), (1137, 587), (1173, 596), (1198, 604), (1229, 613), (1287, 629), (1309, 635), (1332, 643), (1359, 649)]",15.279417166195259,"[3, 2, 4, 7, 6, 9, 1, 8, 5]","(0, 0.25)",ENG007A,ENG,A,English,Tue Aug 21 12:57:12 2018,Mouse
1,0,1,0,47,5,5,1,809,209,600,136,0,500,200,8000,"[(960, 540), (960, 540), (960, 540), (960, 540), (960, 540), (960, 540), (960, 540), (960, 540), (960, 540), (960, 540), (960, 540), (960, 540), (960, 540), (960, 540), (960, 540), (960, 540), (960, 540), (960, 540), (960, 540), (960, 540), (958, 540), (957, 540), (957, 540), (956, 540), (956, 540), (955, 540), (955, 540), (955, 540), (955, 540), (955, 540), (955, 540), (955, 540), (955, 540), (955, 540), (955, 540), (955, 540), (955, 540), (955, 540), (955, 540), (955, 540), (955, 540), (955, 540), (955, 540), (955, 540), (955, 540), (955, 540), (954, 539), (959, 539), (965, 538), (971, 537), (974, 536), (979, 535), (979, 535), (980, 535), (980, 535), (980, 535), (980, 535), (980, 535), (982, 535), (986, 535), (987, 535), (989, 535), (990, 535), (992, 535), (994, 535), (995, 533), (996, 533), (1002, 532), (1009, 530), (1015, 527), (1026, 522), (1049, 509), (1069, 497), (1085, 488), (1103, 479), (1151, 455), (1175, 442), (1202, 431), (1231, 417), (1292, 391), (1327, 373)]",335.532524785965,"[3, 2, 4, 7, 6, 9, 1, 8, 5]","(0, 0.25)",ENG007A,ENG,A,English,Tue Aug 21 12:57:12 2018,Mouse
1,0,1,0,48,5,3,0,-310,60,250,136,0,500,200,8000,"[(960, 540), (960, 540), (960, 540), (960, 540), (960, 540), (961, 540), (961, 540), (963, 541), (963, 541), (964, 541), (964, 541), (964, 542), (965, 543), (967, 547), (969, 550), (976, 556), (983, 561), (1003, 573), (1018, 581), (1035, 592), (1045, 599), (1064, 610), (1073, 614), (1080, 619), (1095, 628), (1142, 649), (1179, 662), (1213, 676), (1245, 690), (1314, 719), (1339, 727)]",26.261901733363864,"[3, 2, 4, 7, 6, 9, 1, 8, 5]","(0, 0.25)",ENG007A,ENG,A,English,Tue Aug 21 12:57:12 2018,Mouse
1,0,1,0,49,2,2,1,419,89,330,137,0,500,200,8000,"[(959, 540), (959, 540), (959, 540), (959, 540), (959, 540), (959, 540), (959, 540), (959, 540), (957, 539), (957, 539), (957, 539), (957, 539), (957, 539), (957, 539), (957, 539), (957, 539), (957, 539), (957, 544), (959, 547), (961, 550), (962, 555), (972, 570), (979, 583), (986, 596), (999, 614), (1027, 672), (1040, 702), (1051, 723), (1063, 742), (1080, 778), (1086, 791), (1090, 801), (1093, 810), (1096, 828), (1100, 838), (1102, 847), (1105, 856), (1109, 874), (1112, 883), (1113, 891), (1116, 898), (1121, 910)]",66.48444940967002,"[3, 2, 4, 7, 6, 9, 1, 8, 5]","(0, 0.25)",ENG007A,ENG,A,English,Tue Aug 21 12:57:12 2018,Mouse
1,0,1,0,50,1,1,1,471,11,460,137,0,500,200,8000,"[(960, 540), (960, 539), (961, 537), (967, 531), (971, 526), (975, 520), (978, 513), (986, 490), (988, 480), (992, 469), (993, 460), (998, 433), (998, 422), (1001, 407), (1003, 397), (1006, 382), (1007, 379), (1009, 376), (1012, 370), (1015, 357), (1017, 346), (1018, 340), (1020, 334), (1023, 321), (1025, 316), (1027, 307), (1029, 300), (1029, 286), (1029, 281), (1029, 275), (1027, 269), (1023, 262), (1022, 261), (1019, 258), (1016, 256), (1011, 253), (1005, 250), (998, 248), (989, 244), (969, 233), (963, 228), (953, 220), (940, 205), (921, 183), (913, 175), (908, 165), (901, 156), (884, 136)]",259.3460974000615,"[3, 2, 4, 7, 6, 9, 1, 8, 5]","(0, 0.25)",ENG007A,ENG,A,English,Tue Aug 21 12:57:12 2018,Mouse
1,0,1,0,51,4,7,0,-249,29,220,136,0,500,200,8000,"[(960, 540), (960, 540), (958, 540), (957, 541), (955, 543), (951, 545), (940, 550), (931, 554), (923, 559), (915, 563), (899, 575), (890, 581), (884, 586), (876, 591), (863, 605), (857, 615), (849, 627), (839, 641), (803, 706), (781, 752), (761, 797), (747, 826), (735, 852), (731, 862), (727, 869)]",125.3063812072492,"[3, 2, 4, 7, 6, 9, 1, 8, 5]","(0, 0.25)",ENG007A,ENG,A,English,Tue Aug 21 12:57:12 2018,Mouse
1,0,1,0,52,5,9,0,-1211,91,1120,137,0,500,200,8000,"[(960, 540), (960, 540), (960, 540), (960, 540), (960, 540), (960, 540), (960, 540), (960, 540), (960, 540), (970, 540), (975, 540), (980, 541), (983, 542), (990, 543), (990, 543), (990, 543), (990, 543), (993, 544), (994, 545), (995, 545), (998, 546), (1007, 550), (1013, 550), (1020, 553), (1027, 555), (1041, 559), (1048, 561), (1055, 563), (1065, 567), (1091, 575), (1105, 578), (1116, 581), (1129, 586), (1143, 589), (1147, 589), (1150, 590), (1150, 590), (1150, 590), (1150, 590), (1150, 590), (1150, 590), (1150, 590), (1150, 590), (1150, 590), (1150, 590), (1147, 590), (1145, 589), (1141, 586), (1137, 585), (1129, 581), (1124, 578), (1123, 578), (1121, 577), (1118, 573), (1118, 573), (1118, 572), (1118, 571), (1118, 568), (1118, 567), (1118, 566), (1118, 566), (1118, 566), (1119, 566), (1119, 566), (1119, 566), (1120, 565), (1120, 565), (1120, 565), (1121, 564), (1123, 564), (1127, 564), (1131, 564), (1137, 564), (1158, 567), (1170, 571), (1182, 576), (1193, 578), (1222, 587), (1227, 589), (1229, 590), (1230, 592), (1230, 592), (1230, 592), (1230, 592), (1230, 592), (1230, 592), (1230, 592), (1230, 592), (1230, 592), (1230, 592), (1230, 592), (1230, 592), (1230, 592), (1230, 592), (1230, 592), (1230, 592), (1230, 592), (1230, 592), (1230, 592), (1230, 592), (1230, 592), (1230, 592), (1230, 592), (1230, 592), (1230, 592), (1230, 592), (1230, 592), (1229, 592), (1226, 592), (1217, 592), (1207, 591), (1196, 587), (1180, 583), (1138, 564), (1109, 552), (1080, 538), (1045, 520), (960, 470), (901, 445), (835, 412), (756, 372), (586, 301)]",212.58010067439642,"[3, 2, 4, 7, 6, 9, 1, 8, 5]","(0, 0.25)",ENG007A,ENG,A,English,Tue Aug 21 12:57:12 2018,Mouse
1,0,1,0,53,6,3,0,-399,199,200,138,0,500,200,8000,"[(960, 540), (960, 540), (960, 540), (960, 540), (960, 540), (960, 540), (960, 540), (960, 540), (960, 540), (960, 540), (960, 540), (960, 540), (960, 540), (960, 540), (960, 540), (960, 540), (960, 540), (960, 540), (960, 540), (962, 540), (962, 540), (962, 540), (962, 541), (964, 542), (967, 544), (970, 546), (978, 549), (981, 550), (988, 553), (995, 557), (1025, 565), (1043, 570), (1067, 579), (1094, 586), (1150, 602), (1178, 612), (1205, 624), (1239, 636), (1316, 670), (1364, 690)]",20.369313302187166,"[3, 2, 4, 7, 6, 9, 1, 8, 5]","(0, 0.25)",ENG007A,ENG,A,English,Tue Aug 21 12:57:12 2018,Mouse
1,0,1,0,54,5,5,1,739,19,720,139,0,500,200,8000,"[(962, 545), (971, 556), (975, 563), (981, 571), (987, 581), (1001, 611), (1009, 625), (1017, 635), (1026, 648), (1044, 676), (1049, 682), (1052, 686), (1053, 687), (1054, 689), (1054, 689), (1054, 689), (1054, 689), (1054, 689), (1054, 689), (1055, 691), (1055, 691), (1057, 694), (1058, 695), (1058, 695), (1059, 696), (1060, 697), (1060, 697), (1060, 699), (1060, 699), (1061, 699), (1061, 699), (1061, 699), (1061, 699), (1061, 699), (1061, 699), (1061, 699), (1061, 699), (1061, 699), (1061, 695), (1061, 691), (1061, 684), (1063, 666), (1066, 656), (1066, 649), (1067, 642), (1069, 628), (1072, 622), (1078, 612), (1083, 604), (1097, 585), (1107, 571), (1114, 558), (1123, 537), (1141, 496), (1143, 485), (1146, 475), (1148, 465), (1152, 451), (1158, 442), (1163, 436), (1171, 428), (1193, 419), (1205, 416), (1217, 412), (1229, 411), (1254, 407), (1259, 407), (1267, 406), (1273, 405), (1288, 400), (1298, 398), (1309, 395), (1315, 393), (1335, 389)]",338.06699731482377,"[3, 2, 4, 7, 6, 9, 1, 8, 5]","(0, 0.25)",ENG007A,ENG,A,English,Tue Aug 21 12:57:12 2018,Mouse
1,0,1,0,55,3,3,1,189,19,170,139,0,500,200,8000,"[(981, 549), (996, 555), (1032, 572), (1061, 584), (1090, 598), (1120, 612), (1172, 635), (1195, 644), (1221, 654), (1237, 662), (1265, 671), (1275, 675), (1282, 679), (1291, 682), (1304, 688), (1310, 691), (1317, 692), (1323, 694), (1332, 696)]",22.750976342787634,"[3, 2, 4, 7, 6, 9, 1, 8, 5]","(0, 0.25)",ENG007A,ENG,A,English,Tue Aug 21 12:57:12 2018,Mouse
1,0,1,0,56,9,9,1,311,20,291,138,0,500,200,8000,"[(955, 538), (945, 531), (928, 517), (917, 511), (906, 504), (895, 498), (873, 483), (858, 469), (849, 462), (839, 454), (826, 438), (820, 431), (815, 426), (810, 421), (805, 416), (805, 416), (805, 416), (805, 416), (803, 414), (803, 412), (798, 408), (792, 404), (769, 388), (756, 379), (747, 373), (737, 365), (724, 353), (718, 347), (711, 340), (703, 331), (633, 283)]",218.16496403222587,"[3, 2, 4, 7, 6, 9, 1, 8, 5]","(0, 0.25)",ENG007A,ENG,A,English,Tue Aug 21 12:57:12 2018,Mouse
1,0,1,0,57,7,7,1,330,30,300,137,0,500,200,8000,"[(960, 540), (960, 540), (961, 540), (961, 540), (961, 542), (961, 545), (958, 557), (955, 564), (953, 569), (950, 574), (949, 579), (949, 579), (949, 579), (949, 579), (949, 581), (947, 583), (946, 585), (944, 589), (937, 598), (934, 604), (932, 608), (931, 612), (926, 619), (923, 623), (919, 626), (913, 630), (882, 641), (849, 650), (810, 661), (763, 674), (663, 704), (616, 716), (576, 735)]",153.07797039218974,"[3, 2, 4, 7, 6, 9, 1, 8, 5]","(0, 0.25)",ENG007A,ENG,A,English,Tue Aug 21 12:57:12 2018,Mouse
1,0,1,0,58,7,7,1,519,19,500,136,0,500,200,8000,"[(959, 540), (956, 540), (955, 540), (954, 541), (952, 541), (952, 541), (952, 541), (952, 541), (952, 541), (952, 541), (951, 542), (950, 543), (947, 546), (944, 548), (944, 548), (940, 551), (937, 552), (936, 553), (936, 553), (934, 554), (934, 554), (934, 554), (934, 555), (933, 555), (932, 558), (930, 561), (929, 564), (926, 568), (921, 573), (921, 574), (920, 574), (920, 576), (916, 578), (913, 580), (905, 583), (897, 587), (866, 608), (838, 628), (808, 643), (781, 659), (723, 684), (708, 689), (689, 693), (679, 696), (661, 702), (652, 706), (646, 708), (639, 712), (624, 719), (616, 723), (609, 727), (602, 730)]",152.04393393631568,"[3, 2, 4, 7, 6, 9, 1, 8, 5]","(0, 0.25)",ENG007A,ENG,A,English,Tue Aug 21 12:57:12 2018,Mouse
1,0,1,0,59,3,3,1,559,379,180,135,0,500,200,8000,"[(960, 540), (960, 540), (960, 540), (960, 540), (960, 540), (960, 540), (960, 540), (960, 540), (960, 540), (960, 540), (960, 540), (960, 540), (960, 540), (960, 540), (960, 540), (960, 540), (960, 540), (960, 540), (960, 540), (960, 540), (960, 540), (960, 540), (960, 540), (960, 540), (960, 540), (960, 540), (960, 540), (960, 540), (960, 540), (960, 540), (960, 540), (960, 540), (960, 540), (960, 540), (960, 540), (960, 540), (960, 540), (960, 542), (960, 543), (964, 545), (970, 548), (981, 550), (995, 554), (1024, 565), (1043, 569), (1064, 571), (1088, 574), (1130, 580), (1145, 581), (1166, 582), (1190, 587), (1241, 595), (1267, 598), (1297, 603), (1331, 606), (1384, 619)]",10.554370268643954,"[3, 2, 4, 7, 6, 9, 1, 8, 5]","(0, 0.25)",ENG007A,ENG,A,English,Tue Aug 21 12:57:12 2018,Mouse
1,0,1,0,60,4,4,1,460,30,430,134,0,500,200,8000,"[(960, 540), (960, 540), (960, 543), (960, 544), (960, 547), (960, 549), (958, 554), (958, 556), (957, 558), (956, 558), (956, 559), (956, 560), (956, 560), (956, 560), (956, 560), (956, 560), (956, 560), (955, 561), (954, 563), (951, 567), (950, 569), (946, 573), (938, 581), (931, 585), (925, 589), (919, 596), (903, 627), (895, 652), (888, 685), (885, 708), (885, 748), (885, 763), (885, 772), (884, 778), (884, 789), (884, 796), (884, 804), (884, 814), (884, 841), (884, 853), (884, 868), (883, 885), (876, 907), (873, 912), (870, 922), (868, 933)]",103.17549423220966,"[3, 2, 4, 7, 6, 9, 1, 8, 5]","(0, 0.25)",ENG007A,ENG,A,English,Tue Aug 21 12:57:12 2018,Mouse
1,0,1,0,61,1,4,0,-2229,300,1929,133,0,500,200,8000,"[(960, 540), (960, 540), (960, 540), (960, 540), (960, 540), (960, 540), (960, 540), (960, 540), (960, 540), (960, 540), (960, 540), (960, 540), (960, 540), (960, 540), (960, 540), (960, 540), (960, 540), (960, 540), (960, 540), (960, 540), (960, 540), (960, 540), (960, 540), (960, 540), (960, 540), (960, 540), (960, 540), (960, 540), (960, 540), (961, 540), (961, 540), (961, 540), (961, 540), (961, 540), (962, 540), (962, 540), (962, 540), (962, 540), (962, 540), (962, 540), (962, 540), (962, 540), (962, 540), (962, 540), (962, 540), (962, 540), (962, 540), (962, 540), (962, 540), (962, 540), (962, 540), (962, 540), (962, 540), (962, 540), (962, 540), (962, 540), (962, 540), (962, 540), (962, 540), (962, 540), (962, 540), (962, 540), (962, 540), (962, 540), (962, 540), (962, 540), (962, 540), (962, 540), (962, 540), (962, 540), (962, 540), (962, 540), (962, 540), (962, 540), (962, 540), (962, 540), (962, 540), (962, 540), (962, 540), (962, 540), (962, 540), (962, 540), (962, 540), (962, 540), (962, 540), (962, 540), (962, 540), (962, 540), (962, 540), (962, 540), (962, 540), (962, 540), (962, 540), (962, 540), (962, 540), (962, 540), (962, 540), (962, 540), (962, 540), (962, 540), (962, 540), (962, 540), (962, 540), (962, 540), (962, 540), (962, 540), (962, 540), (962, 540), (962, 540), (962, 540), (962, 540), (962, 540), (962, 540), (962, 540), (962, 540), (962, 540), (962, 540), (962, 540), (962, 540), (962, 540), (962, 540), (962, 540), (962, 540), (962, 540), (962, 540), (962, 540), (962, 540), (962, 540), (962, 540), (962, 540), (962, 540), (962, 540), (962, 540), (962, 540), (962, 540), (962, 540), (962, 540), (962, 540), (962, 540), (962, 540), (962, 540), (962, 540), (962, 540), (962, 540), (962, 540), (962, 540), (962, 540), (962, 540), (962, 540), (962, 540), (963, 540), (963, 540), (963, 540), (963, 540), (963, 540), (963, 540), (963, 540), (963, 540), (963, 540), (963, 540), (963, 540), (963, 540), (963, 540), (963, 541), (963, 543), (963, 544), (963, 545), (963, 550), (963, 553), (963, 558), (963, 564), (963, 578), (963, 585), (963, 593), (962, 598), (957, 612), (955, 618), (953, 625), (951, 632), (949, 654), (945, 670), (941, 685), (937, 699), (929, 725), (926, 736), (920, 749), (914, 762), (905, 788), (903, 801), (897, 812), (891, 825), (881, 848), (875, 855), (871, 863), (869, 868), (865, 878), (862, 882), (862, 885), (862, 891), (862, 897), (862, 899), (861, 900), (861, 902), (860, 904), (860, 905), (859, 906), (859, 906), (858, 907), (858, 908), (858, 910), (858, 911), (858, 911), (858, 911), (858, 911), (858, 911), (858, 911), (858, 911), (858, 911), (858, 912), (857, 917), (856, 919), (855, 923), (855, 931)]",105.0316960852362,"[3, 2, 4, 7, 6, 9, 1, 8, 5]","(0, 0.25)",ENG007A,ENG,A,English,Tue Aug 21 12:57:12 2018,Mouse
1,0,1,0,62,8,3,0,-360,60,300,134,0,500,200,8000,"[(960, 540), (960, 540), (960, 540), (960, 540), (960, 540), (960, 541), (960, 541), (960, 541), (960, 541), (960, 542), (960, 542), (960, 543), (961, 544), (961, 544), (964, 544), (966, 544), (967, 544), (969, 544), (971, 545), (979, 548), (986, 550), (997, 553), (1006, 555), (1030, 562), (1048, 567), (1070, 575), (1093, 581), (1135, 594), (1160, 600), (1182, 606), (1210, 616), (1267, 636), (1292, 642), (1317, 650), (1336, 654), (1366, 664)]",16.983652355914337,"[3, 2, 4, 7, 6, 9, 1, 8, 5]","(0, 0.25)",ENG007A,ENG,A,English,Tue Aug 21 12:57:12 2018,Mouse
1,0,1,0,63,1,1,1,459,109,350,135,0,500,200,8000,"[(960, 540), (960, 540), (960, 540), (960, 540), (960, 540), (960, 540), (960, 540), (960, 540), (960, 540), (960, 540), (959, 540), (958, 540), (957, 540), (957, 540), (957, 540), (957, 540), (957, 540), (957, 540), (956, 540), (956, 540), (956, 540), (955, 540), (949, 535), (944, 525), (941, 516), (937, 505), (932, 488), (932, 477), (932, 462), (932, 449), (931, 420), (925, 395), (921, 358), (914, 335), (901, 293), (895, 273), (890, 260), (887, 250), (882, 229), (877, 217), (876, 207), (874, 196), (872, 173), (868, 162), (866, 153), (863, 147)]",256.1354030512675,"[3, 2, 4, 7, 6, 9, 1, 8, 5]","(0, 0.25)",ENG007A,ENG,A,English,Tue Aug 21 12:57:12 2018,Mouse
1,0,1,0,64,3,3,1,278,18,260,135,0,500,200,8000,"[(960, 540), (963, 540), (966, 541), (982, 550), (994, 554), (1008, 560), (1019, 563), (1044, 569), (1055, 574), (1067, 578), (1075, 583), (1089, 588), (1095, 591), (1101, 594), (1108, 596), (1124, 603), (1133, 607), (1143, 611), (1154, 614), (1172, 622), (1181, 626), (1190, 631), (1196, 633), (1217, 644), (1236, 655), (1256, 667), (1286, 685), (1348, 718)]",24.64390046570477,"[3, 2, 4, 7, 6, 9, 1, 8, 5]","(0, 0.25)",ENG007A,ENG,A,English,Tue Aug 21 12:57:12 2018,Mouse
1,0,1,0,65,1,7,0,-588,368,220,134,0,500,200,8000,"[(960, 540), (960, 540), (960, 540), (960, 540), (960, 540), (960, 540), (960, 540), (960, 540), (960, 540), (960, 540), (960, 540), (960, 540), (960, 540), (960, 540), (960, 540), (960, 540), (960, 540), (960, 540), (960, 540), (960, 540), (960, 540), (960, 540), (960, 540), (960, 540), (960, 540), (960, 540), (960, 540), (960, 540), (960, 540), (960, 540), (960, 540), (960, 540), (960, 540), (960, 540), (960, 540), (960, 540), (960, 541), (960, 543), (960, 547), (959, 548), (958, 553), (958, 556), (951, 570), (946, 582), (937, 597), (930, 617), (899, 686), (881, 714), (859, 738), (838, 759), (797, 792), (780, 807), (772, 817), (764, 827), (761, 848), (760, 856), (757, 866), (757, 873), (755, 892)]",120.2159382980258,"[3, 2, 4, 7, 6, 9, 1, 8, 5]","(0, 0.25)",ENG007A,ENG,A,English,Tue Aug 21 12:57:12 2018,Mouse
1,0,1,0,66,8,8,1,269,19,250,135,0,500,200,8000,"[(960, 540), (961, 541), (973, 548), (976, 550), (977, 550), (977, 550), (977, 550), (977, 550), (977, 550), (977, 550), (978, 550), (980, 545), (982, 540), (984, 536), (988, 521), (992, 510), (995, 498), (1000, 483), (1019, 444), (1030, 418), (1047, 378), (1067, 335), (1101, 273), (1112, 256), (1125, 239), (1138, 221), (1160, 183)]",299.2585996037465,"[3, 2, 4, 7, 6, 9, 1, 8, 5]","(0, 0.25)",ENG007A,ENG,A,English,Tue Aug 21 12:57:12 2018,Mouse
1,0,1,0,67,9,9,1,180,20,160,135,0,500,200,8000,"[(959, 541), (958, 541), (953, 541), (950, 541), (944, 539), (935, 534), (890, 504), (854, 483), (813, 462), (769, 434), (689, 383), (659, 366), (643, 356), (633, 351), (626, 343), (623, 338), (621, 330), (617, 320)]",212.6760888031945,"[3, 2, 4, 7, 6, 9, 1, 8, 5]","(0, 0.25)",ENG007A,ENG,A,English,Tue Aug 21 12:57:12 2018,Mouse
1,0,1,0,68,4,5,0,-1167,197,970,134,0,500,200,8000,"[(960, 540), (960, 540), (960, 540), (960, 540), (960, 540), (960, 540), (960, 540), (960, 540), (960, 540), (960, 540), (960, 540), (960, 540), (960, 540), (960, 540), (960, 540), (960, 540), (960, 540), (960, 540), (960, 540), (961, 541), (962, 542), (962, 542), (962, 543), (963, 543), (963, 543), (963, 543), (963, 543), (963, 543), (963, 543), (963, 543), (963, 543), (963, 543), (963, 543), (963, 543), (963, 543), (963, 543), (963, 543), (963, 543), (963, 543), (963, 543), (963, 545), (963, 545), (963, 545), (963, 545), (963, 546), (963, 546), (963, 546), (963, 546), (963, 546), (963, 546), (963, 546), (964, 546), (964, 548), (964, 548), (964, 548), (964, 549), (964, 549), (964, 549), (964, 550), (964, 551), (964, 551), (964, 551), (964, 551), (964, 552), (964, 552), (964, 552), (964, 552), (964, 552), (964, 552), (964, 552), (964, 552), (964, 552), (964, 552), (964, 552), (964, 552), (964, 552), (964, 552), (964, 552), (964, 552), (964, 552), (964, 552), (964, 552), (964, 552), (964, 552), (964, 552), (964, 552), (964, 552), (964, 552), (964, 552), (964, 552), (964, 552), (964, 552), (964, 552), (964, 552), (964, 552), (964, 552), (964, 552), (964, 552), (965, 552), (969, 552), (974, 552), (979, 550), (989, 549), (1013, 542), (1023, 539), (1039, 534), (1060, 531), (1100, 518), (1125, 510), (1145, 504), (1162, 498), (1210, 484), (1233, 473), (1263, 459), (1287, 454), (1330, 439), (1347, 433)]",344.54463473956974,"[3, 2, 4, 7, 6, 9, 1, 8, 5]","(0, 0.25)",ENG007A,ENG,A,English,Tue Aug 21 12:57:12 2018,Mouse
1,0,1,0,69,5,8,0,-2720,150,2570,135,0,500,200,8000,"[(960, 540), (960, 540), (960, 540), (960, 540), (960, 540), (960, 540), (960, 540), (960, 540), (960, 540), (960, 540), (960, 540), (960, 540), (960, 540), (960, 540), (959, 540), (959, 540), (959, 540), (959, 540), (959, 540), (959, 540), (959, 541), (959, 541), (959, 541), (959, 541), (959, 542), (959, 542), (959, 542), (959, 542), (959, 542), (959, 543), (959, 543), (959, 544), (959, 544), (959, 544), (959, 544), (959, 544), (959, 544), (960, 545), (960, 545), (960, 545), (960, 545), (960, 545), (960, 545), (960, 545), (960, 545), (960, 545), (960, 544), (960, 542), (960, 540), (960, 534), (960, 531), (960, 529), (959, 527), (957, 523), (955, 521), (955, 521), (955, 521), (955, 521), (955, 521), (955, 521), (955, 521), (955, 521), (955, 521), (955, 521), (955, 521), (955, 521), (955, 521), (955, 521), (955, 521), (955, 521), (955, 521), (955, 521), (955, 521), (954, 520), (954, 520), (954, 520), (954, 520), (954, 520), (954, 520), (954, 520), (954, 520), (953, 520), (952, 521), (952, 522), (951, 522), (950, 525), (949, 526), (948, 526), (948, 526), (947, 527), (947, 527), (947, 527), (947, 527), (947, 527), (947, 527), (947, 527), (947, 527), (947, 527), (946, 528), (945, 528), (944, 529), (943, 529), (942, 530), (941, 531), (941, 531), (941, 531), (941, 531), (941, 531), (941, 531), (941, 531), (941, 531), (941, 531), (941, 531), (941, 531), (941, 531), (941, 531), (941, 531), (941, 531), (941, 531), (941, 531), (941, 531), (940, 531), (940, 531), (940, 531), (940, 531), (940, 531), (940, 531), (940, 531), (939, 532), (939, 532), (939, 532), (939, 532), (939, 533), (939, 533), (939, 533), (939, 533), (939, 534), (939, 534), (939, 534), (939, 534), (939, 534), (939, 534), (939, 534), (939, 534), (939, 534), (939, 534), (939, 534), (939, 534), (938, 535), (938, 535), (938, 535), (938, 535), (938, 535), (938, 535), (938, 535), (938, 535), (938, 535), (938, 535), (938, 535), (938, 535), (938, 535), (938, 535), (938, 535), (938, 535), (938, 535), (938, 535), (938, 535), (938, 535), (938, 535), (938, 535), (938, 535), (938, 535), (938, 535), (938, 535), (938, 535), (938, 535), (938, 535), (938, 535), (938, 535), (938, 535), (938, 535), (938, 535), (938, 535), (938, 535), (938, 535), (938, 535), (938, 535), (938, 535), (938, 535), (938, 535), (938, 535), (938, 535), (938, 535), (938, 535), (938, 535), (938, 535), (938, 535), (938, 535), (938, 535), (938, 535), (938, 535), (938, 535), (939, 535), (939, 535), (940, 534), (940, 534), (941, 533), (942, 533), (944, 533), (946, 533), (949, 532), (949, 531), (949, 531), (950, 531), (950, 531), (951, 531), (952, 531), (954, 530), (954, 530), (955, 529), (955, 529), (955, 529), (956, 529), (959, 527), (960, 527), (970, 521), (978, 517), (988, 511), (997, 504), (1016, 486), (1023, 476), (1030, 465), (1037, 450), (1063, 392), (1077, 360), (1089, 331), (1103, 302), (1121, 255), (1126, 243), (1129, 231), (1130, 227), (1131, 219), (1131, 217), (1131, 217), (1131, 216), (1131, 216), (1131, 216), (1131, 216), (1131, 214), (1132, 212), (1132, 209), (1133, 209), (1133, 205), (1135, 196), (1135, 194), (1135, 193), (1135, 193), (1135, 193), (1135, 192), (1135, 192), (1135, 191), (1135, 190), (1136, 190), (1137, 189), (1137, 189), (1137, 188), (1137, 188), (1138, 187), (1139, 185), (1140, 183), (1140, 183), (1140, 182)]",296.69294332965694,"[3, 2, 4, 7, 6, 9, 1, 8, 5]","(0, 0.25)",ENG007A,ENG,A,English,Tue Aug 21 12:57:12 2018,Mouse
1,0,1,0,70,2,2,1,440,30,410,136,0,500,200,8000,"[(961, 540), (961, 540), (962, 540), (964, 540), (966, 540), (967, 540), (968, 540), (968, 540), (968, 540), (969, 540), (969, 540), (971, 540), (972, 540), (975, 540), (975, 540), (978, 540), (987, 544), (989, 545), (991, 546), (994, 547), (998, 549), (1003, 551), (1004, 552), (1006, 553), (1008, 554), (1011, 556), (1014, 559), (1019, 564), (1039, 584), (1054, 602), (1070, 624), (1085, 642), (1103, 667), (1107, 674), (1108, 679), (1109, 682), (1111, 693), (1113, 703), (1115, 717), (1118, 735), (1129, 802), (1136, 840), (1139, 872), (1144, 898)]",62.79835524695853,"[3, 2, 4, 7, 6, 9, 1, 8, 5]","(0, 0.25)",ENG007A,ENG,A,English,Tue Aug 21 12:57:12 2018,Mouse
1,0,1,0,71,7,7,1,280,20,260,136,0,500,200,8000,"[(959, 542), (958, 542), (955, 544), (951, 547), (949, 550), (945, 555), (941, 560), (937, 567), (935, 571), (932, 576), (930, 582), (918, 605), (910, 616), (895, 638), (875, 671), (839, 717), (826, 730), (817, 738), (811, 743), (804, 751), (803, 754), (800, 760), (797, 766), (778, 792), (766, 807), (753, 820), (733, 834), (697, 857)]",129.6808990923869,"[3, 2, 4, 7, 6, 9, 1, 8, 5]","(0, 0.25)",ENG007A,ENG,A,English,Tue Aug 21 12:57:12 2018,Mouse
1,0,1,0,72,2,2,1,430,40,390,135,0,500,200,8000,"[(960, 540), (960, 540), (960, 540), (960, 542), (960, 543), (961, 548), (962, 551), (963, 555), (966, 558), (967, 560), (970, 566), (971, 568), (971, 574), (975, 581), (982, 597), (987, 608), (992, 624), (993, 639), (996, 665), (998, 675), (999, 683), (1000, 694), (1005, 715), (1009, 728), (1016, 742), (1022, 758), (1045, 791), (1058, 808), (1067, 820), (1072, 827), (1078, 836), (1080, 840), (1082, 844), (1083, 849), (1087, 863), (1090, 873), (1093, 880), (1095, 890), (1103, 903), (1104, 908), (1105, 910), (1107, 912), (1107, 913)]",68.490507197874,"[3, 2, 4, 7, 6, 9, 1, 8, 5]","(0, 0.25)",ENG007A,ENG,A,English,Tue Aug 21 12:57:12 2018,Mouse
1,0,1,0,73,6,3,0,-328,128,200,134,0,500,200,8000,"[(960, 540), (960, 540), (960, 540), (960, 540), (960, 540), (960, 540), (960, 540), (960, 540), (960, 540), (960, 540), (960, 540), (960, 540), (960, 539), (962, 539), (976, 543), (984, 544), (993, 546), (1001, 549), (1020, 555), (1031, 557), (1045, 562), (1059, 567), (1103, 577), (1125, 583), (1153, 591), (1178, 597), (1213, 609), (1232, 613), (1247, 620), (1262, 626), (1304, 646), (1330, 655), (1356, 665)]",17.51864357565252,"[3, 2, 4, 7, 6, 9, 1, 8, 5]","(0, 0.25)",ENG007A,ENG,A,English,Tue Aug 21 12:57:12 2018,Mouse
1,0,1,0,74,6,1,0,-460,230,230,135,0,500,200,8000,"[(960, 540), (960, 540), (960, 540), (960, 540), (960, 540), (960, 540), (960, 540), (960, 540), (960, 540), (960, 540), (960, 540), (960, 540), (960, 540), (960, 540), (960, 540), (960, 540), (960, 540), (960, 540), (960, 540), (960, 540), (960, 540), (960, 540), (960, 538), (961, 537), (964, 535), (966, 533), (970, 529), (974, 523), (985, 504), (990, 491), (996, 477), (1003, 459), (1017, 404), (1021, 358), (1028, 315), (1030, 284), (1036, 239), (1036, 226), (1036, 216), (1036, 212), (1036, 205), (1036, 204), (1034, 199), (1026, 188), (1004, 162), (988, 139)]",273.994219832397,"[3, 2, 4, 7, 6, 9, 1, 8, 5]","(0, 0.25)",ENG007A,ENG,A,English,Tue Aug 21 12:57:12 2018,Mouse
1,0,1,0,75,1,1,1,341,11,330,136,0,500,200,8000,"[(960, 540), (957, 528), (948, 495), (941, 472), (935, 452), (932, 440), (921, 405), (916, 386), (907, 355), (898, 329), (863, 259), (850, 238), (840, 223), (834, 214), (829, 206), (828, 203), (827, 202), (827, 201), (826, 198), (826, 197), (826, 195), (824, 193), (824, 188), (823, 182), (823, 180), (823, 179), (823, 177), (823, 176), (823, 175), (823, 173), (823, 171), (823, 170), (823, 169), (823, 167), (823, 164)]",249.98019678402747,"[3, 2, 4, 7, 6, 9, 1, 8, 5]","(0, 0.25)",ENG007A,ENG,A,English,Tue Aug 21 12:57:12 2018,Mouse
1,0,1,0,76,9,9,1,330,70,260,136,0,500,200,8000,"[(960, 540), (960, 540), (960, 540), (960, 540), (960, 540), (960, 540), (960, 541), (960, 542), (956, 543), (952, 543), (938, 543), (932, 543), (927, 542), (921, 541), (917, 540), (916, 540), (915, 540), (914, 539), (913, 538), (911, 536), (909, 533), (903, 526), (892, 508), (886, 498), (879, 490), (873, 484), (859, 471), (853, 463), (842, 451), (827, 431), (771, 361), (720, 296), (662, 229)]",226.22287689593728,"[3, 2, 4, 7, 6, 9, 1, 8, 5]","(0, 0.25)",ENG007A,ENG,A,English,Tue Aug 21 12:57:12 2018,Mouse
1,0,1,0,77,2,2,1,449,19,430,135,0,500,200,8000,"[(960, 543), (961, 544), (964, 547), (966, 550), (976, 557), (981, 561), (987, 566), (992, 570), (1005, 579), (1012, 587), (1022, 599), (1030, 610), (1051, 637), (1059, 648), (1067, 663), (1072, 675), (1088, 695), (1094, 703), (1099, 709), (1103, 716), (1110, 729), (1118, 738), (1124, 745), (1129, 753), (1138, 764), (1142, 769), (1147, 773), (1155, 779), (1163, 787), (1165, 788), (1167, 788), (1167, 789), (1168, 790), (1169, 791), (1169, 793), (1169, 795), (1171, 800), (1172, 803), (1173, 806), (1174, 812), (1176, 824), (1178, 837), (1179, 846), (1181, 857), (1188, 880)]",56.1546597389283,"[3, 2, 4, 7, 6, 9, 1, 8, 5]","(0, 0.25)",ENG007A,ENG,A,English,Tue Aug 21 12:57:12 2018,Mouse
1,0,1,0,78,9,9,1,309,39,270,134,0,500,200,8000,"[(960, 540), (960, 540), (960, 540), (958, 541), (955, 539), (950, 535), (942, 530), (936, 526), (931, 522), (924, 516), (913, 504), (905, 497), (896, 489), (887, 482), (873, 469), (868, 463), (864, 456), (860, 448), (844, 419), (829, 395), (814, 373), (800, 355), (776, 331), (761, 321), (752, 313), (740, 305), (725, 292), (717, 284), (708, 275), (699, 264), (674, 241)]",226.2730300200567,"[3, 2, 4, 7, 6, 9, 1, 8, 5]","(0, 0.25)",ENG007A,ENG,A,English,Tue Aug 21 12:57:12 2018,Mouse
1,0,1,0,79,1,1,1,389,59,330,133,0,500,200,8000,"[(960, 540), (960, 540), (960, 540), (960, 540), (960, 540), (962, 540), (966, 530), (966, 524), (966, 519), (966, 513), (966, 499), (966, 494), (965, 485), (962, 477), (960, 464), (960, 458), (959, 453), (959, 450), (959, 442), (959, 439), (959, 437), (959, 434), (956, 421), (955, 412), (949, 390), (942, 364), (930, 330), (927, 319), (926, 310), (924, 304), (922, 282), (921, 270), (916, 257), (913, 246), (900, 219), (891, 198), (884, 180), (877, 169), (863, 141)]",256.3360215681368,"[3, 2, 4, 7, 6, 9, 1, 8, 5]","(0, 0.25)",ENG007A,ENG,A,English,Tue Aug 21 12:57:12 2018,Mouse
1,0,1,0,80,6,6,1,1770,140,1630,132,0,500,200,8000,"[(960, 540), (960, 540), (960, 540), (960, 540), (960, 540), (960, 540), (960, 540), (960, 540), (960, 540), (960, 540), (960, 540), (960, 540), (960, 540), (960, 541), (960, 541), (960, 541), (960, 541), (960, 541), (960, 542), (960, 542), (960, 542), (960, 542), (960, 542), (960, 542), (960, 542), (960, 542), (960, 542), (960, 542), (960, 542), (960, 542), (960, 542), (960, 542), (960, 542), (960, 542), (960, 542), (960, 542), (960, 542), (960, 542), (960, 542), (960, 542), (960, 542), (960, 542), (960, 542), (960, 542), (960, 542), (960, 542), (960, 542), (960, 542), (960, 542), (960, 542), (960, 542), (960, 542), (960, 542), (960, 542), (960, 542), (960, 542), (960, 542), (960, 542), (960, 542), (960, 542), (960, 542), (960, 542), (960, 542), (960, 542), (960, 542), (960, 542), (960, 542), (960, 542), (960, 542), (960, 542), (960, 542), (960, 542), (960, 542), (960, 542), (960, 542), (960, 542), (960, 542), (960, 542), (960, 542), (960, 542), (960, 542), (960, 542), (960, 542), (960, 542), (960, 542), (960, 542), (960, 542), (960, 542), (960, 542), (960, 542), (960, 542), (960, 542), (960, 542), (960, 542), (960, 542), (960, 542), (960, 542), (960, 542), (960, 542), (960, 542), (960, 542), (960, 542), (960, 542), (960, 542), (960, 542), (960, 542), (960, 542), (960, 542), (960, 542), (960, 542), (960, 542), (960, 542), (960, 542), (960, 542), (960, 542), (960, 542), (960, 542), (960, 542), (960, 542), (960, 542), (960, 542), (960, 542), (960, 542), (960, 542), (960, 542), (960, 542), (960, 542), (960, 542), (960, 542), (960, 542), (960, 542), (960, 542), (960, 542), (960, 542), (960, 542), (960, 542), (960, 542), (960, 542), (960, 542), (960, 542), (960, 542), (960, 542), (960, 543), (960, 543), (960, 543), (960, 543), (960, 543), (960, 543), (960, 544), (960, 544), (960, 544), (960, 544), (959, 544), (959, 544), (958, 544), (958, 544), (958, 544), (958, 544), (957, 544), (957, 544), (957, 544), (957, 543), (957, 543), (955, 542), (955, 542), (954, 542), (945, 541), (937, 541), (925, 541), (910, 541), (856, 541), (812, 541), (765, 541), (712, 541), (612, 537), (566, 532), (528, 526)]",181.85615804744887,"[3, 2, 4, 7, 6, 9, 1, 8, 5]","(0, 0.25)",ENG007A,ENG,A,English,Tue Aug 21 12:57:12 2018,Mouse
1,0,1,0,81,1,2,0,-1161,211,950,131,0,500,200,8000,"[(960, 540), (960, 540), (960, 540), (960, 540), (960, 540), (960, 540), (960, 540), (960, 540), (960, 540), (960, 540), (960, 540), (960, 540), (960, 540), (960, 540), (960, 540), (960, 540), (960, 540), (960, 540), (960, 540), (960, 540), (960, 540), (961, 541), (961, 541), (961, 541), (961, 541), (961, 541), (961, 541), (962, 541), (963, 541), (964, 540), (965, 540), (967, 540), (967, 540), (970, 540), (971, 540), (973, 540), (974, 540), (978, 540), (981, 540), (983, 540), (987, 540), (992, 541), (995, 541), (997, 541), (999, 541), (1010, 545), (1017, 546), (1024, 549), (1032, 553), (1044, 556), (1050, 559), (1055, 561), (1058, 563), (1062, 565), (1063, 566), (1064, 566), (1065, 568), (1069, 571), (1070, 572), (1072, 574), (1073, 574), (1077, 576), (1077, 576), (1079, 577), (1080, 578), (1081, 578), (1081, 579), (1081, 579), (1081, 579), (1082, 580), (1082, 581), (1082, 581), (1082, 581), (1084, 583), (1084, 584), (1084, 584), (1085, 585), (1086, 587), (1086, 587), (1087, 588), (1087, 589), (1087, 591), (1087, 592), (1087, 593), (1089, 596), (1089, 599), (1089, 600), (1089, 602), (1090, 604), (1090, 606), (1090, 608), (1090, 611), (1090, 615), (1090, 622), (1090, 627), (1090, 632), (1090, 637), (1091, 652), (1092, 661), (1094, 671), (1097, 692), (1111, 754), (1113, 765), (1113, 779), (1114, 791), (1114, 809), (1114, 819), (1116, 830), (1117, 838), (1119, 851), (1119, 855), (1121, 862), (1122, 868), (1123, 879), (1126, 888), (1129, 899), (1132, 906)]",64.82903996295865,"[3, 2, 4, 7, 6, 9, 1, 8, 5]","(0, 0.25)",ENG007A,ENG,A,English,Tue Aug 21 12:57:12 2018,Mouse
1,0,1,0,82,7,1,0,-340,40,300,132,0,500,200,8000,"[(961, 540), (961, 540), (961, 540), (965, 540), (966, 539), (967, 535), (969, 527), (970, 501), (970, 490), (970, 478), (970, 466), (968, 444), (965, 431), (961, 417), (959, 398), (942, 337), (933, 309), (931, 293), (930, 282), (925, 266), (923, 264), (921, 261), (920, 259), (912, 250), (907, 244), (901, 236), (895, 226), (883, 199), (878, 189), (873, 179), (870, 172), (867, 161), (864, 153), (863, 144)]",256.23642921242754,"[3, 2, 4, 7, 6, 9, 1, 8, 5]","(0, 0.25)",ENG007A,ENG,A,English,Tue Aug 21 12:57:12 2018,Mouse
1,0,1,0,83,2,2,1,370,80,290,133,0,500,200,8000,"[(960, 540), (960, 540), (960, 540), (960, 540), (960, 540), (960, 540), (960, 540), (961, 540), (961, 540), (961, 540), (962, 540), (962, 540), (963, 540), (964, 540), (966, 543), (970, 546), (984, 559), (997, 569), (1012, 580), (1035, 598), (1061, 626), (1075, 644), (1087, 666), (1098, 687), (1112, 718), (1117, 733), (1122, 747), (1128, 760), (1135, 778), (1138, 787), (1142, 794), (1145, 803), (1149, 821), (1151, 835), (1156, 851), (1164, 874), (1175, 910)]",59.83993916191291,"[3, 2, 4, 7, 6, 9, 1, 8, 5]","(0, 0.25)",ENG007A,ENG,A,English,Tue Aug 21 12:57:12 2018,Mouse
1,0,1,0,84,3,9,0,-290,50,240,133,0,500,200,8000,"[(960, 540), (960, 540), (960, 540), (960, 540), (959, 540), (955, 539), (948, 530), (942, 524), (938, 515), (929, 503), (910, 476), (894, 456), (882, 439), (862, 418), (822, 377), (806, 363), (797, 356), (785, 343), (772, 327), (766, 319), (761, 313), (756, 307), (743, 296), (732, 289), (723, 280), (711, 272), (694, 257), (687, 250), (678, 244)]",226.38751574744322,"[3, 2, 4, 7, 6, 9, 1, 8, 5]","(0, 0.25)",ENG007A,ENG,A,English,Tue Aug 21 12:57:12 2018,Mouse
1,0,1,0,85,9,9,1,249,59,190,134,0,500,200,8000,"[(960, 540), (960, 540), (960, 540), (960, 540), (960, 540), (962, 540), (962, 539), (962, 534), (950, 512), (944, 501), (939, 491), (933, 481), (925, 468), (921, 464), (917, 457), (913, 452), (902, 432), (890, 417), (874, 396), (853, 377), (793, 324), (764, 302), (737, 285), (713, 272), (682, 252)]",226.01218761398246,"[3, 2, 4, 7, 6, 9, 1, 8, 5]","(0, 0.25)",ENG007A,ENG,A,English,Tue Aug 21 12:57:12 2018,Mouse
1,0,1,0,86,9,5,0,-2799,368,2431,134,0,500,200,8000,"[(960, 540), (960, 540), (960, 540), (960, 540), (960, 540), (960, 540), (960, 540), (960, 540), (960, 540), (960, 540), (960, 540), (960, 540), (960, 540), (960, 540), (960, 540), (960, 540), (960, 540), (960, 540), (960, 540), (960, 540), (960, 540), (960, 540), (960, 540), (960, 540), (960, 540), (960, 540), (960, 540), (960, 540), (960, 540), (960, 540), (960, 540), (960, 540), (960, 540), (960, 540), (960, 540), (960, 540), (960, 541), (960, 541), (960, 542), (960, 542), (960, 543), (960, 544), (960, 544), (960, 544), (960, 544), (960, 544), (960, 545), (960, 545), (960, 545), (960, 545), (960, 545), (960, 545), (960, 545), (960, 545), (960, 545), (960, 545), (960, 545), (960, 545), (960, 545), (960, 545), (960, 545), (960, 545), (960, 545), (960, 545), (960, 545), (960, 545), (960, 545), (960, 545), (960, 545), (960, 545), (960, 545), (960, 545), (960, 545), (960, 545), (960, 545), (960, 545), (960, 545), (960, 545), (960, 545), (960, 545), (960, 545), (960, 545), (960, 545), (960, 545), (960, 545), (960, 545), (960, 545), (960, 545), (960, 545), (960, 545), (960, 545), (960, 545), (960, 545), (960, 545), (960, 545), (960, 545), (960, 545), (960, 545), (960, 545), (960, 545), (960, 545), (960, 545), (960, 545), (960, 545), (960, 545), (960, 545), (960, 545), (960, 545), (960, 545), (960, 545), (960, 545), (960, 545), (960, 545), (960, 545), (960, 545), (960, 545), (960, 545), (960, 545), (960, 545), (960, 545), (960, 545), (960, 545), (960, 545), (960, 545), (960, 545), (960, 545), (960, 545), (960, 545), (960, 545), (960, 545), (960, 545), (960, 545), (960, 545), (960, 545), (960, 545), (960, 545), (960, 545), (960, 545), (960, 545), (960, 545), (960, 545), (960, 545), (960, 545), (960, 545), (960, 545), (960, 545), (960, 545), (960, 545), (960, 545), (960, 545), (960, 545), (960, 545), (960, 545), (960, 545), (960, 545), (960, 545), (960, 545), (960, 545), (960, 545), (960, 545), (960, 545), (960, 545), (960, 545), (960, 545), (960, 545), (960, 545), (960, 545), (960, 545), (960, 545), (960, 545), (960, 545), (960, 545), (960, 545), (960, 545), (960, 545), (960, 545), (960, 545), (960, 545), (960, 545), (961, 546), (961, 546), (961, 546), (961, 546), (961, 547), (961, 547), (961, 547), (963, 547), (964, 547), (964, 547), (964, 547), (964, 547), (966, 547), (966, 547), (967, 548), (971, 549), (974, 549), (975, 550), (978, 551), (982, 552), (983, 552), (984, 552), (984, 552), (984, 552), (985, 552), (986, 553), (986, 553), (986, 553), (986, 553), (986, 553), (986, 553), (986, 553), (986, 553), (986, 553), (986, 553), (987, 553), (987, 553), (987, 553), (987, 553), (989, 553), (990, 553), (991, 553), (993, 553), (997, 553), (998, 553), (999, 553), (1000, 553), (1001, 553), (1001, 553), (1002, 553), (1002, 553), (1003, 553), (1003, 553), (1004, 553), (1005, 553), (1006, 553), (1007, 553), (1008, 553), (1009, 553), (1010, 553), (1010, 553), (1010, 553), (1012, 553), (1013, 553), (1013, 553), (1014, 552), (1016, 552), (1017, 550), (1018, 550), (1019, 550), (1019, 549), (1020, 548), (1022, 547), (1022, 547), (1022, 547), (1022, 544), (1022, 540), (1020, 533), (1017, 527), (1011, 518), (1009, 515), (1006, 511), (1004, 509), (997, 502), (994, 499), (992, 498), (991, 497), (991, 497), (991, 497), (991, 497), (991, 496), (1005, 496), (1028, 496), (1067, 496), (1108, 496), (1189, 496), (1219, 496), (1251, 492), (1278, 488), (1336, 471), (1367, 462)]",349.1510269375192,"[3, 2, 4, 7, 6, 9, 1, 8, 5]","(0, 0.25)",ENG007A,ENG,A,English,Tue Aug 21 12:57:12 2018,Mouse
1,0,1,0,87,2,2,1,350,20,330,135,0,500,200,8000,"[(960, 540), (961, 540), (961, 540), (962, 542), (963, 543), (965, 547), (966, 550), (970, 555), (973, 564), (980, 580), (984, 588), (986, 596), (987, 600), (987, 602), (987, 603), (989, 606), (989, 608), (991, 617), (993, 621), (994, 628), (996, 634), (1004, 654), (1006, 664), (1007, 670), (1010, 678), (1016, 697), (1017, 706), (1021, 719), (1028, 737), (1047, 789), (1064, 824), (1077, 850), (1089, 872), (1108, 902), (1113, 910)]",67.53424436585038,"[3, 2, 4, 7, 6, 9, 1, 8, 5]","(0, 0.25)",ENG007A,ENG,A,English,Tue Aug 21 12:57:12 2018,Mouse
1,0,1,0,88,1,1,1,289,99,190,135,0,500,200,8000,"[(960, 540), (960, 540), (960, 540), (960, 540), (960, 540), (960, 540), (960, 540), (960, 540), (960, 540), (960, 539), (960, 535), (958, 527), (955, 517), (942, 483), (929, 443), (921, 416), (909, 389), (889, 345), (881, 327), (874, 313), (861, 292), (837, 255), (829, 242), (820, 225), (814, 215), (803, 196), (801, 189), (797, 181), (795, 173)]",245.7917320001102,"[3, 2, 4, 7, 6, 9, 1, 8, 5]","(0, 0.25)",ENG007A,ENG,A,English,Tue Aug 21 12:57:12 2018,Mouse
1,0,1,0,89,7,7,1,429,39,390,134,0,500,200,8000,"[(960, 540), (960, 540), (960, 540), (958, 547), (955, 553), (953, 558), (952, 562), (949, 568), (948, 569), (947, 570), (947, 570), (946, 572), (945, 575), (942, 579), (938, 586), (929, 598), (921, 613), (912, 630), (906, 640), (899, 649), (897, 652), (895, 653), (894, 655), (887, 662), (881, 669), (870, 681), (858, 694), (820, 728), (797, 742), (781, 752), (768, 759), (746, 769), (741, 771), (733, 773), (725, 775), (704, 781), (694, 785), (687, 787), (679, 791), (665, 798), (660, 801), (658, 802), (654, 805)]",139.10700910487245,"[3, 2, 4, 7, 6, 9, 1, 8, 5]","(0, 0.25)",ENG007A,ENG,A,English,Tue Aug 21 12:57:12 2018,Mouse
1,0,1,0,90,7,7,1,1360,170,1190,133,0,500,200,8000,"[(960, 540), (960, 540), (960, 540), (960, 540), (960, 540), (960, 540), (960, 540), (960, 540), (960, 540), (960, 540), (960, 540), (960, 540), (960, 540), (960, 540), (960, 540), (960, 540), (961, 539), (961, 539), (963, 540), (964, 541), (964, 542), (965, 543), (966, 543), (966, 545), (966, 545), (966, 545), (966, 545), (966, 545), (966, 545), (966, 545), (968, 547), (968, 547), (968, 547), (969, 548), (969, 548), (969, 548), (969, 548), (969, 548), (969, 548), (969, 548), (969, 548), (969, 548), (969, 548), (971, 550), (971, 550), (971, 550), (972, 550), (973, 552), (974, 552), (974, 552), (974, 552), (975, 552), (975, 552), (975, 552), (976, 552), (976, 552), (976, 552), (976, 552), (976, 552), (977, 552), (977, 552), (977, 552), (977, 552), (977, 552), (977, 552), (977, 552), (977, 552), (977, 552), (977, 552), (977, 552), (977, 552), (977, 552), (977, 552), (977, 552), (977, 552), (977, 552), (977, 552), (977, 552), (977, 552), (977, 552), (977, 552), (977, 552), (977, 552), (977, 552), (977, 552), (977, 553), (974, 554), (967, 558), (961, 560), (958, 561), (952, 564), (940, 570), (932, 575), (929, 576), (924, 580), (917, 585), (911, 591), (903, 596), (895, 603), (873, 626), (859, 641), (848, 654), (831, 667), (810, 681), (803, 690), (795, 698), (787, 705), (772, 718), (763, 724), (754, 731), (747, 736), (735, 747), (729, 752), (723, 757), (721, 760), (709, 769), (706, 771), (703, 774), (700, 777), (693, 786), (693, 786), (692, 788), (691, 789), (691, 792), (691, 792), (691, 792), (691, 792), (691, 794), (691, 795), (691, 796), (690, 798), (687, 803), (685, 805), (683, 808), (676, 812), (666, 817)]",136.7053250692339,"[3, 2, 4, 7, 6, 9, 1, 8, 5]","(0, 0.25)",ENG007A,ENG,A,English,Tue Aug 21 12:57:12 2018,Mouse
1,0,1,0,91,4,4,1,519,169,350,132,0,500,200,8000,"[(960, 540), (960, 540), (960, 540), (960, 540), (960, 540), (960, 540), (960, 540), (960, 540), (960, 540), (960, 540), (960, 540), (960, 540), (960, 540), (960, 540), (960, 540), (960, 540), (959, 540), (958, 540), (950, 540), (947, 540), (943, 540), (939, 540), (929, 542), (925, 542), (921, 543), (919, 544), (914, 548), (913, 550), (911, 559), (907, 568), (901, 593), (896, 608), (894, 626), (892, 647), (892, 702), (892, 733), (892, 761), (892, 774), (892, 795), (892, 807), (892, 826), (892, 841), (888, 857), (887, 862), (885, 865), (884, 868), (882, 876), (881, 886), (879, 897), (877, 908), (873, 924), (870, 930)]",102.9946167919165,"[3, 2, 4, 7, 6, 9, 1, 8, 5]","(0, 0.25)",ENG007A,ENG,A,English,Tue Aug 21 12:57:12 2018,Mouse
1,0,1,0,92,4,9,0,-350,130,220,131,0,500,200,8000,"[(960, 540), (960, 540), (960, 540), (960, 540), (960, 540), (960, 540), (960, 540), (960, 540), (960, 540), (960, 540), (960, 540), (960, 540), (961, 540), (962, 539), (963, 537), (963, 533), (961, 528), (954, 517), (949, 511), (934, 483), (909, 445), (876, 397), (863, 382), (856, 376), (848, 365), (825, 343), (807, 324), (786, 309), (770, 297), (744, 279), (735, 270), (724, 261), (715, 253), (700, 237), (695, 234)]",229.10700910487245,"[3, 2, 4, 7, 6, 9, 1, 8, 5]","(0, 0.25)",ENG007A,ENG,A,English,Tue Aug 21 12:57:12 2018,Mouse
1,0,1,0,93,5,1,0,-511,21,490,132,0,500,200,8000,"[(960, 540), (960, 540), (960, 541), (960, 541), (960, 541), (960, 541), (960, 541), (960, 541), (960, 541), (960, 541), (960, 541), (960, 541), (960, 541), (960, 541), (960, 542), (960, 542), (960, 542), (960, 542), (960, 543), (960, 544), (960, 544), (960, 544), (961, 544), (961, 544), (961, 544), (962, 545), (962, 545), (962, 545), (962, 545), (962, 545), (962, 545), (962, 545), (962, 545), (962, 545), (962, 543), (962, 540), (962, 536), (962, 532), (962, 510), (959, 488), (953, 466), (948, 434), (934, 366), (931, 340), (929, 321), (925, 307), (915, 277), (910, 260), (902, 232), (894, 209), (875, 160), (867, 142)]",256.8477755563356,"[3, 2, 4, 7, 6, 9, 1, 8, 5]","(0, 0.25)",ENG007A,ENG,A,English,Tue Aug 21 12:57:12 2018,Mouse
1,0,1,0,94,9,9,1,520,30,490,133,0,500,200,8000,"[(960, 540), (960, 540), (960, 542), (960, 542), (960, 542), (959, 544), (955, 547), (954, 548), (954, 548), (953, 548), (953, 549), (953, 550), (953, 550), (952, 551), (952, 551), (952, 551), (951, 552), (951, 553), (951, 554), (950, 555), (949, 557), (946, 561), (943, 568), (938, 579), (932, 594), (915, 630), (904, 647), (891, 664), (881, 675), (854, 697), (844, 706), (837, 712), (829, 716), (821, 722), (817, 723), (814, 723), (812, 723), (807, 722), (805, 721), (804, 713), (804, 702), (804, 650), (804, 609), (799, 568), (789, 517), (762, 399), (748, 343), (734, 302), (726, 268), (716, 236), (714, 225), (713, 213)]",232.93436350774795,"[3, 2, 4, 7, 6, 9, 1, 8, 5]","(0, 0.25)",ENG007A,ENG,A,English,Tue Aug 21 12:57:12 2018,Mouse
1,0,1,0,95,8,2,0,-349,59,290,133,0,500,200,8000,"[(960, 540), (960, 540), (960, 540), (960, 540), (960, 540), (959, 540), (959, 541), (959, 544), (967, 550), (973, 553), (977, 556), (983, 559), (995, 567), (997, 569), (1001, 572), (1002, 573), (1005, 576), (1006, 577), (1006, 578), (1007, 580), (1008, 582), (1009, 584), (1014, 588), (1022, 596), (1048, 628), (1071, 652), (1087, 677), (1100, 699), (1112, 726), (1113, 733), (1115, 741), (1117, 753), (1127, 800), (1138, 844), (1158, 895)]",60.84956075574632,"[3, 2, 4, 7, 6, 9, 1, 8, 5]","(0, 0.25)",ENG007A,ENG,A,English,Tue Aug 21 12:57:12 2018,Mouse
1,0,1,0,96,3,3,1,428,58,370,134,0,500,200,8000,"[(960, 540), (960, 540), (960, 540), (960, 540), (960, 540), (961, 540), (965, 540), (971, 542), (991, 546), (1006, 550), (1020, 555), (1036, 558), (1063, 567), (1074, 569), (1081, 572), (1088, 574), (1096, 579), (1100, 582), (1105, 586), (1110, 588), (1127, 596), (1140, 602), (1147, 605), (1158, 608), (1192, 617), (1204, 621), (1216, 623), (1222, 626), (1230, 627), (1236, 630), (1243, 632), (1251, 635), (1269, 643), (1282, 648), (1292, 653), (1302, 657), (1310, 660), (1314, 660), (1316, 661), (1319, 662), (1328, 668), (1334, 672), (1343, 674)]",19.283382369542917,"[3, 2, 4, 7, 6, 9, 1, 8, 5]","(0, 0.25)",ENG007A,ENG,A,English,Tue Aug 21 12:57:12 2018,Mouse
1,0,1,0,97,4,1,0,-559,409,150,134,0,500,200,8000,"[(960, 540), (960, 540), (960, 540), (960, 540), (960, 540), (960, 540), (960, 540), (960, 540), (960, 540), (960, 540), (960, 540), (960, 540), (960, 540), (960, 540), (960, 540), (960, 540), (960, 540), (960, 540), (960, 540), (960, 540), (960, 540), (960, 540), (960, 540), (960, 540), (960, 540), (960, 540), (960, 540), (960, 540), (960, 540), (960, 540), (960, 540), (960, 540), (960, 540), (960, 540), (960, 540), (960, 540), (960, 540), (960, 540), (960, 540), (960, 540), (959, 540), (958, 540), (958, 540), (956, 540), (953, 536), (951, 531), (949, 523), (944, 515), (922, 452), (902, 399), (870, 344), (844, 295), (803, 227), (791, 207), (780, 190), (769, 169)]",242.7594671778625,"[3, 2, 4, 7, 6, 9, 1, 8, 5]","(0, 0.25)",ENG007A,ENG,A,English,Tue Aug 21 12:57:12 2018,Mouse
1,0,1,0,98,5,9,0,-800,280,520,135,0,500,200,8000,"[(960, 540), (960, 540), (960, 540), (960, 540), (960, 540), (960, 540), (960, 540), (960, 540), (960, 540), (960, 540), (960, 540), (960, 540), (960, 540), (960, 540), (960, 540), (960, 540), (960, 540), (960, 540), (960, 540), (960, 540), (960, 540), (960, 540), (960, 540), (960, 540), (960, 540), (960, 540), (960, 540), (957, 540), (953, 540), (948, 540), (945, 537), (939, 536), (936, 535), (935, 534), (933, 533), (928, 533), (925, 533), (921, 532), (916, 530), (905, 528), (897, 525), (893, 524), (886, 520), (881, 518), (878, 517), (874, 515), (874, 514), (867, 511), (863, 510), (858, 509), (852, 507), (841, 506), (837, 506), (831, 505), (828, 505), (823, 503), (820, 503), (818, 502), (817, 502), (813, 501), (811, 499), (809, 499), (808, 498), (804, 496), (804, 495), (801, 494), (797, 491), (787, 480), (781, 473), (773, 466), (765, 459), (744, 441), (731, 430), (721, 422), (713, 415), (697, 401), (684, 389), (670, 371), (650, 350), (607, 305)]",213.6525948174489,"[3, 2, 4, 7, 6, 9, 1, 8, 5]","(0, 0.25)",ENG007A,ENG,A,English,Tue Aug 21 12:57:12 2018,Mouse
1,0,1,0,99,5,3,0,-382,22,360,136,0,500,200,8000,"[(960, 540), (960, 540), (961, 540), (969, 545), (979, 550), (989, 555), (1001, 561), (1019, 567), (1028, 569), (1035, 573), (1040, 574), (1048, 578), (1052, 580), (1053, 581), (1054, 581), (1055, 583), (1057, 584), (1061, 587), (1067, 590), (1084, 600), (1094, 605), (1104, 609), (1115, 611), (1134, 619), (1139, 622), (1148, 626), (1155, 628), (1176, 637), (1187, 643), (1200, 649), (1213, 653), (1234, 662), (1245, 667), (1257, 672), (1268, 677), (1294, 689), (1305, 693), (1318, 699), (1326, 702)]",23.875280853927517,"[3, 2, 4, 7, 6, 9, 1, 8, 5]","(0, 0.25)",ENG007A,ENG,A,English,Tue Aug 21 12:57:12 2018,Mouse
1,0,1,0,100,8,8,1,289,19,270,137,0,500,200,8000,"[(960, 536), (960, 532), (960, 527), (965, 515), (967, 507), (971, 495), (977, 484), (992, 447), (998, 423), (1009, 389), (1017, 356), (1031, 308), (1035, 298), (1037, 291), (1037, 288), (1039, 284), (1039, 282), (1039, 282), (1039, 281), (1044, 272), (1046, 265), (1052, 252), (1056, 241), (1066, 217), (1069, 206), (1072, 194), (1075, 182), (1080, 168), (1084, 158)]",287.9838102761347,"[3, 2, 4, 7, 6, 9, 1, 8, 5]","(0, 0.25)",ENG007A,ENG,A,English,Tue Aug 21 12:57:12 2018,Mouse
1,0,1,0,101,9,9,1,181,41,140,137,0,500,200,8000,"[(960, 540), (960, 540), (960, 540), (960, 540), (960, 536), (960, 533), (952, 525), (944, 517), (935, 508), (925, 498), (902, 477), (879, 458), (859, 441), (835, 419), (791, 364), (775, 339), (756, 304), (741, 280), (710, 223)]",231.73915010690462,"[3, 2, 4, 7, 6, 9, 1, 8, 5]","(0, 0.25)",ENG007A,ENG,A,English,Tue Aug 21 12:57:12 2018,Mouse
1,0,1,0,102,5,3,0,-780,550,230,136,0,500,200,8000,"[(960, 540), (960, 540), (960, 540), (960, 540), (960, 540), (960, 540), (960, 540), (960, 540), (960, 540), (960, 540), (960, 540), (960, 540), (960, 540), (960, 540), (960, 540), (960, 540), (960, 540), (960, 540), (960, 540), (960, 540), (960, 540), (960, 540), (960, 540), (960, 540), (960, 540), (960, 540), (960, 540), (960, 540), (960, 540), (960, 540), (960, 540), (960, 540), (960, 540), (960, 540), (960, 540), (960, 540), (960, 540), (960, 540), (960, 540), (960, 540), (960, 540), (960, 540), (960, 540), (960, 540), (960, 540), (960, 540), (960, 540), (960, 540), (960, 540), (960, 540), (960, 540), (960, 540), (960, 540), (960, 540), (978, 543), (992, 547), (1007, 548), (1022, 551), (1048, 554), (1058, 555), (1067, 557), (1074, 558), (1092, 560), (1108, 565), (1125, 572), (1145, 577), (1204, 594), (1226, 600), (1251, 608), (1269, 615), (1287, 623), (1294, 628), (1297, 630), (1300, 632), (1314, 638), (1324, 644), (1335, 648), (1346, 653)]",16.317187065967715,"[3, 2, 4, 7, 6, 9, 1, 8, 5]","(0, 0.25)",ENG007A,ENG,A,English,Tue Aug 21 12:57:12 2018,Mouse
1,0,1,0,103,8,8,1,319,19,300,137,0,500,200,8000,"[(968, 532), (976, 522), (988, 510), (1016, 479), (1031, 461), (1046, 443), (1060, 421), (1076, 378), (1082, 366), (1086, 356), (1091, 346), (1096, 335), (1097, 330), (1097, 327), (1102, 321), (1107, 311), (1113, 305), (1117, 296), (1119, 293), (1124, 282), (1126, 277), (1128, 274), (1131, 270), (1135, 263), (1137, 259), (1141, 254), (1145, 247), (1157, 229), (1161, 223), (1167, 216), (1171, 209), (1179, 198)]",302.6335028467852,"[3, 2, 4, 7, 6, 9, 1, 8, 5]","(0, 0.25)",ENG007A,ENG,A,English,Tue Aug 21 12:57:12 2018,Mouse
1,0,1,0,104,6,6,1,268,128,140,137,0,500,200,8000,"[(960, 540), (960, 540), (960, 540), (960, 540), (960, 540), (960, 540), (960, 540), (960, 540), (960, 540), (960, 540), (960, 540), (960, 540), (956, 540), (953, 540), (938, 540), (926, 540), (908, 539), (887, 535), (833, 518), (805, 510), (781, 504), (761, 498), (716, 491), (684, 488), (643, 480), (598, 477), (501, 461)]",189.76568566076207,"[3, 2, 4, 7, 6, 9, 1, 8, 5]","(0, 0.25)",ENG007A,ENG,A,English,Tue Aug 21 12:57:12 2018,Mouse
1,0,1,0,105,9,9,1,292,42,250,136,0,500,200,8000,"[(960, 540), (960, 540), (960, 540), (960, 540), (957, 540), (951, 535), (948, 533), (936, 523), (929, 518), (923, 513), (915, 508), (895, 498), (885, 491), (873, 482), (857, 472), (818, 448), (797, 436), (777, 422), (757, 407), (722, 381), (705, 368), (695, 360), (687, 353), (677, 341), (673, 333), (669, 325), (665, 315), (653, 294), (651, 289), (644, 279)]",219.55498196430116,"[3, 2, 4, 7, 6, 9, 1, 8, 5]","(0, 0.25)",ENG007A,ENG,A,English,Tue Aug 21 12:57:12 2018,Mouse
