NativeLangNumber,LanuageNumber,SessionNumber,Block,TrialNum,ConditionNumber,Response,Accuracy,RT,MovementOnsetTime,TimeInMotion,SignalContrast,SignalContrastNumber,StimDisplayTime,MaskTime,MaxResponseTime,MousePositionXY,MouseAngle,WheelOrder,NoiseMuSigma,ParticipantID,LanuageTested,SessionTested,NativeLanuage,Date,ResponseDevice
2,0,2,0,1,6,6,1,550,480,70,153,0,500,200,8000,"[(512, 384), (512, 384), (512, 384), (512, 384), (512, 384), (512, 384), (512, 384), (512, 384), (512, 384), (512, 384), (512, 384), (512, 384), (512, 384), (512, 384), (512, 384), (512, 384), (512, 384), (512, 384), (512, 384), (512, 384), (512, 384), (512, 384), (512, 384), (512, 384), (512, 384), (512, 384), (512, 384), (512, 384), (512, 384), (512, 384), (512, 384), (512, 384), (512, 384), (512, 384), (512, 384), (512, 384), (512, 384), (512, 384), (512, 384), (512, 384), (512, 384), (512, 384), (512, 384), (512, 384), (512, 384), (512, 384), (512, 384), (513, 384), (503, 373), (481, 360), (409, 325), (370, 302), (332, 281), (299, 259), (226, 220)]",209.83110512878665,"[4, 3, 1, 5, 2, 6, 9, 8, 7]","(0, 0.25)",ENG010B,ENG,B,Chinese,Mon Nov  5 17:16:25 2018,Mouse
2,0,2,0,2,8,8,1,386,266,120,153,0,500,200,8000,"[(512, 384), (512, 384), (512, 384), (512, 384), (512, 384), (512, 384), (512, 384), (512, 384), (512, 384), (512, 384), (512, 384), (512, 384), (512, 384), (512, 384), (512, 384), (512, 384), (512, 384), (512, 384), (512, 384), (512, 384), (512, 384), (512, 384), (512, 384), (512, 384), (512, 384), (512, 384), (512, 382), (516, 377), (519, 374), (523, 369), (537, 351), (545, 342), (553, 330), (561, 320), (584, 292), (602, 271), (618, 249), (637, 221), (671, 178)]",307.66256346673043,"[4, 3, 1, 5, 2, 6, 9, 8, 7]","(0, 0.25)",ENG010B,ENG,B,Chinese,Mon Nov  5 17:16:25 2018,Mouse
2,0,2,0,3,6,6,1,451,341,110,152,0,500,200,8000,"[(512, 384), (512, 384), (512, 384), (512, 384), (512, 384), (512, 384), (512, 384), (512, 384), (512, 384), (512, 384), (512, 384), (512, 384), (512, 384), (512, 384), (512, 384), (512, 384), (512, 384), (512, 384), (512, 384), (512, 384), (512, 384), (512, 384), (512, 384), (512, 384), (512, 384), (512, 384), (512, 384), (512, 384), (512, 384), (512, 384), (512, 384), (512, 384), (512, 384), (512, 384), (512, 383), (512, 383), (512, 383), (512, 378), (509, 371), (504, 366), (492, 355), (448, 321), (420, 298), (396, 276), (363, 254), (299, 212)]",218.92128175899066,"[4, 3, 1, 5, 2, 6, 9, 8, 7]","(0, 0.25)",ENG010B,ENG,B,Chinese,Mon Nov  5 17:16:25 2018,Mouse
2,0,2,0,4,1,1,1,462,402,60,151,0,500,200,8000,"[(512, 384), (512, 384), (512, 384), (512, 384), (512, 384), (512, 384), (512, 384), (512, 384), (512, 384), (512, 384), (512, 384), (512, 384), (512, 384), (512, 384), (512, 384), (512, 384), (512, 384), (512, 384), (512, 384), (512, 384), (512, 384), (512, 384), (512, 384), (512, 384), (512, 384), (512, 384), (512, 384), (512, 384), (512, 384), (512, 384), (512, 384), (512, 384), (512, 384), (512, 384), (512, 384), (512, 384), (512, 384), (512, 384), (512, 384), (512, 384), (507, 408), (502, 433), (496, 460), (493, 486), (484, 561), (484, 600), (484, 644)]",96.14662565964667,"[4, 3, 1, 5, 2, 6, 9, 8, 7]","(0, 0.25)",ENG010B,ENG,B,Chinese,Mon Nov  5 17:16:25 2018,Mouse
2,0,2,0,5,5,5,1,933,853,80,150,0,500,200,8000,"[(512, 384), (512, 384), (512, 384), (512, 384), (512, 384), (512, 384), (512, 384), (512, 384), (512, 384), (512, 384), (512, 384), (512, 384), (512, 384), (512, 384), (512, 384), (512, 384), (512, 384), (512, 384), (512, 384), (512, 384), (512, 384), (512, 384), (512, 384), (512, 384), (512, 384), (512, 384), (512, 384), (512, 384), (512, 384), (512, 384), (512, 384), (512, 384), (512, 384), (512, 384), (512, 384), (512, 384), (512, 384), (512, 384), (512, 384), (512, 384), (512, 384), (512, 384), (512, 384), (512, 384), (512, 384), (512, 384), (512, 384), (512, 384), (512, 384), (512, 384), (512, 384), (512, 384), (512, 384), (512, 384), (512, 384), (512, 384), (512, 384), (512, 384), (512, 384), (512, 384), (512, 384), (512, 384), (512, 384), (512, 384), (512, 384), (512, 384), (512, 384), (512, 384), (512, 384), (512, 384), (512, 384), (512, 384), (512, 384), (512, 384), (512, 384), (512, 384), (512, 384), (512, 384), (512, 384), (512, 384), (512, 384), (512, 384), (512, 384), (512, 384), (512, 384), (505, 389), (493, 406), (475, 429), (452, 456), (407, 499), (385, 520), (365, 538), (342, 554), (301, 591)]",135.5482682363042,"[4, 3, 1, 5, 2, 6, 9, 8, 7]","(0, 0.25)",ENG010B,ENG,B,Chinese,Mon Nov  5 17:16:25 2018,Mouse
2,0,2,0,6,9,9,1,402,212,190,149,0,500,200,8000,"[(512, 384), (512, 384), (512, 384), (512, 384), (512, 384), (512, 384), (512, 384), (512, 384), (512, 384), (512, 384), (512, 384), (512, 384), (512, 384), (512, 384), (512, 384), (512, 384), (512, 384), (512, 384), (512, 384), (512, 384), (512, 384), (512, 383), (512, 383), (512, 383), (512, 383), (512, 383), (512, 383), (512, 383), (513, 382), (514, 380), (514, 368), (514, 332), (511, 318), (508, 303), (505, 289), (504, 274), (497, 233), (495, 210), (492, 186), (492, 158), (492, 116)]",265.7321066997092,"[4, 3, 1, 5, 2, 6, 9, 8, 7]","(0, 0.25)",ENG010B,ENG,B,Chinese,Mon Nov  5 17:16:25 2018,Mouse
2,0,2,0,7,1,1,1,526,456,70,148,0,500,200,8000,"[(512, 384), (512, 384), (512, 384), (512, 384), (512, 384), (512, 384), (512, 384), (512, 384), (512, 384), (512, 384), (512, 384), (512, 384), (512, 384), (512, 384), (512, 384), (512, 384), (512, 384), (512, 384), (512, 384), (512, 384), (512, 384), (512, 384), (512, 384), (512, 384), (512, 384), (512, 384), (512, 384), (512, 384), (512, 384), (512, 384), (512, 384), (512, 384), (512, 384), (512, 384), (512, 384), (512, 384), (512, 384), (512, 384), (512, 384), (512, 384), (512, 384), (512, 384), (512, 384), (512, 384), (512, 384), (511, 385), (508, 411), (501, 430), (495, 454), (485, 483), (470, 559), (465, 596), (459, 642)]",101.60856748866696,"[4, 3, 1, 5, 2, 6, 9, 8, 7]","(0, 0.25)",ENG010B,ENG,B,Chinese,Mon Nov  5 17:16:25 2018,Mouse
2,0,2,0,8,6,6,1,383,323,60,147,0,500,200,8000,"[(512, 384), (512, 384), (512, 384), (512, 384), (512, 384), (512, 384), (512, 384), (512, 384), (512, 384), (512, 384), (512, 384), (512, 384), (512, 384), (512, 384), (512, 384), (512, 384), (512, 384), (512, 384), (512, 384), (512, 384), (512, 384), (512, 384), (512, 384), (512, 384), (512, 384), (512, 384), (512, 384), (512, 384), (512, 384), (512, 384), (512, 384), (512, 384), (510, 375), (490, 358), (430, 322), (403, 305), (361, 277), (322, 250), (233, 190)]",214.81245349291513,"[4, 3, 1, 5, 2, 6, 9, 8, 7]","(0, 0.25)",ENG010B,ENG,B,Chinese,Mon Nov  5 17:16:25 2018,Mouse
2,0,2,0,9,7,7,1,524,424,100,146,0,500,200,8000,"[(512, 384), (512, 384), (512, 384), (512, 384), (512, 384), (512, 384), (512, 384), (512, 384), (512, 384), (512, 384), (512, 384), (512, 384), (512, 384), (512, 384), (512, 384), (512, 384), (512, 384), (512, 384), (512, 384), (512, 384), (512, 384), (512, 384), (512, 384), (512, 384), (512, 384), (512, 384), (512, 384), (512, 384), (512, 384), (512, 384), (512, 384), (512, 384), (512, 384), (512, 384), (512, 384), (512, 384), (512, 384), (512, 384), (512, 384), (512, 384), (512, 384), (512, 384), (512, 382), (518, 375), (554, 354), (572, 347), (585, 341), (603, 335), (655, 315), (683, 305), (709, 296), (732, 286), (773, 270)]",336.40517943011855,"[4, 3, 1, 5, 2, 6, 9, 8, 7]","(0, 0.25)",ENG010B,ENG,B,Chinese,Mon Nov  5 17:16:25 2018,Mouse
2,0,2,0,10,7,7,1,314,234,80,145,0,500,200,8000,"[(512, 384), (512, 384), (512, 384), (512, 384), (512, 384), (512, 384), (512, 384), (512, 384), (512, 384), (512, 384), (512, 384), (512, 384), (512, 384), (512, 384), (512, 384), (512, 384), (512, 384), (512, 384), (512, 384), (512, 384), (512, 384), (512, 384), (512, 384), (514, 383), (518, 382), (523, 380), (533, 372), (568, 352), (596, 335), (631, 316), (671, 295), (763, 255)]",332.7993640287517,"[4, 3, 1, 5, 2, 6, 9, 8, 7]","(0, 0.25)",ENG010B,ENG,B,Chinese,Mon Nov  5 17:16:25 2018,Mouse
2,0,2,0,11,7,7,1,272,202,70,144,0,500,200,8000,"[(512, 384), (512, 384), (512, 384), (512, 384), (512, 384), (512, 384), (512, 384), (512, 384), (512, 384), (512, 384), (512, 384), (512, 384), (512, 384), (512, 384), (512, 384), (512, 384), (512, 384), (512, 384), (512, 384), (512, 384), (519, 383), (532, 379), (550, 374), (578, 366), (630, 345), (668, 334), (713, 322), (758, 306)]",342.4075754378184,"[4, 3, 1, 5, 2, 6, 9, 8, 7]","(0, 0.25)",ENG010B,ENG,B,Chinese,Mon Nov  5 17:16:25 2018,Mouse
2,0,2,0,12,4,4,1,532,492,40,143,0,500,200,8000,"[(512, 384), (512, 384), (512, 384), (512, 384), (512, 384), (512, 384), (512, 384), (512, 384), (512, 384), (512, 384), (512, 384), (512, 384), (512, 384), (512, 384), (512, 384), (512, 384), (512, 384), (512, 384), (512, 384), (512, 384), (512, 384), (512, 384), (512, 384), (512, 384), (512, 384), (512, 384), (512, 384), (512, 384), (512, 384), (512, 384), (512, 384), (512, 384), (512, 384), (512, 384), (512, 384), (512, 384), (512, 384), (512, 384), (512, 384), (512, 384), (512, 384), (512, 384), (512, 384), (512, 384), (512, 384), (512, 384), (512, 384), (512, 384), (512, 384), (531, 395), (579, 415), (641, 439), (742, 479), (807, 508)]",22.798913676179414,"[4, 3, 1, 5, 2, 6, 9, 8, 7]","(0, 0.25)",ENG010B,ENG,B,Chinese,Mon Nov  5 17:16:25 2018,Mouse
2,0,2,0,13,7,7,1,322,222,100,142,0,500,200,8000,"[(512, 384), (512, 384), (512, 384), (512, 384), (512, 384), (512, 384), (512, 384), (512, 384), (512, 384), (512, 384), (512, 384), (512, 384), (512, 384), (512, 384), (512, 384), (512, 384), (512, 384), (512, 384), (512, 384), (512, 384), (512, 384), (512, 384), (513, 384), (523, 378), (534, 371), (549, 362), (562, 357), (602, 341), (614, 336), (633, 326), (660, 311), (714, 284), (751, 265)]",333.53092156316825,"[4, 3, 1, 5, 2, 6, 9, 8, 7]","(0, 0.25)",ENG010B,ENG,B,Chinese,Mon Nov  5 17:16:25 2018,Mouse
2,0,2,0,14,4,4,1,283,243,40,141,0,500,200,8000,"[(512, 384), (512, 384), (512, 384), (512, 384), (512, 384), (512, 384), (512, 384), (512, 384), (512, 384), (512, 384), (512, 384), (512, 384), (512, 384), (512, 384), (512, 384), (512, 384), (512, 384), (512, 384), (512, 384), (512, 384), (512, 384), (512, 384), (512, 384), (512, 384), (529, 389), (568, 400), (610, 413), (704, 455), (757, 478)]",20.99048303638242,"[4, 3, 1, 5, 2, 6, 9, 8, 7]","(0, 0.25)",ENG010B,ENG,B,Chinese,Mon Nov  5 17:16:25 2018,Mouse
2,0,2,0,15,7,7,1,382,302,80,140,0,500,200,8000,"[(512, 384), (512, 384), (512, 384), (512, 384), (512, 384), (512, 384), (512, 384), (512, 384), (512, 384), (512, 384), (512, 384), (512, 384), (512, 384), (512, 384), (512, 384), (512, 384), (512, 384), (512, 384), (512, 384), (512, 384), (512, 384), (512, 384), (512, 384), (512, 384), (512, 384), (512, 384), (512, 384), (512, 384), (512, 384), (512, 384), (512, 383), (535, 372), (548, 368), (565, 364), (585, 359), (641, 342), (682, 331), (724, 318), (769, 302)]",342.3038772514865,"[4, 3, 1, 5, 2, 6, 9, 8, 7]","(0, 0.25)",ENG010B,ENG,B,Chinese,Mon Nov  5 17:16:25 2018,Mouse
2,0,2,0,16,8,8,1,701,241,460,139,0,500,200,8000,"[(512, 384), (512, 384), (512, 384), (512, 384), (512, 384), (512, 384), (512, 384), (512, 384), (512, 384), (512, 384), (512, 384), (512, 384), (512, 384), (512, 384), (512, 384), (512, 384), (512, 384), (512, 384), (512, 384), (512, 384), (512, 384), (512, 384), (512, 384), (512, 384), (512, 379), (512, 365), (512, 338), (512, 326), (512, 315), (512, 306), (512, 296), (512, 293), (512, 292), (512, 292), (512, 292), (512, 292), (512, 292), (512, 292), (520, 279), (527, 270), (534, 259), (544, 247), (557, 228), (562, 221), (567, 216), (568, 215), (570, 214), (570, 214), (570, 214), (570, 214), (569, 214), (566, 214), (566, 214), (565, 215), (564, 215), (562, 215), (562, 216), (562, 216), (562, 216), (562, 216), (562, 216), (562, 216), (562, 216), (562, 216), (562, 216), (563, 216), (576, 205), (585, 193), (597, 181), (612, 163), (639, 128)]",296.385722249315,"[4, 3, 1, 5, 2, 6, 9, 8, 7]","(0, 0.25)",ENG010B,ENG,B,Chinese,Mon Nov  5 17:16:25 2018,Mouse
2,0,2,0,17,5,8,0,-462,182,280,138,0,500,200,8000,"[(512, 384), (512, 384), (512, 384), (512, 384), (512, 384), (512, 384), (512, 384), (512, 384), (512, 384), (512, 384), (512, 384), (512, 384), (512, 384), (512, 384), (512, 384), (512, 384), (512, 384), (512, 384), (512, 385), (512, 385), (512, 385), (512, 385), (512, 385), (512, 385), (512, 385), (512, 385), (512, 385), (512, 385), (512, 385), (512, 385), (512, 385), (512, 385), (512, 385), (512, 385), (512, 385), (512, 385), (512, 385), (512, 385), (512, 385), (512, 385), (520, 379), (529, 366), (547, 333), (564, 303), (602, 240), (626, 199), (645, 171)]",301.9811975702152,"[4, 3, 1, 5, 2, 6, 9, 8, 7]","(0, 0.25)",ENG010B,ENG,B,Chinese,Mon Nov  5 17:16:25 2018,Mouse
2,0,2,0,18,4,4,1,385,325,60,139,0,500,200,8000,"[(512, 384), (512, 384), (512, 384), (512, 384), (512, 384), (512, 384), (512, 384), (512, 384), (512, 384), (512, 384), (512, 384), (512, 384), (512, 384), (512, 384), (512, 384), (512, 384), (512, 384), (512, 384), (512, 384), (512, 384), (512, 384), (512, 384), (512, 384), (512, 384), (512, 384), (512, 384), (512, 384), (512, 384), (512, 384), (512, 384), (512, 384), (512, 384), (523, 391), (551, 401), (580, 415), (611, 425), (691, 455), (738, 471), (780, 482)]",20.086032961206335,"[4, 3, 1, 5, 2, 6, 9, 8, 7]","(0, 0.25)",ENG010B,ENG,B,Chinese,Mon Nov  5 17:16:25 2018,Mouse
2,0,2,0,19,1,1,1,342,262,80,139,0,500,200,8000,"[(512, 384), (512, 384), (512, 384), (512, 384), (512, 384), (512, 384), (512, 384), (512, 384), (512, 384), (512, 384), (512, 384), (512, 384), (512, 384), (512, 384), (512, 384), (512, 384), (512, 384), (512, 384), (512, 384), (512, 384), (512, 384), (512, 384), (512, 384), (512, 384), (512, 384), (512, 384), (509, 389), (507, 400), (501, 412), (492, 431), (475, 475), (467, 503), (460, 538), (451, 574), (441, 633)]",105.91500026477534,"[4, 3, 1, 5, 2, 6, 9, 8, 7]","(0, 0.25)",ENG010B,ENG,B,Chinese,Mon Nov  5 17:16:25 2018,Mouse
2,0,2,0,20,5,5,1,559,489,70,138,0,500,200,8000,"[(512, 384), (512, 384), (512, 384), (512, 384), (512, 384), (512, 384), (512, 384), (512, 384), (512, 384), (512, 384), (512, 384), (512, 384), (512, 384), (512, 384), (512, 384), (512, 384), (512, 384), (512, 384), (512, 384), (512, 384), (512, 384), (512, 384), (512, 384), (512, 384), (512, 384), (512, 384), (512, 384), (512, 384), (512, 384), (512, 384), (512, 384), (512, 384), (512, 384), (512, 384), (512, 384), (512, 384), (512, 384), (512, 384), (512, 384), (512, 384), (512, 384), (512, 384), (512, 384), (512, 384), (512, 384), (512, 384), (512, 384), (512, 384), (510, 383), (501, 389), (485, 399), (441, 439), (412, 460), (387, 479), (356, 498), (295, 542)]",143.9412402693571,"[4, 3, 1, 5, 2, 6, 9, 8, 7]","(0, 0.25)",ENG010B,ENG,B,Chinese,Mon Nov  5 17:16:25 2018,Mouse
2,0,2,0,21,8,8,1,343,273,70,137,0,500,200,8000,"[(512, 384), (512, 384), (512, 384), (512, 384), (512, 384), (512, 384), (512, 384), (512, 384), (512, 384), (512, 384), (512, 384), (512, 384), (512, 384), (512, 384), (512, 384), (512, 384), (512, 384), (512, 384), (512, 384), (512, 384), (512, 384), (512, 384), (512, 384), (512, 384), (512, 384), (512, 384), (512, 384), (512, 383), (519, 361), (527, 343), (538, 324), (549, 298), (584, 213), (603, 170), (621, 125)]",292.82376365850723,"[4, 3, 1, 5, 2, 6, 9, 8, 7]","(0, 0.25)",ENG010B,ENG,B,Chinese,Mon Nov  5 17:16:25 2018,Mouse
2,0,2,0,22,2,2,1,495,405,90,136,0,500,200,8000,"[(512, 384), (512, 384), (512, 384), (512, 384), (512, 384), (512, 384), (512, 384), (512, 384), (512, 384), (512, 384), (512, 384), (512, 384), (512, 384), (512, 384), (512, 384), (512, 384), (512, 384), (512, 384), (512, 384), (512, 384), (512, 384), (512, 384), (512, 384), (512, 384), (512, 384), (512, 384), (512, 384), (512, 384), (512, 384), (512, 384), (512, 384), (512, 384), (512, 384), (512, 384), (512, 384), (512, 384), (512, 384), (512, 384), (512, 384), (512, 384), (511, 384), (507, 384), (501, 385), (493, 386), (474, 386), (444, 386), (368, 387), (327, 387), (274, 387), (224, 387)]",179.40319054877082,"[4, 3, 1, 5, 2, 6, 9, 8, 7]","(0, 0.25)",ENG010B,ENG,B,Chinese,Mon Nov  5 17:16:25 2018,Mouse
2,0,2,0,23,2,2,1,202,142,60,135,0,500,200,8000,"[(512, 384), (512, 384), (512, 384), (512, 384), (512, 384), (512, 384), (512, 384), (512, 384), (512, 384), (512, 384), (512, 384), (512, 384), (512, 384), (512, 384), (510, 385), (493, 385), (457, 385), (379, 385), (340, 385), (298, 382), (236, 376)]",181.66028236898282,"[4, 3, 1, 5, 2, 6, 9, 8, 7]","(0, 0.25)",ENG010B,ENG,B,Chinese,Mon Nov  5 17:16:25 2018,Mouse
2,0,2,0,24,9,9,1,814,734,80,134,0,500,200,8000,"[(512, 384), (512, 384), (512, 384), (512, 384), (512, 384), (512, 384), (512, 384), (512, 384), (512, 384), (512, 384), (512, 384), (512, 384), (512, 384), (512, 384), (512, 384), (512, 384), (512, 384), (512, 384), (512, 384), (512, 384), (512, 384), (512, 384), (512, 384), (512, 384), (512, 384), (512, 384), (512, 384), (512, 384), (512, 384), (512, 384), (512, 384), (512, 384), (512, 384), (512, 384), (512, 384), (512, 384), (512, 384), (512, 384), (512, 384), (512, 384), (512, 384), (512, 384), (512, 384), (512, 384), (512, 384), (512, 384), (512, 384), (512, 384), (512, 384), (512, 384), (512, 384), (512, 384), (512, 384), (512, 384), (512, 384), (512, 384), (512, 384), (512, 384), (512, 384), (512, 384), (512, 384), (512, 384), (512, 384), (512, 384), (512, 384), (512, 384), (512, 384), (512, 384), (512, 384), (512, 384), (512, 384), (512, 384), (512, 384), (512, 379), (511, 369), (510, 346), (510, 329), (510, 307), (508, 270), (499, 201), (494, 166), (491, 131)]",265.2551007945435,"[4, 3, 1, 5, 2, 6, 9, 8, 7]","(0, 0.25)",ENG010B,ENG,B,Chinese,Mon Nov  5 17:16:25 2018,Mouse
2,0,2,0,25,5,5,1,1242,1142,100,133,0,500,200,8000,"[(512, 384), (512, 384), (512, 384), (512, 384), (512, 384), (512, 384), (512, 384), (512, 384), (512, 384), (512, 384), (512, 384), (512, 384), (512, 384), (512, 384), (512, 384), (512, 384), (512, 384), (512, 384), (512, 384), (512, 384), (512, 384), (512, 384), (512, 384), (512, 384), (512, 384), (512, 384), (512, 384), (512, 384), (512, 384), (512, 384), (512, 384), (512, 384), (512, 384), (512, 384), (512, 384), (512, 384), (512, 384), (512, 384), (512, 384), (512, 384), (512, 384), (512, 384), (512, 384), (512, 384), (512, 384), (512, 384), (512, 384), (512, 384), (512, 384), (512, 384), (512, 384), (512, 384), (512, 384), (512, 384), (512, 384), (512, 384), (512, 384), (512, 384), (512, 384), (512, 384), (512, 384), (512, 384), (512, 384), (512, 384), (512, 384), (512, 384), (512, 384), (512, 384), (512, 384), (512, 384), (512, 384), (512, 384), (512, 384), (512, 384), (512, 384), (512, 384), (512, 384), (512, 384), (512, 384), (512, 384), (512, 384), (512, 384), (512, 384), (512, 384), (512, 384), (512, 384), (512, 384), (512, 384), (512, 384), (512, 384), (512, 384), (512, 384), (512, 384), (512, 384), (512, 384), (512, 384), (512, 384), (512, 384), (512, 384), (512, 384), (512, 384), (512, 384), (512, 384), (512, 384), (512, 384), (512, 384), (512, 384), (512, 384), (512, 384), (512, 384), (512, 384), (512, 384), (512, 384), (512, 384), (512, 385), (511, 387), (506, 391), (499, 401), (469, 424), (448, 441), (427, 460), (406, 480), (366, 533), (344, 564), (329, 584)]",132.45851346021522,"[4, 3, 1, 5, 2, 6, 9, 8, 7]","(0, 0.25)",ENG010B,ENG,B,Chinese,Mon Nov  5 17:16:25 2018,Mouse
2,0,2,0,26,6,7,0,-1032,952,80,132,0,500,200,8000,"[(512, 384), (512, 384), (512, 384), (512, 384), (512, 384), (512, 384), (512, 384), (512, 384), (512, 384), (512, 384), (512, 384), (512, 384), (512, 384), (512, 384), (512, 384), (512, 384), (512, 384), (512, 384), (512, 384), (512, 384), (512, 384), (512, 384), (512, 384), (512, 384), (512, 384), (512, 384), (512, 384), (512, 384), (512, 384), (512, 384), (512, 384), (512, 384), (512, 384), (512, 384), (512, 384), (512, 384), (512, 384), (512, 384), (512, 384), (512, 384), (512, 384), (512, 384), (512, 384), (512, 384), (512, 384), (512, 384), (512, 384), (512, 384), (512, 384), (512, 384), (512, 384), (512, 384), (512, 384), (512, 384), (512, 384), (512, 384), (512, 384), (512, 384), (512, 384), (512, 384), (512, 384), (512, 384), (512, 384), (512, 384), (512, 384), (512, 384), (512, 384), (512, 384), (512, 384), (512, 384), (512, 384), (512, 384), (512, 384), (512, 384), (512, 384), (512, 384), (512, 384), (512, 384), (512, 384), (512, 384), (512, 384), (512, 384), (512, 384), (512, 384), (512, 384), (512, 384), (512, 384), (512, 384), (512, 384), (512, 384), (512, 384), (512, 384), (512, 384), (512, 384), (512, 384), (512, 383), (513, 380), (520, 375), (563, 360), (585, 352), (604, 344), (627, 333), (712, 300), (762, 284)]",338.1985905136482,"[4, 3, 1, 5, 2, 6, 9, 8, 7]","(0, 0.25)",ENG010B,ENG,B,Chinese,Mon Nov  5 17:16:25 2018,Mouse
2,0,2,0,27,2,2,1,263,193,70,133,0,500,200,8000,"[(512, 384), (512, 384), (512, 384), (512, 384), (512, 384), (512, 384), (512, 384), (512, 384), (512, 384), (512, 384), (512, 384), (512, 384), (512, 384), (512, 384), (512, 384), (512, 384), (512, 384), (512, 384), (512, 384), (510, 384), (507, 384), (501, 386), (491, 389), (433, 396), (380, 400), (323, 408), (261, 416)]",172.7345531001609,"[4, 3, 1, 5, 2, 6, 9, 8, 7]","(0, 0.25)",ENG010B,ENG,B,Chinese,Mon Nov  5 17:16:25 2018,Mouse
2,0,2,0,28,4,4,1,651,571,80,133,0,500,200,8000,"[(512, 384), (512, 384), (512, 384), (512, 384), (512, 384), (512, 384), (512, 384), (512, 384), (512, 384), (512, 384), (512, 384), (512, 384), (512, 384), (512, 384), (512, 384), (512, 384), (512, 384), (512, 384), (512, 384), (512, 384), (512, 384), (512, 384), (512, 384), (512, 384), (512, 384), (512, 384), (512, 384), (512, 384), (512, 384), (512, 384), (512, 384), (512, 384), (512, 384), (512, 384), (512, 384), (512, 384), (512, 384), (512, 384), (512, 384), (512, 384), (512, 384), (512, 384), (512, 384), (512, 384), (512, 384), (512, 384), (512, 384), (512, 384), (512, 384), (512, 384), (512, 384), (512, 384), (512, 384), (512, 384), (512, 384), (512, 384), (512, 384), (513, 383), (522, 385), (538, 396), (562, 408), (584, 421), (643, 464), (674, 486), (715, 511), (753, 530)]",31.207863671388246,"[4, 3, 1, 5, 2, 6, 9, 8, 7]","(0, 0.25)",ENG010B,ENG,B,Chinese,Mon Nov  5 17:16:25 2018,Mouse
2,0,2,0,29,3,4,0,-596,556,40,132,0,500,200,8000,"[(512, 384), (512, 384), (512, 384), (512, 384), (512, 384), (512, 384), (512, 384), (512, 384), (512, 384), (512, 384), (512, 384), (512, 384), (512, 384), (512, 384), (512, 384), (512, 384), (512, 384), (512, 384), (512, 384), (512, 384), (512, 384), (512, 384), (512, 384), (512, 384), (512, 384), (512, 384), (512, 384), (512, 384), (512, 384), (512, 384), (512, 384), (512, 384), (512, 384), (512, 384), (512, 384), (512, 384), (512, 384), (512, 384), (512, 384), (512, 384), (512, 384), (512, 384), (512, 384), (512, 384), (512, 384), (512, 384), (512, 384), (512, 384), (512, 384), (512, 384), (512, 384), (512, 384), (512, 384), (512, 384), (512, 384), (517, 384), (567, 390), (628, 409), (686, 426), (839, 479)]",16.19963125318429,"[4, 3, 1, 5, 2, 6, 9, 8, 7]","(0, 0.25)",ENG010B,ENG,B,Chinese,Mon Nov  5 17:16:25 2018,Mouse
2,0,2,0,30,6,4,0,-1064,1024,40,133,0,500,200,8000,"[(512, 384), (512, 384), (512, 384), (512, 384), (512, 384), (512, 384), (512, 384), (512, 384), (512, 384), (512, 384), (512, 384), (512, 384), (512, 384), (512, 384), (512, 384), (512, 384), (512, 384), (512, 384), (512, 384), (512, 384), (512, 384), (512, 384), (512, 384), (512, 384), (512, 384), (512, 384), (512, 384), (512, 384), (512, 384), (512, 384), (512, 384), (512, 384), (512, 384), (512, 384), (512, 384), (512, 384), (512, 384), (512, 384), (512, 384), (512, 384), (512, 384), (512, 384), (512, 384), (512, 384), (512, 384), (512, 384), (512, 384), (512, 384), (512, 384), (512, 384), (512, 384), (512, 384), (512, 384), (512, 384), (512, 384), (512, 384), (512, 384), (512, 384), (512, 384), (512, 384), (512, 384), (512, 384), (512, 384), (512, 384), (512, 384), (512, 384), (512, 384), (512, 384), (512, 384), (512, 384), (512, 384), (512, 384), (512, 384), (512, 384), (512, 384), (512, 384), (512, 384), (512, 384), (512, 384), (512, 384), (512, 384), (512, 384), (512, 384), (512, 384), (512, 384), (512, 384), (512, 384), (512, 384), (512, 384), (512, 384), (512, 384), (512, 384), (512, 384), (512, 384), (512, 384), (512, 384), (512, 384), (512, 384), (512, 384), (512, 384), (512, 384), (512, 384), (522, 385), (592, 415), (637, 434), (691, 455), (749, 472)]",20.37036510267009,"[4, 3, 1, 5, 2, 6, 9, 8, 7]","(0, 0.25)",ENG010B,ENG,B,Chinese,Mon Nov  5 17:16:25 2018,Mouse
2,0,2,0,31,6,6,1,734,684,50,134,0,500,200,8000,"[(512, 384), (512, 384), (512, 384), (512, 384), (512, 384), (512, 384), (512, 384), (512, 384), (512, 384), (512, 384), (512, 384), (512, 384), (512, 384), (512, 384), (512, 384), (512, 384), (512, 384), (512, 384), (512, 384), (512, 384), (512, 384), (512, 384), (512, 384), (512, 384), (512, 384), (512, 384), (512, 384), (512, 384), (512, 384), (512, 384), (512, 384), (512, 384), (512, 384), (512, 384), (512, 384), (512, 384), (512, 384), (512, 384), (512, 384), (512, 384), (512, 384), (512, 384), (512, 384), (512, 384), (512, 384), (512, 384), (512, 384), (512, 384), (512, 384), (512, 384), (512, 384), (512, 384), (512, 384), (512, 384), (512, 384), (512, 384), (512, 384), (512, 384), (512, 384), (512, 384), (512, 384), (512, 384), (512, 384), (512, 384), (512, 384), (512, 384), (512, 384), (512, 384), (492, 365), (474, 347), (453, 321), (426, 294), (354, 232), (309, 198)]",222.49766354864732,"[4, 3, 1, 5, 2, 6, 9, 8, 7]","(0, 0.25)",ENG010B,ENG,B,Chinese,Mon Nov  5 17:16:25 2018,Mouse
2,0,2,0,32,2,2,1,952,892,60,134,0,500,200,8000,"[(512, 384), (512, 384), (512, 384), (512, 384), (512, 384), (512, 384), (512, 384), (512, 384), (512, 384), (512, 384), (512, 384), (512, 384), (512, 384), (512, 384), (512, 384), (512, 384), (512, 384), (512, 384), (512, 384), (512, 384), (512, 384), (512, 384), (512, 384), (512, 384), (512, 384), (512, 384), (512, 384), (512, 384), (512, 384), (512, 384), (512, 384), (512, 384), (512, 384), (512, 384), (512, 384), (512, 384), (512, 384), (512, 384), (512, 384), (512, 384), (512, 384), (512, 384), (512, 384), (512, 384), (512, 384), (512, 384), (512, 384), (512, 384), (512, 384), (512, 384), (512, 384), (512, 384), (512, 384), (512, 384), (512, 384), (512, 384), (512, 384), (512, 384), (512, 384), (512, 384), (512, 384), (512, 384), (512, 384), (512, 384), (512, 384), (512, 384), (512, 384), (512, 384), (512, 384), (512, 384), (512, 384), (512, 384), (512, 384), (512, 384), (512, 384), (512, 384), (512, 384), (512, 384), (512, 384), (512, 384), (512, 384), (512, 384), (512, 384), (512, 384), (512, 384), (512, 384), (512, 384), (512, 384), (512, 384), (511, 383), (496, 383), (421, 383), (380, 383), (332, 381), (279, 381), (123, 373)]",181.61975749725528,"[4, 3, 1, 5, 2, 6, 9, 8, 7]","(0, 0.25)",ENG010B,ENG,B,Chinese,Mon Nov  5 17:16:25 2018,Mouse
2,0,2,0,33,1,1,1,327,247,80,133,0,500,200,8000,"[(512, 384), (512, 384), (512, 384), (512, 384), (512, 384), (512, 384), (512, 384), (512, 384), (512, 384), (512, 384), (512, 384), (512, 384), (512, 384), (512, 384), (512, 384), (512, 384), (512, 384), (512, 384), (512, 384), (512, 384), (512, 384), (512, 384), (512, 384), (512, 384), (510, 391), (504, 405), (501, 422), (484, 465), (476, 493), (468, 521), (461, 556), (451, 613), (448, 636)]",104.2500326978036,"[4, 3, 1, 5, 2, 6, 9, 8, 7]","(0, 0.25)",ENG010B,ENG,B,Chinese,Mon Nov  5 17:16:25 2018,Mouse
2,0,2,0,34,4,4,1,521,461,60,132,0,500,200,8000,"[(512, 384), (512, 384), (512, 384), (512, 384), (512, 384), (512, 384), (512, 384), (512, 384), (512, 384), (512, 384), (512, 384), (512, 384), (512, 384), (512, 384), (512, 384), (512, 384), (512, 384), (512, 384), (512, 384), (512, 384), (512, 384), (512, 384), (512, 384), (512, 384), (512, 384), (512, 384), (512, 384), (512, 384), (512, 384), (512, 384), (512, 384), (512, 384), (512, 384), (512, 384), (512, 384), (512, 384), (512, 384), (512, 384), (512, 384), (512, 384), (512, 384), (512, 384), (512, 384), (512, 384), (512, 384), (512, 384), (512, 383), (527, 384), (543, 391), (575, 405), (622, 419), (664, 434), (762, 468)]",18.572348510407302,"[4, 3, 1, 5, 2, 6, 9, 8, 7]","(0, 0.25)",ENG010B,ENG,B,Chinese,Mon Nov  5 17:16:25 2018,Mouse
2,0,2,0,35,4,4,1,622,572,50,131,0,500,200,8000,"[(512, 384), (512, 384), (512, 384), (512, 384), (512, 384), (512, 384), (512, 384), (512, 384), (512, 384), (512, 384), (512, 384), (512, 384), (512, 384), (512, 384), (512, 384), (512, 384), (512, 384), (512, 384), (512, 384), (512, 384), (512, 384), (512, 384), (512, 384), (512, 384), (512, 384), (512, 384), (512, 384), (512, 384), (512, 384), (512, 384), (512, 384), (512, 384), (512, 384), (512, 384), (512, 384), (512, 384), (512, 384), (512, 384), (512, 384), (512, 384), (512, 384), (512, 384), (512, 384), (512, 384), (512, 384), (512, 384), (512, 384), (512, 384), (512, 384), (512, 384), (512, 384), (512, 384), (512, 384), (512, 384), (512, 384), (512, 384), (512, 384), (520, 384), (540, 391), (621, 413), (663, 429), (712, 441), (770, 457)]",15.798634491586991,"[4, 3, 1, 5, 2, 6, 9, 8, 7]","(0, 0.25)",ENG010B,ENG,B,Chinese,Mon Nov  5 17:16:25 2018,Mouse
2,0,2,0,36,3,4,0,-332,292,40,130,0,500,200,8000,"[(512, 384), (512, 384), (512, 384), (512, 384), (512, 384), (512, 384), (512, 384), (512, 384), (512, 384), (512, 384), (512, 384), (512, 384), (512, 384), (512, 384), (512, 384), (512, 384), (512, 384), (512, 384), (512, 384), (512, 384), (512, 384), (512, 384), (512, 384), (512, 384), (512, 384), (512, 384), (512, 384), (512, 384), (512, 384), (522, 383), (547, 398), (591, 422), (651, 454), (783, 515)]",25.798882857203257,"[4, 3, 1, 5, 2, 6, 9, 8, 7]","(0, 0.25)",ENG010B,ENG,B,Chinese,Mon Nov  5 17:16:25 2018,Mouse
2,0,2,0,37,9,8,0,-1042,962,80,131,0,500,200,8000,"[(512, 384), (512, 384), (512, 384), (512, 384), (512, 384), (512, 384), (512, 384), (512, 384), (512, 384), (512, 384), (512, 384), (512, 384), (512, 384), (512, 384), (512, 384), (512, 384), (512, 384), (512, 384), (512, 384), (512, 384), (512, 384), (512, 384), (512, 384), (512, 384), (512, 384), (512, 384), (512, 384), (512, 384), (512, 384), (512, 384), (512, 384), (512, 384), (512, 384), (512, 384), (512, 384), (512, 384), (512, 384), (512, 384), (512, 384), (512, 384), (512, 384), (512, 384), (512, 384), (512, 384), (512, 384), (512, 384), (512, 384), (512, 384), (512, 384), (512, 384), (512, 384), (512, 384), (512, 384), (512, 384), (512, 384), (512, 384), (512, 384), (512, 384), (512, 384), (512, 384), (512, 384), (512, 384), (512, 384), (512, 384), (512, 384), (512, 384), (512, 384), (512, 384), (512, 384), (512, 384), (512, 384), (512, 384), (512, 384), (512, 384), (512, 384), (512, 384), (512, 384), (512, 384), (512, 384), (512, 384), (512, 384), (512, 384), (512, 384), (512, 384), (512, 384), (512, 384), (512, 384), (512, 384), (512, 384), (512, 384), (512, 384), (512, 384), (512, 384), (512, 384), (512, 384), (512, 384), (512, 383), (512, 379), (515, 370), (519, 364), (542, 336), (562, 305), (588, 269), (614, 225), (665, 130)]",301.06317074031244,"[4, 3, 1, 5, 2, 6, 9, 8, 7]","(0, 0.25)",ENG010B,ENG,B,Chinese,Mon Nov  5 17:16:25 2018,Mouse
2,0,2,0,38,9,4,0,-266,216,50,132,0,500,200,8000,"[(512, 384), (512, 384), (512, 384), (512, 384), (512, 384), (512, 384), (512, 384), (512, 384), (512, 384), (512, 384), (512, 384), (512, 384), (512, 384), (512, 384), (512, 384), (512, 384), (512, 384), (512, 384), (512, 384), (512, 384), (512, 384), (513, 384), (533, 397), (631, 445), (682, 470), (733, 493), (787, 517)]",25.810099240572782,"[4, 3, 1, 5, 2, 6, 9, 8, 7]","(0, 0.25)",ENG010B,ENG,B,Chinese,Mon Nov  5 17:16:25 2018,Mouse
2,0,2,0,39,5,6,0,-453,393,60,133,0,500,200,8000,"[(512, 384), (512, 384), (512, 384), (512, 384), (512, 384), (512, 384), (512, 384), (512, 384), (512, 384), (512, 384), (512, 384), (512, 384), (512, 384), (512, 384), (512, 384), (512, 384), (512, 384), (512, 384), (512, 384), (512, 384), (512, 384), (512, 384), (512, 384), (512, 384), (512, 384), (512, 384), (512, 384), (512, 384), (512, 384), (512, 384), (512, 384), (512, 384), (512, 384), (512, 384), (512, 384), (512, 384), (512, 384), (512, 384), (512, 384), (512, 383), (511, 382), (489, 353), (468, 334), (432, 305), (383, 263), (270, 186)]",219.28940686250033,"[4, 3, 1, 5, 2, 6, 9, 8, 7]","(0, 0.25)",ENG010B,ENG,B,Chinese,Mon Nov  5 17:16:25 2018,Mouse
2,0,2,0,40,7,4,0,-1941,1111,830,134,0,500,200,8000,"[(512, 384), (512, 384), (512, 384), (512, 384), (512, 384), (512, 384), (512, 384), (512, 384), (512, 384), (512, 384), (512, 384), (512, 384), (512, 384), (512, 384), (512, 384), (512, 384), (512, 384), (512, 384), (512, 384), (512, 384), (512, 384), (512, 384), (512, 384), (512, 384), (512, 384), (512, 384), (512, 384), (512, 384), (512, 384), (512, 384), (512, 384), (512, 384), (512, 384), (512, 384), (512, 384), (512, 384), (512, 384), (512, 384), (512, 384), (512, 384), (512, 384), (512, 384), (512, 384), (512, 384), (512, 384), (512, 384), (512, 384), (512, 384), (512, 384), (512, 384), (512, 384), (512, 384), (512, 384), (512, 384), (512, 384), (512, 384), (512, 384), (512, 384), (512, 384), (512, 384), (512, 384), (512, 384), (512, 384), (512, 384), (512, 384), (512, 384), (512, 384), (512, 384), (512, 384), (512, 384), (512, 384), (512, 384), (512, 384), (512, 384), (512, 384), (512, 384), (512, 384), (512, 384), (512, 384), (512, 384), (512, 384), (512, 384), (512, 384), (512, 384), (512, 384), (512, 384), (512, 384), (512, 384), (512, 384), (512, 384), (512, 384), (512, 384), (512, 384), (512, 384), (512, 384), (512, 384), (512, 384), (512, 384), (512, 384), (512, 384), (512, 384), (512, 384), (512, 384), (512, 384), (512, 384), (512, 384), (512, 384), (512, 384), (512, 384), (512, 384), (512, 384), (515, 383), (518, 383), (518, 383), (519, 383), (519, 382), (519, 382), (519, 382), (519, 382), (519, 382), (519, 382), (519, 382), (519, 382), (519, 382), (519, 382), (519, 382), (519, 382), (519, 382), (519, 382), (519, 382), (519, 382), (519, 382), (519, 382), (519, 382), (519, 382), (519, 382), (519, 382), (519, 382), (519, 382), (519, 382), (519, 382), (519, 382), (519, 382), (519, 382), (519, 382), (519, 382), (519, 382), (519, 382), (519, 382), (519, 382), (519, 382), (519, 382), (519, 382), (519, 382), (519, 382), (519, 382), (519, 382), (519, 382), (519, 382), (519, 382), (519, 382), (519, 382), (519, 382), (519, 382), (519, 382), (519, 382), (519, 382), (519, 382), (519, 382), (519, 382), (519, 382), (519, 382), (519, 382), (519, 382), (519, 382), (519, 382), (519, 382), (519, 382), (519, 382), (519, 382), (519, 382), (519, 382), (519, 382), (519, 382), (519, 382), (519, 382), (519, 382), (519, 382), (521, 382), (531, 382), (554, 382), (588, 396), (665, 425), (711, 445), (753, 463)]",18.149186706045477,"[4, 3, 1, 5, 2, 6, 9, 8, 7]","(0, 0.25)",ENG010B,ENG,B,Chinese,Mon Nov  5 17:16:25 2018,Mouse
2,0,2,0,41,4,4,1,272,222,50,135,0,500,200,8000,"[(512, 384), (512, 384), (512, 384), (512, 384), (512, 384), (512, 384), (512, 384), (512, 384), (512, 384), (512, 384), (512, 384), (512, 384), (512, 384), (512, 384), (512, 384), (512, 384), (512, 384), (512, 384), (512, 384), (512, 384), (512, 384), (512, 384), (584, 402), (612, 410), (645, 421), (674, 431), (744, 454), (778, 467)]",17.32949208391207,"[4, 3, 1, 5, 2, 6, 9, 8, 7]","(0, 0.25)",ENG010B,ENG,B,Chinese,Mon Nov  5 17:16:25 2018,Mouse
2,0,2,0,42,8,8,1,516,176,340,135,0,500,200,8000,"[(512, 384), (512, 384), (512, 384), (512, 384), (512, 384), (512, 384), (512, 384), (512, 384), (512, 384), (512, 384), (512, 384), (512, 384), (512, 384), (512, 384), (512, 384), (512, 384), (512, 384), (509, 382), (505, 379), (499, 374), (496, 373), (492, 368), (480, 359), (479, 357), (477, 355), (476, 352), (472, 343), (470, 337), (470, 332), (470, 328), (468, 316), (468, 312), (468, 308), (468, 303), (469, 293), (471, 289), (474, 284), (477, 278), (485, 267), (489, 261), (497, 253), (506, 244), (526, 229), (536, 222), (545, 216), (553, 208), (570, 195), (579, 187), (586, 179), (595, 173), (609, 161), (614, 155)]",294.0089010984997,"[4, 3, 1, 5, 2, 6, 9, 8, 7]","(0, 0.25)",ENG010B,ENG,B,Chinese,Mon Nov  5 17:16:25 2018,Mouse
2,0,2,0,43,5,5,1,882,762,120,134,0,500,200,8000,"[(512, 384), (512, 384), (512, 384), (512, 384), (512, 384), (512, 384), (512, 384), (512, 384), (512, 384), (512, 384), (512, 384), (512, 384), (512, 384), (512, 384), (512, 384), (512, 384), (512, 384), (512, 384), (512, 384), (512, 384), (512, 384), (512, 384), (512, 384), (512, 384), (512, 384), (512, 384), (512, 384), (512, 384), (512, 384), (512, 384), (512, 384), (512, 384), (512, 384), (512, 384), (512, 384), (512, 384), (512, 384), (512, 384), (512, 384), (512, 384), (512, 384), (512, 384), (512, 384), (512, 384), (512, 384), (512, 384), (512, 384), (512, 384), (512, 384), (512, 384), (512, 384), (512, 384), (512, 384), (512, 384), (512, 384), (512, 384), (512, 384), (512, 384), (512, 384), (512, 384), (512, 384), (512, 384), (512, 384), (512, 384), (512, 384), (512, 384), (512, 384), (512, 384), (512, 384), (512, 384), (512, 384), (512, 384), (512, 384), (512, 384), (512, 384), (512, 384), (510, 385), (508, 387), (507, 387), (496, 396), (490, 400), (485, 404), (476, 410), (459, 425), (446, 440), (425, 461), (399, 486), (346, 533), (314, 561)]",138.2052159310135,"[4, 3, 1, 5, 2, 6, 9, 8, 7]","(0, 0.25)",ENG010B,ENG,B,Chinese,Mon Nov  5 17:16:25 2018,Mouse
2,0,2,0,44,4,4,1,1425,194,1231,133,0,500,200,8000,"[(512, 384), (512, 384), (512, 384), (512, 384), (512, 384), (512, 384), (512, 384), (512, 384), (512, 384), (512, 384), (512, 384), (512, 384), (512, 384), (512, 384), (512, 384), (512, 384), (512, 384), (512, 384), (512, 384), (518, 381), (528, 377), (540, 372), (568, 364), (585, 359), (603, 352), (623, 350), (658, 344), (672, 341), (682, 341), (687, 340), (695, 340), (700, 340), (703, 340), (708, 342), (714, 346), (718, 349), (723, 354), (725, 356), (731, 361), (734, 364), (734, 365), (735, 366), (735, 368), (735, 369), (735, 370), (735, 371), (735, 372), (735, 372), (735, 372), (735, 373), (735, 373), (735, 373), (734, 373), (732, 373), (726, 374), (723, 374), (720, 374), (719, 374), (715, 374), (713, 374), (712, 374), (711, 374), (710, 374), (709, 374), (709, 374), (709, 374), (709, 374), (709, 374), (709, 374), (709, 374), (709, 374), (708, 375), (708, 375), (708, 376), (707, 379), (707, 382), (707, 384), (707, 386), (707, 390), (708, 392), (711, 395), (712, 396), (716, 400), (718, 403), (721, 403), (723, 404), (726, 406), (728, 407), (729, 407), (730, 408), (732, 409), (733, 410), (733, 410), (734, 410), (735, 410), (736, 410), (736, 410), (738, 410), (740, 412), (741, 412), (742, 412), (742, 412), (746, 413), (746, 413), (746, 413), (748, 414), (748, 414), (749, 414), (749, 414), (751, 414), (752, 415), (753, 415), (753, 415), (753, 415), (753, 415), (753, 415), (753, 415), (753, 415), (753, 415), (753, 415), (753, 415), (753, 415), (753, 415), (753, 415), (753, 415), (753, 415), (753, 415), (753, 415), (753, 415), (753, 415), (753, 415), (753, 415), (753, 415), (753, 415), (753, 415), (753, 415), (753, 415), (753, 415), (753, 415), (753, 415), (754, 415), (757, 416), (761, 416)]",7.3231728990536045,"[4, 3, 1, 5, 2, 6, 9, 8, 7]","(0, 0.25)",ENG010B,ENG,B,Chinese,Mon Nov  5 17:16:25 2018,Mouse
2,0,2,0,45,8,4,0,-1102,902,200,132,0,500,200,8000,"[(512, 384), (512, 384), (512, 384), (512, 384), (512, 384), (512, 384), (512, 384), (512, 384), (512, 384), (512, 384), (512, 384), (512, 384), (512, 384), (512, 384), (512, 384), (512, 384), (512, 384), (512, 384), (512, 384), (512, 384), (512, 384), (512, 384), (512, 384), (512, 384), (512, 384), (512, 384), (512, 384), (512, 384), (512, 384), (512, 384), (512, 384), (512, 384), (512, 384), (512, 384), (512, 384), (512, 384), (512, 384), (512, 384), (512, 384), (512, 384), (512, 384), (512, 384), (512, 384), (512, 384), (512, 384), (512, 384), (512, 384), (512, 384), (512, 384), (512, 384), (512, 384), (512, 384), (512, 384), (512, 384), (512, 384), (512, 384), (512, 384), (512, 384), (512, 384), (512, 384), (512, 384), (512, 384), (512, 384), (512, 384), (512, 384), (512, 384), (512, 384), (512, 384), (512, 384), (512, 384), (512, 384), (512, 384), (512, 384), (512, 384), (512, 384), (512, 384), (512, 384), (512, 384), (512, 384), (512, 384), (512, 384), (512, 384), (512, 384), (512, 384), (512, 384), (512, 384), (512, 384), (512, 384), (512, 384), (512, 384), (518, 384), (524, 387), (545, 393), (557, 395), (568, 397), (579, 400), (606, 407), (617, 410), (628, 411), (638, 412), (656, 416), (664, 419), (672, 421), (680, 422), (696, 428), (704, 432), (714, 435), (724, 437), (741, 443), (751, 447), (758, 449)]",14.800870058321966,"[4, 3, 1, 5, 2, 6, 9, 8, 7]","(0, 0.25)",ENG010B,ENG,B,Chinese,Mon Nov  5 17:16:25 2018,Mouse
2,0,2,0,46,9,4,0,-1181,1141,40,133,0,500,200,8000,"[(512, 384), (512, 384), (512, 384), (512, 384), (512, 384), (512, 384), (512, 384), (512, 384), (512, 384), (512, 384), (512, 384), (512, 384), (512, 384), (512, 384), (512, 384), (512, 384), (512, 384), (512, 384), (512, 384), (512, 384), (512, 384), (512, 384), (512, 384), (512, 384), (512, 384), (512, 384), (512, 384), (512, 384), (512, 384), (512, 384), (512, 384), (512, 384), (512, 384), (512, 384), (512, 384), (512, 384), (512, 384), (512, 384), (512, 384), (512, 384), (512, 384), (512, 384), (512, 384), (512, 384), (512, 384), (512, 384), (512, 384), (512, 384), (512, 384), (512, 384), (512, 384), (512, 384), (512, 384), (512, 384), (512, 384), (512, 384), (512, 384), (512, 384), (512, 384), (512, 384), (512, 384), (512, 384), (512, 384), (512, 384), (512, 384), (512, 384), (512, 384), (512, 384), (512, 384), (512, 384), (512, 384), (512, 384), (512, 384), (512, 384), (512, 384), (512, 384), (512, 384), (512, 384), (512, 384), (512, 384), (512, 384), (512, 384), (512, 384), (512, 384), (512, 384), (512, 384), (512, 384), (512, 384), (512, 384), (512, 384), (512, 384), (512, 384), (512, 384), (512, 384), (512, 384), (512, 384), (512, 384), (512, 384), (512, 384), (512, 384), (512, 384), (512, 384), (512, 384), (512, 384), (512, 384), (512, 384), (512, 384), (512, 384), (512, 384), (512, 384), (512, 384), (512, 384), (512, 384), (512, 384), (527, 385), (574, 398), (627, 415), (674, 426), (780, 459)]",15.634316245562054,"[4, 3, 1, 5, 2, 6, 9, 8, 7]","(0, 0.25)",ENG010B,ENG,B,Chinese,Mon Nov  5 17:16:25 2018,Mouse
2,0,2,0,47,9,4,0,-1011,801,210,134,0,500,200,8000,"[(512, 384), (512, 384), (512, 384), (512, 384), (512, 384), (512, 384), (512, 384), (512, 384), (512, 384), (512, 384), (512, 384), (512, 384), (512, 384), (512, 384), (512, 384), (512, 384), (512, 384), (512, 384), (512, 384), (512, 384), (512, 384), (512, 384), (512, 384), (512, 384), (512, 384), (512, 384), (512, 384), (512, 384), (512, 384), (512, 384), (512, 384), (512, 384), (512, 384), (512, 384), (512, 384), (512, 384), (512, 384), (512, 384), (512, 384), (512, 384), (512, 384), (512, 384), (512, 384), (512, 384), (512, 384), (512, 384), (512, 384), (512, 384), (512, 384), (512, 384), (512, 384), (512, 384), (512, 384), (512, 384), (512, 384), (512, 384), (512, 384), (512, 384), (512, 384), (512, 384), (512, 384), (512, 384), (512, 384), (512, 384), (512, 384), (512, 384), (512, 384), (512, 384), (512, 384), (512, 384), (512, 384), (512, 384), (512, 384), (512, 384), (512, 384), (512, 384), (512, 384), (512, 384), (512, 384), (512, 384), (514, 384), (517, 384), (520, 386), (523, 387), (529, 390), (531, 390), (536, 392), (539, 392), (554, 398), (563, 401), (573, 405), (584, 407), (609, 414), (623, 418), (640, 424), (652, 426), (681, 435), (692, 438), (706, 442), (721, 447), (746, 454), (760, 458)]",16.61442448912639,"[4, 3, 1, 5, 2, 6, 9, 8, 7]","(0, 0.25)",ENG010B,ENG,B,Chinese,Mon Nov  5 17:16:25 2018,Mouse
2,0,2,0,48,9,9,1,632,312,320,135,0,500,200,8000,"[(512, 384), (512, 384), (512, 384), (512, 384), (512, 384), (512, 384), (512, 384), (512, 384), (512, 384), (512, 384), (512, 384), (512, 384), (512, 384), (512, 384), (512, 384), (512, 384), (512, 384), (512, 384), (512, 384), (512, 384), (512, 384), (512, 384), (512, 384), (512, 384), (512, 384), (512, 384), (512, 384), (512, 384), (512, 384), (512, 384), (512, 384), (512, 380), (512, 379), (514, 375), (514, 374), (514, 371), (514, 370), (515, 369), (515, 367), (515, 360), (515, 356), (515, 352), (518, 342), (520, 323), (521, 313), (522, 306), (522, 299), (522, 285), (522, 278), (522, 273), (522, 266), (522, 252), (522, 243), (522, 234), (522, 225), (522, 207), (522, 199), (519, 189), (518, 183), (517, 170), (516, 161), (514, 151), (513, 139), (510, 122)]",269.56263613247927,"[4, 3, 1, 5, 2, 6, 9, 8, 7]","(0, 0.25)",ENG010B,ENG,B,Chinese,Mon Nov  5 17:16:25 2018,Mouse
2,0,2,0,49,8,4,0,-832,802,30,135,0,500,200,8000,"[(512, 384), (512, 384), (512, 384), (512, 384), (512, 384), (512, 384), (512, 384), (512, 384), (512, 384), (512, 384), (512, 384), (512, 384), (512, 384), (512, 384), (512, 384), (512, 384), (512, 384), (512, 384), (512, 384), (512, 384), (512, 384), (512, 384), (512, 384), (512, 384), (512, 384), (512, 384), (512, 384), (512, 384), (512, 384), (512, 384), (512, 384), (512, 384), (512, 384), (512, 384), (512, 384), (512, 384), (512, 384), (512, 384), (512, 384), (512, 384), (512, 384), (512, 384), (512, 384), (512, 384), (512, 384), (512, 384), (512, 384), (512, 384), (512, 384), (512, 384), (512, 384), (512, 384), (512, 384), (512, 384), (512, 384), (512, 384), (512, 384), (512, 384), (512, 384), (512, 384), (512, 384), (512, 384), (512, 384), (512, 384), (512, 384), (512, 384), (512, 384), (512, 384), (512, 384), (512, 384), (512, 384), (512, 384), (512, 384), (512, 384), (512, 384), (512, 384), (512, 384), (512, 384), (512, 384), (512, 384), (599, 407), (655, 426), (716, 445), (776, 460)]",16.059987307160643,"[4, 3, 1, 5, 2, 6, 9, 8, 7]","(0, 0.25)",ENG010B,ENG,B,Chinese,Mon Nov  5 17:16:25 2018,Mouse
2,0,2,0,50,7,1,0,-703,653,50,136,0,500,200,8000,"[(512, 384), (512, 384), (512, 384), (512, 384), (512, 384), (512, 384), (512, 384), (512, 384), (512, 384), (512, 384), (512, 384), (512, 384), (512, 384), (512, 384), (512, 384), (512, 384), (512, 384), (512, 384), (512, 384), (512, 384), (512, 384), (512, 384), (512, 384), (512, 384), (512, 384), (512, 384), (512, 384), (512, 384), (512, 384), (512, 384), (512, 384), (512, 384), (512, 384), (512, 384), (512, 384), (512, 384), (512, 384), (512, 384), (512, 384), (512, 384), (512, 384), (512, 384), (512, 384), (512, 384), (512, 384), (512, 384), (512, 384), (512, 384), (512, 384), (512, 384), (512, 384), (512, 384), (512, 384), (512, 384), (512, 384), (512, 384), (512, 384), (512, 384), (512, 384), (512, 384), (512, 384), (512, 384), (512, 384), (512, 384), (512, 384), (509, 404), (502, 442), (498, 487), (491, 530), (480, 608), (474, 649)]",98.16036953544675,"[4, 3, 1, 5, 2, 6, 9, 8, 7]","(0, 0.25)",ENG010B,ENG,B,Chinese,Mon Nov  5 17:16:25 2018,Mouse
2,0,2,0,51,3,4,0,-2111,232,1879,137,0,500,200,8000,"[(512, 384), (512, 384), (512, 384), (512, 384), (512, 384), (512, 384), (512, 384), (512, 384), (512, 384), (512, 384), (512, 384), (512, 384), (512, 384), (512, 384), (512, 384), (512, 384), (512, 384), (512, 384), (512, 384), (512, 384), (512, 384), (512, 384), (512, 384), (513, 383), (513, 379), (513, 373), (513, 369), (513, 364), (513, 362), (513, 361), (513, 361), (513, 361), (513, 361), (513, 361), (513, 361), (513, 361), (513, 361), (513, 361), (513, 361), (513, 361), (513, 361), (513, 361), (513, 361), (513, 361), (513, 361), (513, 361), (513, 361), (513, 361), (513, 361), (513, 361), (513, 361), (513, 361), (513, 361), (513, 361), (513, 361), (513, 360), (513, 360), (514, 359), (514, 359), (515, 359), (515, 358), (516, 358), (516, 358), (518, 357), (520, 356), (522, 355), (526, 353), (538, 347), (548, 344), (560, 338), (571, 333), (594, 324), (601, 319), (612, 313), (627, 307), (647, 302), (657, 299), (661, 298), (667, 297), (674, 295), (677, 295), (678, 294), (682, 294), (688, 294), (690, 294), (694, 293), (697, 293), (699, 293), (699, 293), (699, 293), (699, 293), (699, 293), (699, 293), (699, 293), (699, 293), (699, 293), (699, 293), (699, 293), (699, 293), (699, 293), (699, 293), (699, 293), (699, 293), (699, 293), (699, 293), (699, 293), (699, 293), (699, 293), (699, 293), (699, 293), (699, 293), (699, 293), (699, 293), (699, 293), (699, 293), (699, 293), (699, 293), (699, 293), (699, 293), (699, 293), (699, 293), (699, 293), (699, 293), (699, 293), (701, 293), (702, 294), (702, 294), (704, 295), (704, 298), (705, 298), (705, 300), (705, 306), (706, 312), (708, 318), (708, 325), (708, 340), (708, 348), (708, 355), (708, 364), (708, 379), (708, 386), (708, 393), (708, 400), (708, 410), (708, 413), (708, 417), (708, 421), (708, 428), (711, 433), (713, 437), (715, 439), (722, 446), (723, 448), (725, 448), (726, 450), (729, 451), (729, 451), (730, 452), (730, 452), (730, 452), (730, 452), (730, 452), (730, 452), (730, 452), (730, 452), (730, 452), (730, 452), (732, 452), (732, 452), (732, 452), (732, 452), (732, 452), (732, 452), (732, 452), (732, 452), (733, 452), (735, 452), (735, 452), (738, 452), (739, 452), (740, 452), (740, 452), (741, 452), (741, 452), (741, 452), (742, 452), (742, 452), (742, 452), (742, 452), (742, 452), (742, 452), (742, 452), (742, 452), (742, 452), (742, 452), (742, 452), (742, 452), (742, 452), (742, 452), (742, 452), (742, 452), (742, 452), (742, 452), (742, 452), (742, 452), (742, 452), (742, 452), (745, 452), (747, 452), (748, 452), (749, 452), (752, 454)]",16.26020470831196,"[4, 3, 1, 5, 2, 6, 9, 8, 7]","(0, 0.25)",ENG010B,ENG,B,Chinese,Mon Nov  5 17:16:25 2018,Mouse
2,0,2,0,52,5,9,0,-632,72,560,138,0,500,200,8000,"[(512, 384), (512, 384), (512, 384), (512, 384), (512, 384), (512, 384), (512, 384), (512, 383), (512, 383), (512, 383), (512, 383), (512, 383), (512, 383), (512, 382), (512, 381), (512, 381), (512, 381), (512, 381), (512, 381), (512, 381), (512, 381), (512, 381), (512, 381), (512, 381), (512, 381), (512, 381), (512, 381), (512, 381), (512, 381), (512, 381), (512, 381), (512, 381), (512, 381), (512, 381), (512, 381), (512, 381), (512, 381), (512, 381), (512, 381), (512, 381), (512, 381), (512, 381), (512, 381), (512, 381), (512, 379), (512, 377), (511, 375), (510, 369), (506, 357), (505, 351), (503, 344), (501, 337), (494, 317), (491, 306), (486, 293), (484, 279), (478, 248), (473, 236), (472, 223), (468, 208), (466, 180), (465, 167), (465, 152), (465, 138)]",259.1835976646469,"[4, 3, 1, 5, 2, 6, 9, 8, 7]","(0, 0.25)",ENG010B,ENG,B,Chinese,Mon Nov  5 17:16:25 2018,Mouse
2,0,2,0,53,3,9,0,-276,46,230,139,0,500,200,8000,"[(512, 384), (512, 384), (512, 384), (512, 384), (512, 375), (514, 369), (515, 362), (515, 351), (517, 329), (520, 314), (520, 303), (520, 292), (520, 272), (520, 265), (520, 256), (520, 249), (520, 231), (520, 223), (520, 216), (520, 209), (520, 190), (520, 182), (520, 171), (520, 162), (520, 143), (520, 143), (520, 136), (520, 128)]",271.78991060824603,"[4, 3, 1, 5, 2, 6, 9, 8, 7]","(0, 0.25)",ENG010B,ENG,B,Chinese,Mon Nov  5 17:16:25 2018,Mouse
2,0,2,0,54,4,4,1,572,532,40,140,0,500,200,8000,"[(512, 384), (512, 384), (512, 384), (512, 384), (512, 384), (512, 384), (512, 384), (512, 384), (512, 384), (512, 384), (512, 384), (512, 384), (512, 384), (512, 384), (512, 384), (512, 384), (512, 384), (512, 384), (512, 384), (512, 384), (512, 384), (512, 384), (512, 384), (512, 384), (512, 384), (512, 384), (512, 384), (512, 384), (512, 384), (512, 384), (512, 384), (512, 384), (512, 384), (512, 384), (512, 384), (512, 384), (512, 384), (512, 384), (512, 384), (512, 384), (512, 384), (512, 384), (512, 384), (512, 384), (512, 384), (512, 384), (512, 384), (512, 384), (512, 384), (512, 384), (512, 384), (512, 384), (512, 384), (546, 404), (581, 421), (621, 436), (666, 453), (766, 485)]",21.68463835825747,"[4, 3, 1, 5, 2, 6, 9, 8, 7]","(0, 0.25)",ENG010B,ENG,B,Chinese,Mon Nov  5 17:16:25 2018,Mouse
2,0,2,0,55,1,1,1,432,122,310,140,0,500,200,8000,"[(512, 384), (512, 384), (512, 384), (512, 384), (512, 384), (512, 384), (512, 384), (512, 384), (512, 384), (512, 384), (512, 384), (512, 384), (512, 387), (505, 390), (499, 391), (493, 394), (485, 398), (479, 401), (477, 403), (475, 403), (469, 408), (468, 411), (467, 414), (465, 417), (463, 428), (461, 433), (461, 440), (460, 446), (460, 456), (460, 464), (460, 472), (460, 482), (460, 508), (460, 521), (460, 538), (460, 550), (461, 577), (464, 587), (467, 596), (468, 603), (472, 613), (472, 619), (473, 624), (473, 631)]",98.9726266148964,"[4, 3, 1, 5, 2, 6, 9, 8, 7]","(0, 0.25)",ENG010B,ENG,B,Chinese,Mon Nov  5 17:16:25 2018,Mouse
2,0,2,0,56,9,9,1,353,83,270,139,0,500,200,8000,"[(512, 384), (512, 384), (512, 384), (512, 384), (512, 384), (512, 384), (512, 384), (512, 384), (513, 381), (517, 368), (518, 361), (521, 356), (522, 350), (524, 339), (525, 336), (526, 332), (526, 329), (526, 323), (526, 322), (526, 319), (526, 317), (526, 309), (526, 305), (526, 302), (526, 298), (525, 283), (523, 275), (520, 265), (515, 253), (507, 228), (502, 214), (497, 197), (493, 183), (487, 151), (485, 140), (484, 129)]",263.73380190152074,"[4, 3, 1, 5, 2, 6, 9, 8, 7]","(0, 0.25)",ENG010B,ENG,B,Chinese,Mon Nov  5 17:16:25 2018,Mouse
2,0,2,0,57,6,6,1,411,261,150,138,0,500,200,8000,"[(512, 384), (512, 384), (512, 384), (512, 384), (512, 384), (512, 384), (512, 384), (512, 384), (512, 384), (512, 384), (512, 384), (512, 384), (512, 384), (512, 384), (512, 384), (512, 384), (512, 384), (512, 384), (512, 384), (512, 384), (512, 384), (512, 384), (512, 384), (512, 384), (512, 384), (512, 384), (511, 384), (510, 384), (507, 384), (504, 385), (502, 385), (498, 385), (492, 385), (479, 378), (450, 358), (439, 350), (423, 338), (405, 323), (365, 290), (338, 267), (323, 253), (305, 238)]",215.19585296562641,"[4, 3, 1, 5, 2, 6, 9, 8, 7]","(0, 0.25)",ENG010B,ENG,B,Chinese,Mon Nov  5 17:16:25 2018,Mouse
2,0,2,0,58,2,2,1,679,619,60,137,0,500,200,8000,"[(512, 384), (512, 384), (512, 384), (512, 384), (512, 384), (512, 384), (512, 384), (512, 384), (512, 384), (512, 384), (512, 384), (512, 384), (512, 384), (512, 384), (512, 384), (512, 384), (512, 384), (512, 384), (512, 384), (512, 384), (512, 384), (512, 384), (512, 384), (512, 384), (512, 384), (512, 384), (512, 384), (512, 384), (512, 384), (512, 384), (512, 384), (512, 384), (512, 384), (512, 384), (512, 384), (512, 384), (512, 384), (512, 384), (512, 384), (512, 384), (512, 384), (512, 384), (512, 384), (512, 384), (512, 384), (512, 384), (512, 384), (512, 384), (512, 384), (512, 384), (512, 384), (512, 384), (512, 384), (512, 384), (512, 384), (512, 384), (512, 384), (512, 384), (512, 384), (512, 384), (512, 384), (501, 384), (485, 384), (435, 384), (396, 384), (368, 384), (329, 384), (259, 384)]",180.0,"[4, 3, 1, 5, 2, 6, 9, 8, 7]","(0, 0.25)",ENG010B,ENG,B,Chinese,Mon Nov  5 17:16:25 2018,Mouse
2,0,2,0,59,5,6,0,-1852,1532,320,136,0,500,200,8000,"[(512, 384), (512, 384), (512, 384), (512, 384), (512, 384), (512, 384), (512, 384), (512, 384), (512, 384), (512, 384), (512, 384), (512, 384), (512, 384), (512, 384), (512, 384), (512, 384), (512, 384), (512, 384), (512, 384), (512, 384), (512, 384), (512, 384), (512, 384), (512, 384), (512, 384), (512, 384), (512, 384), (512, 384), (512, 384), (512, 384), (512, 384), (512, 384), (512, 384), (512, 384), (512, 384), (512, 384), (512, 384), (512, 384), (512, 384), (512, 384), (512, 384), (512, 384), (512, 384), (512, 384), (512, 384), (512, 384), (512, 384), (512, 384), (512, 384), (512, 384), (512, 384), (512, 384), (512, 384), (512, 384), (512, 384), (512, 384), (512, 384), (512, 384), (512, 384), (512, 384), (512, 384), (512, 384), (512, 384), (512, 384), (512, 384), (512, 384), (512, 384), (512, 384), (512, 384), (512, 384), (512, 384), (512, 384), (512, 384), (512, 384), (512, 384), (512, 384), (512, 384), (512, 384), (512, 384), (512, 384), (512, 384), (512, 384), (512, 384), (512, 384), (512, 384), (512, 384), (512, 384), (512, 384), (512, 384), (512, 384), (512, 384), (512, 384), (512, 384), (512, 384), (512, 384), (512, 384), (512, 384), (512, 384), (512, 384), (512, 384), (512, 384), (512, 384), (512, 384), (512, 384), (512, 384), (512, 384), (512, 384), (512, 384), (512, 384), (512, 384), (512, 384), (512, 384), (512, 384), (512, 384), (512, 384), (512, 384), (512, 384), (512, 384), (512, 384), (512, 384), (512, 384), (512, 384), (512, 384), (512, 384), (512, 384), (512, 384), (512, 384), (512, 384), (512, 384), (512, 384), (512, 384), (512, 384), (512, 384), (512, 384), (512, 384), (512, 384), (512, 384), (512, 384), (512, 384), (512, 384), (512, 384), (512, 384), (512, 384), (512, 384), (512, 384), (512, 384), (512, 384), (512, 384), (512, 384), (512, 384), (512, 384), (512, 384), (512, 384), (511, 384), (510, 383), (509, 382), (509, 382), (509, 382), (509, 382), (509, 382), (509, 382), (509, 382), (509, 382), (509, 382), (509, 382), (509, 382), (509, 382), (509, 382), (509, 382), (509, 382), (509, 382), (509, 382), (509, 382), (509, 382), (508, 382), (507, 382), (500, 377), (493, 371), (484, 364), (471, 356), (448, 336), (428, 321), (405, 305), (384, 287), (330, 243), (301, 220)]",217.85617965455864,"[4, 3, 1, 5, 2, 6, 9, 8, 7]","(0, 0.25)",ENG010B,ENG,B,Chinese,Mon Nov  5 17:16:25 2018,Mouse
2,0,2,0,60,7,7,1,431,341,90,137,0,500,200,8000,"[(512, 384), (512, 384), (512, 384), (512, 384), (512, 384), (512, 384), (512, 384), (512, 384), (512, 384), (512, 384), (512, 384), (512, 384), (512, 384), (512, 384), (512, 384), (512, 384), (512, 384), (512, 384), (512, 384), (512, 384), (512, 384), (512, 384), (512, 384), (512, 384), (512, 384), (512, 384), (512, 384), (512, 384), (512, 384), (512, 384), (512, 384), (512, 384), (512, 384), (512, 384), (515, 383), (531, 380), (543, 376), (561, 374), (582, 371), (635, 363), (672, 360), (707, 353), (747, 349), (829, 332)]",350.68428898558005,"[4, 3, 1, 5, 2, 6, 9, 8, 7]","(0, 0.25)",ENG010B,ENG,B,Chinese,Mon Nov  5 17:16:25 2018,Mouse
2,0,2,0,61,8,2,0,-442,372,70,137,0,500,200,8000,"[(512, 384), (512, 384), (512, 384), (512, 384), (512, 384), (512, 384), (512, 384), (512, 384), (512, 384), (512, 384), (512, 384), (512, 384), (512, 384), (512, 384), (512, 384), (512, 384), (512, 384), (512, 384), (512, 384), (512, 384), (512, 384), (512, 384), (512, 384), (512, 384), (512, 384), (512, 384), (512, 384), (512, 384), (512, 384), (512, 384), (512, 384), (512, 384), (512, 384), (512, 384), (512, 384), (512, 384), (512, 384), (507, 384), (493, 384), (476, 386), (415, 395), (380, 398), (335, 404), (293, 406), (210, 415)]",174.13917245226403,"[4, 3, 1, 5, 2, 6, 9, 8, 7]","(0, 0.25)",ENG010B,ENG,B,Chinese,Mon Nov  5 17:16:25 2018,Mouse
2,0,2,0,62,4,4,1,243,143,100,138,0,500,200,8000,"[(512, 384), (512, 384), (512, 384), (512, 384), (512, 384), (512, 384), (512, 384), (512, 384), (512, 384), (512, 384), (512, 384), (512, 384), (512, 384), (512, 384), (514, 384), (521, 386), (546, 391), (560, 394), (575, 400), (592, 406), (640, 420), (667, 425), (697, 432), (736, 445), (788, 455)]",14.42633636465372,"[4, 3, 1, 5, 2, 6, 9, 8, 7]","(0, 0.25)",ENG010B,ENG,B,Chinese,Mon Nov  5 17:16:25 2018,Mouse
2,0,2,0,63,4,4,1,321,161,160,138,0,500,200,8000,"[(512, 384), (512, 384), (512, 384), (512, 384), (512, 384), (512, 384), (512, 384), (512, 384), (512, 384), (512, 384), (512, 384), (512, 384), (512, 384), (512, 384), (512, 384), (512, 384), (520, 387), (530, 391), (539, 394), (550, 397), (587, 409), (604, 414), (626, 418), (643, 424), (659, 433), (670, 435), (681, 439), (691, 441), (713, 446), (722, 449), (733, 450), (741, 452), (758, 456)]",16.31385242626056,"[4, 3, 1, 5, 2, 6, 9, 8, 7]","(0, 0.25)",ENG010B,ENG,B,Chinese,Mon Nov  5 17:16:25 2018,Mouse
2,0,2,0,64,3,3,1,432,362,70,137,0,500,200,8000,"[(512, 384), (512, 384), (512, 384), (512, 384), (512, 384), (512, 384), (512, 384), (512, 384), (512, 384), (512, 384), (512, 384), (512, 384), (512, 384), (512, 384), (512, 384), (512, 384), (512, 384), (512, 384), (512, 384), (512, 384), (512, 384), (512, 384), (512, 384), (512, 384), (512, 384), (512, 384), (512, 384), (512, 384), (512, 384), (512, 384), (512, 384), (512, 384), (512, 384), (512, 384), (512, 384), (512, 384), (523, 409), (537, 431), (555, 461), (569, 479), (613, 526), (638, 553), (660, 574), (684, 598)]",51.20982614718626,"[4, 3, 1, 5, 2, 6, 9, 8, 7]","(0, 0.25)",ENG010B,ENG,B,Chinese,Mon Nov  5 17:16:25 2018,Mouse
2,0,2,0,65,9,3,0,-781,641,140,136,0,500,200,8000,"[(512, 384), (512, 384), (512, 384), (512, 384), (512, 384), (512, 384), (512, 384), (512, 384), (512, 384), (512, 384), (512, 384), (512, 384), (512, 384), (512, 384), (512, 384), (512, 384), (512, 384), (512, 384), (512, 384), (512, 384), (512, 384), (512, 384), (512, 384), (512, 384), (512, 384), (512, 384), (512, 384), (512, 384), (512, 384), (512, 384), (512, 384), (512, 384), (512, 384), (512, 384), (512, 384), (512, 384), (512, 384), (512, 384), (512, 384), (512, 384), (512, 384), (512, 384), (512, 384), (512, 384), (512, 384), (512, 384), (512, 384), (512, 384), (512, 384), (512, 384), (512, 384), (512, 384), (512, 384), (512, 384), (512, 384), (512, 384), (512, 384), (512, 384), (512, 384), (512, 384), (512, 384), (512, 384), (512, 384), (512, 384), (513, 385), (517, 403), (519, 411), (523, 420), (526, 434), (537, 469), (543, 487), (549, 504), (555, 519), (567, 546), (570, 556), (576, 569), (579, 580), (591, 609), (599, 623)]",69.99764733185947,"[4, 3, 1, 5, 2, 6, 9, 8, 7]","(0, 0.25)",ENG010B,ENG,B,Chinese,Mon Nov  5 17:16:25 2018,Mouse
2,0,2,0,66,5,5,1,472,432,40,137,0,500,200,8000,"[(512, 384), (512, 384), (512, 384), (512, 384), (512, 384), (512, 384), (512, 384), (512, 384), (512, 384), (512, 384), (512, 384), (512, 384), (512, 384), (512, 384), (512, 384), (512, 384), (512, 384), (512, 384), (512, 384), (512, 384), (512, 384), (512, 384), (512, 384), (512, 384), (512, 384), (512, 384), (512, 384), (512, 384), (512, 384), (512, 384), (512, 384), (512, 384), (512, 384), (512, 384), (512, 384), (512, 384), (512, 384), (512, 384), (512, 384), (512, 384), (512, 384), (512, 384), (512, 384), (490, 397), (458, 409), (408, 427), (365, 445), (256, 484)]",158.66314070819433,"[4, 3, 1, 5, 2, 6, 9, 8, 7]","(0, 0.25)",ENG010B,ENG,B,Chinese,Mon Nov  5 17:16:25 2018,Mouse
2,0,2,0,67,1,1,1,602,362,240,137,0,500,200,8000,"[(512, 384), (512, 384), (512, 384), (512, 384), (512, 384), (512, 384), (512, 384), (512, 384), (512, 384), (512, 384), (512, 384), (512, 384), (512, 384), (512, 384), (512, 384), (512, 384), (512, 384), (512, 384), (512, 384), (512, 384), (512, 384), (512, 384), (512, 384), (512, 384), (512, 384), (512, 384), (512, 384), (512, 384), (512, 384), (512, 384), (512, 384), (512, 384), (512, 384), (512, 384), (512, 384), (512, 384), (513, 386), (522, 394), (528, 402), (534, 409), (539, 420), (540, 429), (542, 438), (543, 451), (545, 477), (545, 490), (545, 501), (545, 513), (545, 534), (543, 544), (541, 552), (541, 556), (538, 571), (538, 580), (537, 590), (537, 598), (532, 611), (530, 618), (527, 623), (523, 629), (519, 637)]",88.41514560694948,"[4, 3, 1, 5, 2, 6, 9, 8, 7]","(0, 0.25)",ENG010B,ENG,B,Chinese,Mon Nov  5 17:16:25 2018,Mouse
2,0,2,0,68,6,5,0,-783,653,130,136,0,500,200,8000,"[(512, 384), (512, 384), (512, 384), (512, 384), (512, 384), (512, 384), (512, 384), (512, 384), (512, 384), (512, 384), (512, 384), (512, 384), (512, 384), (512, 384), (512, 384), (512, 384), (512, 384), (512, 384), (512, 384), (512, 384), (512, 384), (512, 384), (512, 384), (512, 384), (512, 384), (512, 384), (512, 384), (512, 384), (512, 384), (512, 384), (512, 384), (512, 384), (512, 384), (512, 384), (512, 384), (512, 384), (512, 384), (512, 384), (512, 384), (512, 384), (512, 384), (512, 384), (512, 384), (512, 384), (512, 384), (512, 384), (512, 384), (512, 384), (512, 384), (512, 384), (512, 384), (512, 384), (512, 384), (512, 384), (512, 384), (512, 384), (512, 384), (512, 384), (512, 384), (512, 384), (512, 384), (512, 384), (512, 384), (512, 384), (512, 384), (510, 384), (503, 395), (491, 407), (459, 434), (442, 446), (427, 456), (409, 466), (379, 483), (365, 493), (353, 501), (342, 508), (327, 525), (321, 534), (309, 543)]",141.9301334966632,"[4, 3, 1, 5, 2, 6, 9, 8, 7]","(0, 0.25)",ENG010B,ENG,B,Chinese,Mon Nov  5 17:16:25 2018,Mouse
2,0,2,0,69,8,9,0,-552,482,70,137,0,500,200,8000,"[(512, 384), (512, 384), (512, 384), (512, 384), (512, 384), (512, 384), (512, 384), (512, 384), (512, 384), (512, 384), (512, 384), (512, 384), (512, 384), (512, 384), (512, 384), (512, 384), (512, 384), (512, 384), (512, 384), (512, 384), (512, 384), (512, 384), (512, 384), (512, 384), (512, 384), (512, 384), (512, 384), (512, 384), (512, 384), (512, 384), (512, 384), (512, 384), (512, 384), (512, 384), (512, 384), (512, 384), (512, 384), (512, 384), (512, 384), (512, 384), (512, 384), (512, 384), (512, 384), (512, 384), (512, 384), (512, 384), (512, 384), (512, 384), (512, 377), (512, 367), (506, 333), (504, 302), (501, 262), (493, 222), (488, 150), (485, 119)]",264.18239208310723,"[4, 3, 1, 5, 2, 6, 9, 8, 7]","(0, 0.25)",ENG010B,ENG,B,Chinese,Mon Nov  5 17:16:25 2018,Mouse
2,0,2,0,70,8,8,1,321,151,170,138,0,500,200,8000,"[(512, 384), (512, 384), (512, 384), (512, 384), (512, 384), (512, 384), (512, 384), (512, 384), (512, 384), (512, 384), (512, 384), (512, 384), (512, 384), (512, 384), (512, 384), (512, 378), (514, 371), (520, 365), (523, 360), (531, 349), (535, 344), (540, 337), (544, 330), (553, 312), (561, 300), (568, 291), (574, 280), (586, 254), (595, 233), (601, 218), (612, 194), (627, 163), (632, 153)]",297.45099777093225,"[4, 3, 1, 5, 2, 6, 9, 8, 7]","(0, 0.25)",ENG010B,ENG,B,Chinese,Mon Nov  5 17:16:25 2018,Mouse
2,0,2,0,71,8,8,1,282,12,270,138,0,500,200,8000,"[(512, 384), (514, 380), (516, 372), (523, 359), (525, 353), (527, 346), (529, 340), (535, 328), (537, 322), (540, 315), (542, 308), (549, 294), (552, 287), (556, 281), (560, 275), (568, 261), (572, 255), (573, 249), (577, 244), (583, 230), (586, 222), (591, 212), (594, 206), (603, 190), (607, 184), (612, 178), (614, 173), (622, 163), (627, 156)]",296.7657360989894,"[4, 3, 1, 5, 2, 6, 9, 8, 7]","(0, 0.25)",ENG010B,ENG,B,Chinese,Mon Nov  5 17:16:25 2018,Mouse
2,0,2,0,72,1,4,0,-338,248,90,137,0,500,200,8000,"[(512, 384), (512, 384), (512, 384), (512, 384), (512, 384), (512, 384), (512, 384), (512, 384), (512, 384), (512, 384), (512, 384), (512, 384), (512, 384), (512, 384), (512, 384), (512, 384), (512, 384), (512, 384), (512, 384), (512, 384), (512, 384), (512, 384), (512, 384), (512, 384), (513, 384), (513, 384), (513, 384), (513, 384), (515, 384), (589, 412), (637, 430), (681, 443), (726, 459), (833, 502)]",20.183490644484547,"[4, 3, 1, 5, 2, 6, 9, 8, 7]","(0, 0.25)",ENG010B,ENG,B,Chinese,Mon Nov  5 17:16:25 2018,Mouse
2,0,2,0,73,2,2,1,288,208,80,138,0,500,200,8000,"[(512, 384), (512, 384), (512, 384), (512, 384), (512, 384), (512, 384), (512, 384), (512, 384), (512, 384), (512, 384), (512, 384), (512, 384), (512, 384), (512, 384), (512, 384), (512, 384), (512, 384), (512, 384), (512, 384), (512, 384), (509, 384), (500, 384), (475, 384), (456, 382), (436, 380), (410, 380), (333, 380), (294, 380), (241, 380)]",180.8456327557196,"[4, 3, 1, 5, 2, 6, 9, 8, 7]","(0, 0.25)",ENG010B,ENG,B,Chinese,Mon Nov  5 17:16:25 2018,Mouse
2,0,2,0,74,8,8,1,357,157,200,138,0,500,200,8000,"[(512, 384), (512, 384), (512, 384), (512, 384), (512, 384), (512, 384), (512, 384), (512, 384), (512, 384), (512, 384), (512, 384), (512, 384), (512, 384), (512, 384), (512, 384), (514, 383), (517, 379), (523, 372), (527, 368), (532, 362), (537, 357), (545, 346), (549, 341), (554, 335), (559, 330), (574, 308), (582, 297), (590, 286), (598, 275), (616, 250), (625, 239), (635, 228), (644, 216), (655, 199), (660, 191), (665, 180)]",306.86989764584405,"[4, 3, 1, 5, 2, 6, 9, 8, 7]","(0, 0.25)",ENG010B,ENG,B,Chinese,Mon Nov  5 17:16:25 2018,Mouse
2,0,2,0,75,3,3,1,335,285,50,137,0,500,200,8000,"[(512, 384), (512, 384), (512, 384), (512, 384), (512, 384), (512, 384), (512, 384), (512, 384), (512, 384), (512, 384), (512, 384), (512, 384), (512, 384), (512, 384), (512, 384), (512, 384), (512, 384), (512, 384), (512, 384), (512, 384), (512, 384), (512, 384), (512, 384), (512, 384), (512, 384), (512, 384), (512, 384), (512, 384), (515, 389), (569, 437), (599, 469), (626, 495), (654, 525), (694, 588)]",48.262033477396756,"[4, 3, 1, 5, 2, 6, 9, 8, 7]","(0, 0.25)",ENG010B,ENG,B,Chinese,Mon Nov  5 17:16:25 2018,Mouse
2,0,2,0,76,2,2,1,331,261,70,136,0,500,200,8000,"[(512, 384), (512, 384), (512, 384), (512, 384), (512, 384), (512, 384), (512, 384), (512, 384), (512, 384), (512, 384), (512, 384), (512, 384), (512, 384), (512, 384), (512, 384), (512, 384), (512, 384), (512, 384), (512, 384), (512, 384), (512, 384), (512, 384), (512, 384), (512, 384), (512, 384), (512, 384), (511, 383), (502, 380), (462, 376), (437, 376), (409, 376), (376, 376), (290, 376), (245, 376)]",181.7162140194864,"[4, 3, 1, 5, 2, 6, 9, 8, 7]","(0, 0.25)",ENG010B,ENG,B,Chinese,Mon Nov  5 17:16:25 2018,Mouse
2,0,2,0,77,7,7,1,324,224,100,135,0,500,200,8000,"[(512, 384), (512, 384), (512, 384), (512, 384), (512, 384), (512, 384), (512, 384), (512, 384), (512, 384), (512, 384), (512, 384), (512, 384), (512, 384), (512, 384), (512, 384), (512, 384), (512, 384), (512, 384), (512, 384), (512, 384), (512, 384), (512, 384), (516, 384), (524, 380), (534, 377), (547, 370), (571, 357), (589, 349), (616, 338), (642, 324), (691, 307), (714, 298), (743, 286)]",337.01128319791934,"[4, 3, 1, 5, 2, 6, 9, 8, 7]","(0, 0.25)",ENG010B,ENG,B,Chinese,Mon Nov  5 17:16:25 2018,Mouse
2,0,2,0,78,2,7,0,-992,922,70,134,0,500,200,8000,"[(512, 384), (512, 384), (512, 384), (512, 384), (512, 384), (512, 384), (512, 384), (512, 384), (512, 384), (512, 384), (512, 384), (512, 384), (512, 384), (512, 384), (512, 384), (512, 384), (512, 384), (512, 384), (512, 384), (512, 384), (512, 384), (512, 384), (512, 384), (512, 384), (512, 384), (512, 384), (512, 384), (512, 384), (512, 384), (512, 384), (512, 384), (512, 384), (512, 384), (512, 384), (512, 384), (512, 384), (512, 384), (512, 384), (512, 384), (512, 384), (512, 384), (512, 384), (512, 384), (512, 384), (512, 384), (512, 384), (512, 384), (512, 384), (512, 384), (512, 384), (512, 384), (512, 384), (512, 384), (512, 384), (512, 384), (512, 384), (512, 384), (512, 384), (512, 384), (512, 384), (512, 384), (512, 384), (512, 384), (512, 384), (512, 384), (512, 384), (512, 384), (512, 384), (512, 384), (512, 384), (512, 384), (512, 384), (512, 384), (512, 384), (512, 384), (512, 384), (512, 384), (512, 384), (512, 384), (512, 384), (512, 384), (512, 384), (512, 384), (512, 384), (512, 384), (512, 384), (512, 384), (512, 384), (512, 384), (512, 384), (512, 384), (512, 384), (514, 383), (516, 382), (532, 376), (557, 366), (593, 355), (640, 343), (736, 301), (792, 284)]",340.3461759419467,"[4, 3, 1, 5, 2, 6, 9, 8, 7]","(0, 0.25)",ENG010B,ENG,B,Chinese,Mon Nov  5 17:16:25 2018,Mouse
2,0,2,0,79,9,4,0,-652,592,60,135,0,500,200,8000,"[(512, 384), (512, 384), (512, 384), (512, 384), (512, 384), (512, 384), (512, 384), (512, 384), (512, 384), (512, 384), (512, 384), (512, 384), (512, 384), (512, 384), (512, 384), (512, 384), (512, 384), (512, 384), (512, 384), (512, 384), (512, 384), (512, 384), (512, 384), (512, 384), (512, 384), (512, 384), (512, 384), (512, 384), (512, 384), (512, 384), (512, 384), (512, 384), (512, 384), (512, 384), (512, 384), (512, 384), (512, 384), (512, 384), (512, 384), (512, 384), (512, 384), (512, 384), (512, 384), (512, 384), (512, 384), (512, 384), (512, 384), (512, 384), (512, 384), (512, 384), (512, 384), (512, 384), (512, 384), (512, 384), (512, 384), (512, 384), (512, 384), (512, 384), (512, 384), (544, 397), (573, 409), (599, 417), (630, 429), (701, 456), (745, 468), (787, 479)]",19.057704510128328,"[4, 3, 1, 5, 2, 6, 9, 8, 7]","(0, 0.25)",ENG010B,ENG,B,Chinese,Mon Nov  5 17:16:25 2018,Mouse
2,0,2,0,80,8,8,1,514,424,90,136,0,500,200,8000,"[(512, 384), (512, 384), (512, 384), (512, 384), (512, 384), (512, 384), (512, 384), (512, 384), (512, 384), (512, 384), (512, 384), (512, 384), (512, 384), (512, 384), (512, 384), (512, 384), (512, 384), (512, 384), (512, 384), (512, 384), (512, 384), (512, 384), (512, 384), (512, 384), (512, 384), (512, 384), (512, 384), (512, 384), (512, 384), (512, 384), (512, 384), (512, 384), (512, 384), (512, 384), (512, 384), (512, 384), (512, 384), (512, 384), (512, 384), (512, 384), (512, 384), (512, 384), (515, 384), (520, 384), (527, 377), (544, 356), (559, 338), (578, 310), (602, 279), (640, 225), (658, 202), (676, 177)]",308.38874804327924,"[4, 3, 1, 5, 2, 6, 9, 8, 7]","(0, 0.25)",ENG010B,ENG,B,Chinese,Mon Nov  5 17:16:25 2018,Mouse
2,0,2,0,81,1,1,1,465,375,90,136,0,500,200,8000,"[(512, 384), (512, 384), (512, 384), (512, 384), (512, 384), (512, 384), (512, 384), (512, 384), (512, 384), (512, 384), (512, 384), (512, 384), (512, 384), (512, 384), (512, 384), (512, 384), (512, 384), (512, 384), (512, 384), (512, 384), (512, 384), (512, 384), (512, 384), (512, 384), (512, 384), (512, 384), (512, 384), (512, 384), (512, 384), (512, 384), (512, 384), (512, 384), (512, 384), (512, 384), (512, 384), (512, 384), (512, 384), (512, 386), (509, 398), (506, 410), (502, 426), (486, 474), (478, 499), (471, 537), (463, 571), (452, 625), (447, 649)]",103.78159723565363,"[4, 3, 1, 5, 2, 6, 9, 8, 7]","(0, 0.25)",ENG010B,ENG,B,Chinese,Mon Nov  5 17:16:25 2018,Mouse
2,0,2,0,82,6,6,1,571,501,70,135,0,500,200,8000,"[(512, 384), (512, 384), (512, 384), (512, 384), (512, 384), (512, 384), (512, 384), (512, 384), (512, 384), (512, 384), (512, 384), (512, 384), (512, 384), (512, 384), (512, 384), (512, 384), (512, 384), (512, 384), (512, 384), (512, 384), (512, 384), (512, 384), (512, 384), (512, 384), (512, 384), (512, 384), (512, 384), (512, 384), (512, 384), (512, 384), (512, 384), (512, 384), (512, 384), (512, 384), (512, 384), (512, 384), (512, 384), (512, 384), (512, 384), (512, 384), (512, 384), (512, 384), (512, 384), (512, 384), (512, 384), (512, 384), (512, 384), (512, 384), (512, 384), (512, 384), (511, 383), (483, 358), (468, 344), (444, 324), (421, 306), (366, 260), (330, 233), (294, 208)]",218.91530613473122,"[4, 3, 1, 5, 2, 6, 9, 8, 7]","(0, 0.25)",ENG010B,ENG,B,Chinese,Mon Nov  5 17:16:25 2018,Mouse
2,0,2,0,83,2,2,1,540,450,90,134,0,500,200,8000,"[(512, 384), (512, 384), (512, 384), (512, 384), (512, 384), (512, 384), (512, 384), (512, 384), (512, 384), (512, 384), (512, 384), (512, 384), (512, 384), (512, 384), (512, 384), (512, 384), (512, 384), (512, 384), (512, 384), (512, 384), (512, 384), (512, 384), (512, 384), (512, 384), (512, 384), (512, 384), (512, 384), (512, 384), (512, 384), (512, 384), (512, 384), (512, 384), (512, 384), (512, 384), (512, 384), (512, 384), (512, 384), (512, 384), (512, 384), (512, 384), (512, 384), (512, 384), (512, 384), (512, 384), (511, 384), (490, 384), (474, 384), (451, 384), (429, 384), (370, 384), (342, 384), (312, 384), (281, 384), (211, 385)]",179.80964927337024,"[4, 3, 1, 5, 2, 6, 9, 8, 7]","(0, 0.25)",ENG010B,ENG,B,Chinese,Mon Nov  5 17:16:25 2018,Mouse
2,0,2,0,84,4,4,1,554,444,110,133,0,500,200,8000,"[(512, 384), (512, 384), (512, 384), (512, 384), (512, 384), (512, 384), (512, 384), (512, 384), (512, 384), (512, 384), (512, 384), (512, 384), (512, 384), (512, 384), (512, 384), (512, 384), (512, 384), (512, 384), (512, 384), (512, 384), (512, 384), (512, 384), (512, 384), (512, 384), (512, 384), (512, 384), (512, 384), (512, 384), (512, 384), (512, 384), (512, 384), (512, 384), (512, 384), (512, 384), (512, 384), (512, 384), (512, 384), (512, 384), (512, 384), (512, 384), (512, 384), (512, 384), (512, 384), (512, 384), (514, 384), (517, 383), (521, 383), (529, 383), (538, 383), (552, 387), (573, 391), (635, 410), (673, 419), (707, 430), (746, 439), (852, 476)]",15.140983835076906,"[4, 3, 1, 5, 2, 6, 9, 8, 7]","(0, 0.25)",ENG010B,ENG,B,Chinese,Mon Nov  5 17:16:25 2018,Mouse
2,0,2,0,85,1,4,0,-232,172,60,132,0,500,200,8000,"[(512, 384), (512, 384), (512, 384), (512, 384), (512, 384), (512, 384), (512, 384), (512, 384), (512, 384), (512, 384), (512, 384), (512, 384), (512, 384), (512, 384), (512, 384), (512, 384), (512, 384), (520, 384), (533, 385), (554, 392), (636, 427), (681, 440), (736, 459), (792, 477)]",18.37353857900666,"[4, 3, 1, 5, 2, 6, 9, 8, 7]","(0, 0.25)",ENG010B,ENG,B,Chinese,Mon Nov  5 17:16:25 2018,Mouse
2,0,2,0,86,1,1,1,462,312,150,133,0,500,200,8000,"[(512, 384), (512, 384), (512, 384), (512, 384), (512, 384), (512, 384), (512, 384), (512, 384), (512, 384), (512, 384), (512, 384), (512, 384), (512, 384), (512, 384), (512, 384), (512, 384), (512, 384), (512, 384), (512, 384), (512, 384), (512, 384), (512, 384), (512, 384), (512, 384), (512, 384), (512, 384), (512, 384), (512, 384), (512, 384), (512, 384), (512, 384), (513, 385), (513, 410), (513, 430), (513, 453), (513, 472), (513, 504), (513, 519), (513, 533), (513, 547), (513, 572), (513, 580), (513, 590), (511, 598), (502, 621), (499, 633), (498, 643)]",93.09405805891711,"[4, 3, 1, 5, 2, 6, 9, 8, 7]","(0, 0.25)",ENG010B,ENG,B,Chinese,Mon Nov  5 17:16:25 2018,Mouse
2,0,2,0,87,7,2,0,-543,483,60,133,0,500,200,8000,"[(512, 384), (512, 384), (512, 384), (512, 384), (512, 384), (512, 384), (512, 384), (512, 384), (512, 384), (512, 384), (512, 384), (512, 384), (512, 384), (512, 384), (512, 384), (512, 384), (512, 384), (512, 384), (512, 384), (512, 384), (512, 384), (512, 384), (512, 384), (512, 384), (512, 384), (512, 384), (512, 384), (512, 384), (512, 384), (512, 384), (512, 384), (512, 384), (512, 384), (512, 384), (512, 384), (512, 384), (512, 384), (512, 384), (512, 384), (512, 384), (512, 384), (512, 384), (512, 384), (512, 384), (512, 384), (512, 384), (512, 384), (512, 384), (507, 384), (492, 384), (422, 376), (380, 374), (337, 371), (284, 367), (183, 365)]",183.30520361672734,"[4, 3, 1, 5, 2, 6, 9, 8, 7]","(0, 0.25)",ENG010B,ENG,B,Chinese,Mon Nov  5 17:16:25 2018,Mouse
2,0,2,0,88,4,4,1,282,232,50,134,0,500,200,8000,"[(512, 384), (512, 384), (512, 384), (512, 384), (512, 384), (512, 384), (512, 384), (512, 384), (512, 384), (512, 384), (512, 384), (512, 384), (512, 384), (512, 384), (512, 384), (512, 384), (512, 384), (512, 384), (512, 384), (512, 384), (512, 384), (512, 384), (512, 384), (514, 386), (565, 407), (618, 424), (663, 437), (718, 454), (835, 491)]",18.328451214131128,"[4, 3, 1, 5, 2, 6, 9, 8, 7]","(0, 0.25)",ENG010B,ENG,B,Chinese,Mon Nov  5 17:16:25 2018,Mouse
2,0,2,0,89,9,9,1,561,361,200,134,0,500,200,8000,"[(512, 384), (512, 384), (512, 384), (512, 384), (512, 384), (512, 384), (512, 384), (512, 384), (512, 384), (512, 384), (512, 384), (512, 384), (512, 384), (512, 384), (512, 384), (512, 384), (512, 384), (512, 384), (512, 384), (512, 384), (512, 384), (512, 384), (512, 384), (512, 384), (512, 384), (512, 384), (512, 384), (512, 384), (512, 384), (512, 384), (512, 384), (512, 384), (512, 384), (512, 384), (512, 384), (512, 384), (513, 383), (513, 378), (513, 373), (513, 366), (512, 346), (512, 336), (512, 325), (512, 316), (511, 305), (510, 297), (510, 289), (508, 279), (508, 252), (508, 240), (506, 229), (504, 216), (500, 190), (500, 178), (499, 164), (496, 153), (494, 134)]",265.8818102960112,"[4, 3, 1, 5, 2, 6, 9, 8, 7]","(0, 0.25)",ENG010B,ENG,B,Chinese,Mon Nov  5 17:16:25 2018,Mouse
2,0,2,0,90,7,8,0,-712,662,50,133,0,500,200,8000,"[(512, 384), (512, 384), (512, 384), (512, 384), (512, 384), (512, 384), (512, 384), (512, 384), (512, 384), (512, 384), (512, 384), (512, 384), (512, 384), (512, 384), (512, 384), (512, 384), (512, 384), (512, 384), (512, 384), (512, 384), (512, 384), (512, 384), (512, 384), (512, 384), (512, 384), (512, 384), (512, 384), (512, 384), (512, 384), (512, 384), (512, 384), (512, 384), (512, 384), (512, 384), (512, 384), (512, 384), (512, 384), (512, 384), (512, 384), (512, 384), (512, 384), (512, 384), (512, 384), (512, 384), (512, 384), (512, 384), (512, 384), (512, 384), (512, 384), (512, 384), (512, 384), (512, 384), (512, 384), (512, 384), (512, 384), (512, 384), (512, 384), (512, 384), (512, 384), (512, 384), (512, 384), (512, 384), (512, 384), (512, 384), (512, 384), (512, 384), (512, 377), (522, 360), (568, 293), (590, 249), (618, 208), (642, 164)]",300.579226872489,"[4, 3, 1, 5, 2, 6, 9, 8, 7]","(0, 0.25)",ENG010B,ENG,B,Chinese,Mon Nov  5 17:16:25 2018,Mouse
2,0,2,0,91,6,2,0,-662,612,50,134,0,500,200,8000,"[(512, 384), (512, 384), (512, 384), (512, 384), (512, 384), (512, 384), (512, 384), (512, 384), (512, 384), (512, 384), (512, 384), (512, 384), (512, 384), (512, 384), (512, 384), (512, 384), (512, 384), (512, 384), (512, 384), (512, 384), (512, 384), (512, 384), (512, 384), (512, 384), (512, 384), (512, 384), (512, 384), (512, 384), (512, 384), (512, 384), (512, 384), (512, 384), (512, 384), (512, 384), (512, 384), (512, 384), (512, 384), (512, 384), (512, 384), (512, 384), (512, 384), (512, 384), (512, 384), (512, 384), (512, 384), (512, 384), (512, 384), (512, 384), (512, 384), (512, 384), (512, 384), (512, 384), (512, 384), (512, 384), (512, 384), (512, 384), (512, 384), (512, 384), (512, 384), (512, 384), (512, 384), (502, 383), (481, 383), (436, 381), (393, 375), (282, 361), (209, 352)]",186.02869184557508,"[4, 3, 1, 5, 2, 6, 9, 8, 7]","(0, 0.25)",ENG010B,ENG,B,Chinese,Mon Nov  5 17:16:25 2018,Mouse
2,0,2,0,92,1,1,1,382,302,80,135,0,500,200,8000,"[(512, 384), (512, 384), (512, 384), (512, 384), (512, 384), (512, 384), (512, 384), (512, 384), (512, 384), (512, 384), (512, 384), (512, 384), (512, 384), (512, 384), (512, 384), (512, 384), (512, 384), (512, 384), (512, 384), (512, 384), (512, 384), (512, 384), (512, 384), (512, 384), (512, 384), (512, 384), (512, 384), (512, 384), (512, 384), (512, 384), (512, 393), (512, 418), (512, 434), (512, 451), (508, 475), (499, 545), (492, 580), (487, 615), (480, 650)]",96.85976000552581,"[4, 3, 1, 5, 2, 6, 9, 8, 7]","(0, 0.25)",ENG010B,ENG,B,Chinese,Mon Nov  5 17:16:25 2018,Mouse
2,0,2,0,93,9,9,1,382,322,60,135,0,500,200,8000,"[(512, 384), (512, 384), (512, 384), (512, 384), (512, 384), (512, 384), (512, 384), (512, 384), (512, 384), (512, 384), (512, 384), (512, 384), (512, 384), (512, 384), (512, 384), (512, 384), (512, 384), (512, 384), (512, 384), (512, 384), (512, 384), (512, 384), (512, 384), (512, 384), (512, 384), (512, 384), (512, 384), (512, 384), (512, 384), (512, 384), (512, 384), (512, 384), (512, 374), (512, 338), (509, 309), (507, 270), (504, 238), (495, 166), (490, 131)]",265.0302592718897,"[4, 3, 1, 5, 2, 6, 9, 8, 7]","(0, 0.25)",ENG010B,ENG,B,Chinese,Mon Nov  5 17:16:25 2018,Mouse
2,0,2,0,94,3,3,1,333,263,70,134,0,500,200,8000,"[(512, 384), (512, 384), (512, 384), (512, 384), (512, 384), (512, 384), (512, 384), (512, 384), (512, 384), (512, 384), (512, 384), (512, 384), (512, 384), (512, 384), (512, 384), (512, 384), (512, 384), (512, 384), (512, 384), (512, 384), (512, 384), (512, 384), (512, 384), (512, 384), (512, 384), (512, 384), (512, 388), (544, 426), (564, 447), (584, 470), (621, 521), (640, 549), (656, 571), (672, 594)]",52.69605172201657,"[4, 3, 1, 5, 2, 6, 9, 8, 7]","(0, 0.25)",ENG010B,ENG,B,Chinese,Mon Nov  5 17:16:25 2018,Mouse
2,0,2,0,95,3,3,1,280,210,70,133,0,500,200,8000,"[(512, 384), (512, 384), (512, 384), (512, 384), (512, 384), (512, 384), (512, 384), (512, 384), (512, 384), (512, 384), (512, 384), (512, 384), (512, 384), (512, 384), (512, 384), (512, 384), (512, 384), (512, 384), (512, 384), (512, 384), (518, 396), (529, 411), (539, 430), (552, 454), (587, 514), (605, 544), (622, 574), (638, 601)]",59.85861444792466,"[4, 3, 1, 5, 2, 6, 9, 8, 7]","(0, 0.25)",ENG010B,ENG,B,Chinese,Mon Nov  5 17:16:25 2018,Mouse
2,0,2,0,96,2,2,1,693,643,50,132,0,500,200,8000,"[(512, 384), (512, 384), (512, 384), (512, 384), (512, 384), (512, 384), (512, 384), (512, 384), (512, 384), (512, 384), (512, 384), (512, 384), (512, 384), (512, 384), (512, 384), (512, 384), (512, 384), (512, 384), (512, 384), (512, 384), (512, 384), (512, 384), (512, 384), (512, 384), (512, 384), (512, 384), (512, 384), (512, 384), (512, 384), (512, 384), (512, 384), (512, 384), (512, 384), (512, 384), (512, 384), (512, 384), (512, 384), (512, 384), (512, 384), (512, 384), (512, 384), (512, 384), (512, 384), (512, 384), (512, 384), (512, 384), (512, 384), (512, 384), (512, 384), (512, 384), (512, 384), (512, 384), (512, 384), (512, 384), (512, 384), (512, 384), (512, 384), (512, 384), (512, 384), (512, 384), (512, 384), (512, 384), (512, 384), (512, 384), (510, 384), (499, 384), (473, 390), (412, 390), (346, 390), (181, 380)]",180.6923624247635,"[4, 3, 1, 5, 2, 6, 9, 8, 7]","(0, 0.25)",ENG010B,ENG,B,Chinese,Mon Nov  5 17:16:25 2018,Mouse
2,0,2,0,97,7,7,1,882,812,70,131,0,500,200,8000,"[(512, 384), (512, 384), (512, 384), (512, 384), (512, 384), (512, 384), (512, 384), (512, 384), (512, 384), (512, 384), (512, 384), (512, 384), (512, 384), (512, 384), (512, 384), (512, 384), (512, 384), (512, 384), (512, 384), (512, 384), (512, 384), (512, 384), (512, 384), (512, 384), (512, 384), (512, 384), (512, 384), (512, 384), (512, 384), (512, 384), (512, 384), (512, 384), (512, 384), (512, 384), (512, 384), (512, 384), (512, 384), (512, 384), (512, 384), (512, 384), (512, 384), (512, 384), (512, 384), (512, 384), (512, 384), (512, 384), (512, 384), (512, 384), (512, 384), (512, 384), (512, 384), (512, 384), (512, 384), (512, 384), (512, 384), (512, 384), (512, 384), (512, 384), (512, 384), (512, 384), (512, 384), (512, 384), (512, 384), (512, 384), (512, 384), (512, 384), (512, 384), (512, 384), (512, 384), (512, 384), (512, 384), (512, 384), (512, 384), (512, 384), (512, 384), (512, 384), (512, 384), (512, 384), (512, 384), (512, 384), (512, 384), (515, 384), (522, 380), (533, 375), (588, 358), (632, 346), (676, 335), (725, 325), (830, 295)]",344.3644368251024,"[4, 3, 1, 5, 2, 6, 9, 8, 7]","(0, 0.25)",ENG010B,ENG,B,Chinese,Mon Nov  5 17:16:25 2018,Mouse
2,0,2,0,98,9,7,0,-421,361,60,130,0,500,200,8000,"[(512, 384), (512, 384), (512, 384), (512, 384), (512, 384), (512, 384), (512, 384), (512, 384), (512, 384), (512, 384), (512, 384), (512, 384), (512, 384), (512, 384), (512, 384), (512, 384), (512, 384), (512, 384), (512, 384), (512, 384), (512, 384), (512, 384), (512, 384), (512, 384), (512, 384), (512, 384), (512, 384), (512, 384), (512, 384), (512, 384), (512, 384), (512, 384), (512, 384), (512, 384), (512, 384), (512, 384), (514, 383), (522, 380), (536, 374), (554, 365), (645, 344), (703, 325), (778, 303)]",343.0639161386823,"[4, 3, 1, 5, 2, 6, 9, 8, 7]","(0, 0.25)",ENG010B,ENG,B,Chinese,Mon Nov  5 17:16:25 2018,Mouse
2,0,2,0,99,7,2,0,-541,471,70,131,0,500,200,8000,"[(512, 384), (512, 384), (512, 384), (512, 384), (512, 384), (512, 384), (512, 384), (512, 384), (512, 384), (512, 384), (512, 384), (512, 384), (512, 384), (512, 384), (512, 384), (512, 384), (512, 384), (512, 384), (512, 384), (512, 384), (512, 384), (512, 384), (512, 384), (512, 384), (512, 384), (512, 384), (512, 384), (512, 384), (512, 384), (512, 384), (512, 384), (512, 384), (512, 384), (512, 384), (512, 384), (512, 384), (512, 384), (512, 384), (512, 384), (512, 384), (512, 384), (512, 384), (512, 384), (512, 384), (512, 384), (512, 384), (512, 384), (511, 384), (508, 384), (498, 388), (453, 389), (409, 389), (367, 391), (316, 393), (191, 397)]",177.68087750412263,"[4, 3, 1, 5, 2, 6, 9, 8, 7]","(0, 0.25)",ENG010B,ENG,B,Chinese,Mon Nov  5 17:16:25 2018,Mouse
2,0,2,0,100,5,1,0,-306,256,50,132,0,500,200,8000,"[(512, 384), (512, 384), (512, 384), (512, 384), (512, 384), (512, 384), (512, 384), (512, 384), (512, 384), (512, 384), (512, 384), (512, 384), (512, 384), (512, 384), (512, 384), (512, 384), (512, 384), (512, 384), (512, 384), (512, 384), (512, 384), (512, 384), (512, 384), (512, 384), (512, 384), (511, 394), (511, 431), (511, 462), (511, 509), (504, 555), (490, 655)]",94.64114021074546,"[4, 3, 1, 5, 2, 6, 9, 8, 7]","(0, 0.25)",ENG010B,ENG,B,Chinese,Mon Nov  5 17:16:25 2018,Mouse
2,0,2,0,101,6,6,1,412,342,70,133,0,500,200,8000,"[(512, 384), (512, 384), (512, 384), (512, 384), (512, 384), (512, 384), (512, 384), (512, 384), (512, 384), (512, 384), (512, 384), (512, 384), (512, 384), (512, 384), (512, 384), (512, 384), (512, 384), (512, 384), (512, 384), (512, 384), (512, 384), (512, 384), (512, 384), (512, 384), (512, 384), (512, 384), (512, 384), (512, 384), (512, 384), (512, 384), (512, 384), (512, 384), (512, 384), (512, 384), (510, 383), (505, 376), (486, 348), (468, 325), (449, 299), (427, 276), (371, 221), (340, 200)]",226.930587441167,"[4, 3, 1, 5, 2, 6, 9, 8, 7]","(0, 0.25)",ENG010B,ENG,B,Chinese,Mon Nov  5 17:16:25 2018,Mouse
2,0,2,0,102,3,5,0,-681,601,80,133,0,500,200,8000,"[(512, 384), (512, 384), (512, 384), (512, 384), (512, 384), (512, 384), (512, 384), (512, 384), (512, 384), (512, 384), (512, 384), (512, 384), (512, 384), (512, 384), (512, 384), (512, 384), (512, 384), (512, 384), (512, 384), (512, 384), (512, 384), (512, 384), (512, 384), (512, 384), (512, 384), (512, 384), (512, 384), (512, 384), (512, 384), (512, 384), (512, 384), (512, 384), (512, 384), (512, 384), (512, 384), (512, 384), (512, 384), (512, 384), (512, 384), (512, 384), (512, 384), (512, 384), (512, 384), (512, 384), (512, 384), (512, 384), (512, 384), (512, 384), (512, 384), (512, 384), (512, 384), (512, 384), (512, 384), (512, 384), (512, 384), (512, 384), (512, 384), (512, 384), (512, 384), (512, 384), (507, 391), (498, 402), (483, 416), (466, 431), (413, 476), (385, 498), (361, 520), (332, 547), (277, 595)]",138.08021013664583,"[4, 3, 1, 5, 2, 6, 9, 8, 7]","(0, 0.25)",ENG010B,ENG,B,Chinese,Mon Nov  5 17:16:25 2018,Mouse
2,0,2,0,103,7,2,0,-322,242,80,134,0,500,200,8000,"[(512, 384), (512, 384), (512, 384), (512, 384), (512, 384), (512, 384), (512, 384), (512, 384), (512, 384), (512, 384), (512, 384), (512, 384), (512, 384), (512, 384), (512, 384), (512, 384), (512, 384), (512, 384), (512, 384), (512, 384), (512, 384), (512, 384), (512, 384), (512, 384), (504, 384), (492, 382), (479, 380), (461, 376), (402, 368), (363, 364), (316, 357), (273, 351), (183, 341)]",187.44629772642804,"[4, 3, 1, 5, 2, 6, 9, 8, 7]","(0, 0.25)",ENG010B,ENG,B,Chinese,Mon Nov  5 17:16:25 2018,Mouse
2,0,2,0,104,5,6,0,-967,927,40,135,0,500,200,8000,"[(512, 384), (512, 384), (512, 384), (512, 384), (512, 384), (512, 384), (512, 384), (512, 384), (512, 384), (512, 384), (512, 384), (512, 384), (512, 384), (512, 384), (512, 384), (512, 384), (512, 384), (512, 384), (512, 384), (512, 384), (512, 384), (512, 384), (512, 384), (512, 384), (512, 384), (512, 384), (512, 384), (512, 384), (512, 384), (512, 384), (512, 384), (512, 384), (512, 384), (512, 384), (512, 384), (512, 384), (512, 384), (512, 384), (512, 384), (512, 384), (512, 384), (512, 384), (512, 384), (512, 384), (512, 384), (512, 384), (512, 384), (512, 384), (512, 384), (512, 384), (512, 384), (512, 384), (512, 384), (512, 384), (512, 384), (512, 384), (512, 384), (512, 384), (512, 384), (512, 384), (512, 384), (512, 384), (512, 384), (512, 384), (512, 384), (512, 384), (512, 384), (512, 384), (512, 384), (512, 384), (512, 384), (512, 384), (512, 384), (512, 384), (512, 384), (512, 384), (512, 384), (512, 384), (512, 384), (512, 384), (512, 384), (512, 384), (512, 384), (512, 384), (512, 384), (512, 384), (512, 384), (512, 384), (512, 384), (512, 384), (512, 384), (512, 384), (501, 381), (472, 355), (428, 329), (332, 268), (269, 231)]",212.19573393471325,"[4, 3, 1, 5, 2, 6, 9, 8, 7]","(0, 0.25)",ENG010B,ENG,B,Chinese,Mon Nov  5 17:16:25 2018,Mouse
2,0,2,0,105,8,5,0,-582,492,90,136,0,500,200,8000,"[(512, 384), (512, 384), (512, 384), (512, 384), (512, 384), (512, 384), (512, 384), (512, 384), (512, 384), (512, 384), (512, 384), (512, 384), (512, 384), (512, 384), (512, 384), (512, 384), (512, 384), (512, 384), (512, 384), (512, 384), (512, 384), (512, 384), (512, 384), (512, 384), (512, 384), (512, 384), (512, 384), (512, 384), (512, 384), (512, 384), (512, 384), (512, 384), (512, 384), (512, 384), (512, 384), (512, 384), (512, 384), (512, 384), (512, 384), (512, 384), (512, 384), (512, 384), (512, 384), (512, 384), (512, 384), (512, 384), (512, 384), (512, 384), (512, 384), (510, 384), (502, 388), (492, 399), (480, 413), (460, 428), (437, 448), (387, 502), (362, 528), (339, 557), (313, 588)]",134.28917072092884,"[4, 3, 1, 5, 2, 6, 9, 8, 7]","(0, 0.25)",ENG010B,ENG,B,Chinese,Mon Nov  5 17:16:25 2018,Mouse
2,0,2,0,106,3,2,0,-496,406,90,137,0,500,200,8000,"[(512, 384), (512, 384), (512, 384), (512, 384), (512, 384), (512, 384), (512, 384), (512, 384), (512, 384), (512, 384), (512, 384), (512, 384), (512, 384), (512, 384), (512, 384), (512, 384), (512, 384), (512, 384), (512, 384), (512, 384), (512, 384), (512, 384), (512, 384), (512, 384), (512, 384), (512, 384), (512, 384), (512, 384), (512, 384), (512, 384), (512, 384), (512, 384), (512, 384), (512, 384), (512, 384), (512, 384), (512, 384), (512, 384), (512, 384), (512, 384), (511, 384), (507, 384), (498, 385), (464, 386), (439, 386), (414, 386), (389, 386), (319, 386), (283, 386), (238, 386)]",179.5817900585029,"[4, 3, 1, 5, 2, 6, 9, 8, 7]","(0, 0.25)",ENG010B,ENG,B,Chinese,Mon Nov  5 17:16:25 2018,Mouse
2,0,2,0,107,9,6,0,-402,332,70,138,0,500,200,8000,"[(512, 384), (512, 384), (512, 384), (512, 384), (512, 384), (512, 384), (512, 384), (512, 384), (512, 384), (512, 384), (512, 384), (512, 384), (512, 384), (512, 384), (512, 384), (512, 384), (512, 384), (512, 384), (512, 384), (512, 384), (512, 384), (512, 384), (512, 384), (512, 384), (512, 384), (512, 384), (512, 384), (512, 384), (512, 384), (512, 384), (512, 384), (512, 384), (512, 384), (509, 382), (486, 362), (474, 351), (458, 337), (433, 316), (375, 270), (339, 245), (303, 220)]",218.1208867743689,"[4, 3, 1, 5, 2, 6, 9, 8, 7]","(0, 0.25)",ENG010B,ENG,B,Chinese,Mon Nov  5 17:16:25 2018,Mouse
2,0,2,0,108,6,6,1,281,231,50,139,0,500,200,8000,"[(512, 384), (512, 384), (512, 384), (512, 384), (512, 384), (512, 384), (512, 384), (512, 384), (512, 384), (512, 384), (512, 384), (512, 384), (512, 384), (512, 384), (512, 384), (512, 384), (512, 384), (512, 384), (512, 384), (512, 384), (512, 384), (512, 384), (512, 384), (509, 384), (488, 374), (456, 360), (419, 345), (339, 309), (281, 280)]",204.23805773316195,"[4, 3, 1, 5, 2, 6, 9, 8, 7]","(0, 0.25)",ENG010B,ENG,B,Chinese,Mon Nov  5 17:16:25 2018,Mouse
2,0,2,0,109,2,2,1,242,122,120,139,0,500,200,8000,"[(512, 384), (512, 384), (512, 384), (512, 384), (512, 384), (512, 384), (512, 384), (512, 384), (512, 384), (512, 384), (512, 384), (512, 384), (511, 384), (508, 384), (500, 384), (477, 384), (466, 384), (454, 384), (442, 384), (410, 386), (388, 390), (366, 390), (339, 395), (280, 403), (248, 408)]",174.8055710922652,"[4, 3, 1, 5, 2, 6, 9, 8, 7]","(0, 0.25)",ENG010B,ENG,B,Chinese,Mon Nov  5 17:16:25 2018,Mouse
2,0,2,0,110,6,6,1,387,27,360,138,0,500,200,8000,"[(512, 384), (512, 384), (513, 384), (514, 384), (515, 384), (517, 384), (522, 381), (524, 381), (526, 380), (527, 378), (528, 378), (529, 377), (529, 374), (529, 373), (530, 367), (531, 358), (531, 350), (531, 343), (531, 324), (531, 315), (530, 305), (528, 298), (522, 283), (519, 278), (512, 273), (509, 270), (498, 267), (490, 265), (483, 263), (474, 260), (452, 253), (438, 249), (424, 245), (408, 241), (368, 229), (358, 225), (343, 223), (332, 222), (309, 217)]",219.44276779044918,"[4, 3, 1, 5, 2, 6, 9, 8, 7]","(0, 0.25)",ENG010B,ENG,B,Chinese,Mon Nov  5 17:16:25 2018,Mouse
2,0,2,0,111,4,5,0,-730,130,600,137,0,500,200,8000,"[(512, 384), (512, 384), (512, 384), (512, 384), (512, 384), (512, 384), (512, 384), (512, 384), (512, 384), (512, 384), (512, 384), (512, 384), (512, 382), (512, 382), (512, 382), (512, 382), (512, 382), (512, 382), (512, 382), (512, 382), (512, 382), (512, 382), (512, 382), (512, 382), (512, 382), (512, 382), (512, 382), (512, 382), (512, 382), (512, 382), (512, 382), (512, 382), (512, 382), (512, 382), (512, 382), (512, 382), (512, 382), (512, 382), (512, 382), (512, 382), (512, 382), (512, 382), (512, 382), (512, 382), (512, 382), (512, 382), (512, 382), (512, 382), (512, 382), (512, 382), (511, 382), (511, 382), (510, 383), (510, 383), (508, 383), (507, 383), (506, 384), (506, 384), (503, 385), (501, 386), (500, 387), (496, 391), (487, 405), (480, 414), (472, 424), (464, 436), (444, 459), (431, 477), (416, 495), (393, 513), (353, 540), (339, 550), (329, 560)]",136.11704635031856,"[4, 3, 1, 5, 2, 6, 9, 8, 7]","(0, 0.25)",ENG010B,ENG,B,Chinese,Mon Nov  5 17:16:25 2018,Mouse
2,0,2,0,112,5,6,0,-382,12,370,138,0,500,200,8000,"[(512, 384), (514, 384), (516, 382), (517, 382), (519, 382), (522, 382), (529, 380), (533, 378), (535, 377), (540, 377), (546, 375), (548, 374), (550, 373), (550, 373), (550, 373), (550, 373), (550, 373), (550, 372), (550, 371), (550, 371), (549, 370), (549, 370), (549, 368), (549, 368), (549, 367), (549, 367), (548, 360), (543, 355), (536, 348), (531, 343), (511, 329), (500, 323), (482, 314), (462, 305), (419, 284), (398, 273), (369, 261), (348, 250), (309, 231)]",217.00513526923672,"[4, 3, 1, 5, 2, 6, 9, 8, 7]","(0, 0.25)",ENG010B,ENG,B,Chinese,Mon Nov  5 17:16:25 2018,Mouse
2,0,2,0,113,7,7,1,243,93,150,139,0,500,200,8000,"[(512, 384), (512, 384), (512, 384), (512, 384), (512, 384), (512, 384), (512, 384), (512, 384), (512, 384), (516, 384), (527, 384), (536, 383), (558, 380), (572, 377), (586, 376), (599, 376), (626, 376), (641, 376), (655, 376), (667, 376), (706, 374), (722, 372), (740, 369), (751, 365), (776, 358)]",354.37537195855407,"[4, 3, 1, 5, 2, 6, 9, 8, 7]","(0, 0.25)",ENG010B,ENG,B,Chinese,Mon Nov  5 17:16:25 2018,Mouse
2,0,2,0,114,8,3,0,-356,156,200,139,0,500,200,8000,"[(512, 384), (512, 384), (512, 384), (512, 384), (512, 384), (512, 384), (512, 384), (512, 384), (512, 384), (512, 384), (512, 384), (512, 384), (512, 384), (512, 384), (512, 384), (512, 387), (512, 391), (512, 394), (512, 396), (517, 407), (522, 415), (527, 423), (533, 432), (551, 456), (557, 466), (567, 478), (575, 489), (591, 511), (598, 521), (603, 530), (615, 544), (630, 561), (637, 568), (646, 576), (654, 584), (669, 600)]",53.988401884187496,"[4, 3, 1, 5, 2, 6, 9, 8, 7]","(0, 0.25)",ENG010B,ENG,B,Chinese,Mon Nov  5 17:16:25 2018,Mouse
2,0,2,0,115,2,2,1,603,73,530,140,0,500,200,8000,"[(512, 384), (512, 384), (512, 384), (512, 384), (512, 384), (512, 384), (512, 384), (510, 385), (500, 376), (490, 366), (483, 360), (472, 351), (450, 333), (439, 326), (429, 321), (419, 315), (403, 307), (397, 305), (393, 304), (390, 302), (384, 301), (384, 301), (383, 301), (383, 301), (383, 301), (383, 301), (382, 301), (381, 301), (375, 301), (374, 301), (369, 303), (368, 304), (361, 306), (359, 308), (358, 309), (358, 309), (358, 310), (358, 310), (358, 310), (358, 312), (358, 313), (358, 315), (358, 316), (358, 318), (361, 324), (364, 326), (366, 329), (367, 331), (370, 335), (371, 339), (371, 339), (371, 341), (371, 344), (371, 345), (371, 346), (370, 347), (360, 351), (349, 352), (334, 354), (318, 357), (263, 361)]",185.2774060829072,"[4, 3, 1, 5, 2, 6, 9, 8, 7]","(0, 0.25)",ENG010B,ENG,B,Chinese,Mon Nov  5 17:16:25 2018,Mouse
2,0,2,0,116,1,4,0,-282,142,140,140,0,500,200,8000,"[(512, 384), (512, 384), (512, 384), (512, 384), (512, 384), (512, 384), (512, 384), (512, 384), (512, 384), (512, 384), (512, 384), (512, 384), (512, 384), (512, 384), (519, 384), (532, 386), (561, 391), (573, 392), (587, 394), (601, 398), (632, 409), (650, 414), (668, 423), (683, 429), (709, 440), (721, 446), (732, 450), (743, 454), (760, 459)]",16.82633263077217,"[4, 3, 1, 5, 2, 6, 9, 8, 7]","(0, 0.25)",ENG010B,ENG,B,Chinese,Mon Nov  5 17:16:25 2018,Mouse
