NativeLangNumber,LanuageNumber,SessionNumber,Block,TrialNum,ConditionNumber,Response,Accuracy,RT,MovementOnsetTime,TimeInMotion,SignalContrast,SignalContrastNumber,StimDisplayTime,MaskTime,MaxResponseTime,MousePositionXY,MouseAngle,WheelOrder,NoiseMuSigma,ParticipantID,LanuageTested,SessionTested,NativeLanuage,Date,ResponseDevice
1,0,4,0,1,7,7,1,555,405,150,153,0,500,200,8000,"[(960, 540), (960, 540), (960, 540), (960, 540), (960, 540), (960, 540), (960, 540), (960, 540), (960, 540), (960, 540), (960, 540), (960, 540), (960, 540), (960, 540), (960, 540), (960, 540), (960, 540), (960, 540), (960, 540), (960, 540), (960, 540), (960, 540), (960, 540), (960, 540), (960, 540), (960, 540), (960, 540), (960, 540), (960, 540), (960, 540), (960, 540), (960, 540), (960, 540), (960, 540), (960, 540), (960, 540), (960, 540), (960, 540), (960, 540), (960, 540), (962, 540), (970, 540), (983, 536), (1009, 532), (1027, 528), (1049, 520), (1077, 512), (1144, 491), (1173, 481), (1204, 470), (1230, 461), (1277, 441), (1299, 435), (1319, 427), (1339, 422), (1362, 417)]",342.98745319075596,"[5, 8, 3, 4, 1, 2, 9, 6, 7]","(0, 0.25)",ENG008D,ENG,D,English,Wed Sep 05 14:56:07 2018,Mouse
1,0,4,0,2,5,5,1,1541,951,590,153,0,500,200,8000,"[(960, 540), (960, 540), (960, 540), (960, 540), (960, 540), (960, 540), (960, 540), (960, 540), (960, 540), (960, 540), (960, 540), (960, 540), (960, 540), (960, 540), (960, 540), (960, 540), (960, 540), (960, 540), (960, 540), (960, 540), (960, 540), (960, 540), (960, 540), (960, 540), (960, 540), (960, 540), (960, 540), (960, 540), (960, 540), (960, 540), (960, 540), (960, 540), (960, 540), (960, 540), (960, 540), (960, 540), (960, 540), (960, 540), (960, 540), (960, 540), (960, 540), (960, 540), (960, 540), (960, 540), (960, 540), (960, 540), (960, 540), (960, 540), (960, 540), (960, 540), (960, 540), (960, 540), (960, 540), (960, 540), (960, 540), (960, 540), (960, 540), (960, 540), (960, 540), (960, 540), (960, 540), (960, 540), (960, 540), (960, 540), (960, 540), (960, 540), (960, 540), (960, 540), (960, 540), (960, 540), (960, 540), (960, 540), (960, 540), (960, 540), (960, 540), (960, 540), (960, 540), (960, 540), (960, 540), (960, 540), (960, 540), (960, 540), (960, 540), (960, 540), (960, 540), (960, 540), (960, 540), (960, 540), (960, 540), (960, 540), (960, 540), (960, 540), (960, 540), (960, 540), (961, 540), (961, 540), (961, 544), (961, 544), (960, 545), (960, 545), (960, 546), (960, 546), (960, 547), (960, 548), (960, 549), (960, 549), (960, 551), (960, 553), (960, 553), (960, 553), (960, 553), (960, 553), (960, 553), (960, 553), (960, 553), (960, 553), (960, 553), (960, 553), (960, 553), (960, 553), (960, 553), (960, 553), (960, 553), (961, 553), (961, 553), (963, 554), (967, 556), (971, 557), (975, 558), (979, 560), (990, 562), (996, 566), (1001, 567), (1011, 572), (1027, 577), (1037, 582), (1047, 586), (1056, 589), (1078, 598), (1099, 605), (1115, 609), (1128, 611), (1154, 616), (1167, 617), (1180, 618), (1193, 619), (1217, 622), (1230, 625), (1246, 627), (1264, 630), (1301, 635), (1319, 638), (1341, 642), (1358, 643)]",14.509472183582787,"[5, 8, 3, 4, 1, 2, 9, 6, 7]","(0, 0.25)",ENG008D,ENG,D,English,Wed Sep 05 14:56:07 2018,Mouse
1,0,4,0,3,7,7,1,761,261,500,152,0,500,200,8000,"[(960, 540), (960, 540), (960, 540), (960, 540), (960, 540), (960, 540), (960, 540), (960, 540), (960, 540), (960, 540), (960, 540), (960, 540), (960, 540), (960, 540), (960, 540), (960, 540), (960, 540), (960, 540), (960, 540), (960, 540), (960, 540), (960, 540), (960, 540), (960, 540), (960, 540), (960, 540), (962, 540), (965, 540), (976, 539), (986, 537), (997, 535), (1007, 534), (1030, 532), (1044, 530), (1056, 527), (1070, 526), (1103, 516), (1124, 507), (1142, 500), (1155, 493), (1194, 476), (1206, 470), (1222, 468), (1241, 464), (1261, 461), (1271, 460), (1278, 460), (1285, 460), (1293, 460), (1293, 459), (1294, 458), (1294, 458), (1294, 458), (1295, 458), (1295, 458), (1295, 458), (1295, 458), (1295, 458), (1295, 458), (1295, 458), (1295, 458), (1295, 458), (1295, 458), (1295, 458), (1295, 458), (1295, 458), (1295, 458), (1295, 458), (1295, 458), (1295, 458), (1295, 458), (1295, 458), (1298, 457), (1308, 452), (1323, 443), (1341, 436), (1393, 415)]",343.89743838061554,"[5, 8, 3, 4, 1, 2, 9, 6, 7]","(0, 0.25)",ENG008D,ENG,D,English,Wed Sep 05 14:56:07 2018,Mouse
1,0,4,0,4,4,4,1,798,378,420,151,0,500,200,8000,"[(960, 540), (960, 540), (960, 540), (960, 540), (960, 540), (960, 540), (960, 540), (960, 540), (960, 540), (960, 540), (960, 540), (960, 540), (960, 540), (960, 540), (960, 540), (960, 540), (960, 540), (960, 540), (960, 540), (960, 540), (960, 540), (960, 540), (960, 540), (960, 540), (960, 540), (960, 540), (960, 540), (960, 540), (960, 540), (960, 540), (960, 540), (960, 540), (960, 540), (960, 540), (960, 540), (960, 540), (960, 540), (959, 540), (958, 541), (957, 543), (956, 544), (956, 544), (956, 544), (955, 545), (955, 545), (955, 545), (955, 545), (955, 545), (955, 545), (955, 545), (955, 545), (955, 545), (954, 547), (954, 547), (953, 548), (952, 549), (952, 549), (952, 549), (951, 549), (950, 549), (950, 549), (949, 549), (949, 550), (947, 550), (947, 551), (946, 551), (945, 552), (942, 553), (940, 553), (936, 556), (931, 558), (910, 567), (893, 574), (863, 592), (827, 613), (744, 668), (711, 692), (677, 717), (649, 736), (610, 770)]",146.6893691754392,"[5, 8, 3, 4, 1, 2, 9, 6, 7]","(0, 0.25)",ENG008D,ENG,D,English,Wed Sep 05 14:56:07 2018,Mouse
1,0,4,0,5,9,9,1,991,221,770,150,0,500,200,8000,"[(960, 540), (960, 540), (960, 540), (960, 540), (960, 540), (960, 540), (960, 540), (960, 540), (960, 540), (960, 540), (960, 540), (960, 540), (960, 540), (960, 540), (960, 540), (960, 540), (960, 540), (960, 540), (960, 540), (960, 540), (960, 540), (960, 540), (960, 541), (962, 543), (962, 543), (963, 545), (963, 545), (963, 546), (964, 547), (964, 547), (964, 548), (965, 548), (965, 550), (965, 550), (966, 551), (967, 553), (968, 553), (968, 553), (968, 553), (968, 553), (968, 553), (968, 553), (968, 553), (968, 553), (968, 553), (968, 553), (968, 553), (969, 553), (969, 553), (969, 553), (969, 553), (969, 553), (969, 553), (969, 553), (969, 553), (969, 553), (969, 553), (969, 553), (969, 553), (969, 553), (969, 553), (969, 553), (969, 553), (969, 553), (969, 553), (969, 553), (969, 553), (970, 553), (971, 552), (971, 549), (972, 546), (972, 543), (972, 540), (973, 538), (973, 535), (973, 532), (973, 529), (973, 527), (972, 523), (969, 518), (968, 514), (965, 511), (962, 507), (955, 496), (950, 487), (944, 477), (939, 467), (917, 429), (903, 404), (887, 377), (878, 356), (863, 311), (858, 291), (855, 273), (851, 254), (849, 225), (849, 205), (849, 185), (846, 164), (842, 131)]",253.90669663927713,"[5, 8, 3, 4, 1, 2, 9, 6, 7]","(0, 0.25)",ENG008D,ENG,D,English,Wed Sep 05 14:56:07 2018,Mouse
1,0,4,0,6,6,6,1,780,230,550,149,0,500,200,8000,"[(960, 540), (960, 540), (960, 540), (960, 540), (960, 540), (960, 540), (960, 540), (960, 540), (960, 540), (960, 540), (960, 540), (960, 540), (960, 540), (960, 540), (960, 540), (960, 540), (960, 540), (960, 540), (960, 540), (960, 540), (960, 540), (960, 540), (960, 541), (960, 543), (960, 544), (961, 545), (961, 547), (962, 549), (963, 549), (963, 551), (964, 552), (965, 552), (965, 553), (966, 554), (966, 554), (966, 554), (966, 554), (966, 554), (966, 554), (966, 554), (966, 554), (966, 554), (966, 554), (968, 554), (968, 554), (968, 554), (968, 554), (968, 554), (968, 554), (968, 554), (968, 554), (968, 554), (968, 554), (968, 554), (968, 554), (968, 554), (968, 554), (968, 554), (968, 554), (968, 554), (968, 554), (971, 551), (974, 547), (980, 538), (987, 528), (1010, 497), (1020, 482), (1036, 460), (1047, 438), (1072, 395), (1085, 371), (1099, 349), (1114, 324), (1137, 279), (1147, 253), (1156, 232), (1161, 215), (1174, 165)]",299.7119621511746,"[5, 8, 3, 4, 1, 2, 9, 6, 7]","(0, 0.25)",ENG008D,ENG,D,English,Wed Sep 05 14:56:07 2018,Mouse
1,0,4,0,7,6,6,1,360,20,340,148,0,500,200,8000,"[(960, 540), (961, 539), (961, 539), (961, 539), (961, 539), (961, 539), (961, 539), (961, 539), (961, 539), (961, 539), (961, 539), (961, 539), (961, 539), (961, 539), (961, 539), (961, 539), (961, 539), (961, 539), (961, 539), (961, 538), (964, 535), (965, 531), (976, 517), (983, 508), (993, 495), (1003, 480), (1029, 439), (1037, 423), (1054, 396), (1069, 371), (1097, 320), (1110, 295), (1126, 268), (1135, 245), (1150, 197), (1156, 177)]",298.3666021426311,"[5, 8, 3, 4, 1, 2, 9, 6, 7]","(0, 0.25)",ENG008D,ENG,D,English,Wed Sep 05 14:56:07 2018,Mouse
1,0,4,0,8,4,4,1,1022,912,110,147,0,500,200,8000,"[(960, 540), (960, 540), (960, 540), (960, 540), (960, 540), (960, 540), (960, 540), (960, 540), (960, 540), (960, 540), (960, 540), (960, 540), (960, 540), (960, 540), (960, 540), (960, 540), (960, 540), (960, 540), (960, 540), (960, 540), (960, 540), (960, 540), (960, 540), (960, 540), (960, 540), (960, 540), (960, 540), (960, 540), (960, 540), (960, 540), (960, 540), (960, 540), (960, 540), (960, 540), (960, 540), (960, 540), (960, 540), (960, 540), (960, 540), (960, 540), (960, 540), (960, 540), (960, 540), (960, 540), (960, 540), (960, 540), (960, 540), (960, 540), (960, 540), (960, 540), (960, 540), (960, 540), (960, 540), (960, 540), (960, 540), (960, 540), (960, 540), (960, 540), (960, 540), (960, 540), (960, 540), (960, 540), (960, 540), (960, 540), (960, 540), (960, 540), (960, 540), (960, 540), (960, 540), (960, 540), (960, 540), (960, 540), (960, 540), (960, 540), (960, 540), (960, 540), (960, 540), (960, 540), (960, 540), (960, 540), (960, 540), (960, 540), (960, 540), (960, 540), (960, 540), (960, 540), (960, 540), (960, 540), (960, 540), (960, 540), (960, 540), (957, 542), (953, 546), (950, 549), (935, 559), (923, 567), (910, 576), (885, 591), (825, 626), (787, 647), (741, 673), (703, 694), (612, 746)]",149.3764179751461,"[5, 8, 3, 4, 1, 2, 9, 6, 7]","(0, 0.25)",ENG008D,ENG,D,English,Wed Sep 05 14:56:07 2018,Mouse
1,0,4,0,9,3,3,1,1140,830,310,146,0,500,200,8000,"[(960, 540), (960, 540), (960, 540), (960, 540), (960, 540), (960, 540), (960, 540), (960, 540), (960, 540), (960, 540), (960, 540), (960, 540), (960, 540), (960, 540), (960, 540), (960, 540), (960, 540), (960, 540), (960, 540), (960, 540), (960, 540), (960, 540), (960, 540), (960, 540), (960, 540), (960, 540), (960, 540), (960, 540), (960, 540), (960, 540), (960, 540), (960, 540), (960, 540), (960, 540), (960, 540), (960, 540), (960, 540), (960, 540), (960, 540), (960, 540), (960, 540), (960, 540), (960, 540), (960, 540), (960, 540), (960, 540), (960, 540), (960, 540), (960, 540), (960, 540), (960, 540), (960, 540), (960, 540), (960, 540), (960, 540), (960, 540), (960, 540), (960, 540), (960, 540), (960, 540), (960, 540), (960, 540), (960, 540), (960, 540), (960, 540), (960, 540), (960, 540), (960, 540), (960, 540), (960, 540), (960, 540), (960, 540), (960, 540), (960, 540), (960, 540), (960, 540), (960, 540), (960, 540), (960, 540), (960, 540), (960, 540), (960, 540), (959, 541), (957, 542), (957, 544), (956, 545), (956, 547), (956, 547), (956, 547), (956, 549), (956, 550), (956, 550), (956, 552), (956, 552), (956, 554), (956, 554), (956, 556), (955, 558), (954, 562), (953, 564), (952, 567), (949, 573), (942, 588), (936, 598), (930, 613), (924, 628), (898, 683), (888, 712), (876, 746), (865, 779), (855, 849), (853, 872), (848, 905), (845, 928)]",106.5093890914221,"[5, 8, 3, 4, 1, 2, 9, 6, 7]","(0, 0.25)",ENG008D,ENG,D,English,Wed Sep 05 14:56:07 2018,Mouse
1,0,4,0,10,3,3,1,439,159,280,145,0,500,200,8000,"[(960, 540), (960, 540), (960, 540), (960, 540), (960, 540), (960, 540), (960, 540), (960, 540), (960, 540), (960, 540), (960, 540), (960, 540), (960, 540), (960, 540), (960, 540), (960, 541), (960, 541), (960, 542), (960, 542), (959, 543), (959, 543), (959, 544), (958, 545), (958, 545), (957, 547), (957, 549), (956, 550), (954, 551), (952, 554), (952, 555), (952, 556), (949, 558), (949, 559), (948, 560), (947, 562), (946, 563), (942, 570), (940, 582), (933, 608), (915, 659), (882, 772), (865, 833), (851, 886), (841, 929)]",107.00953150640427,"[5, 8, 3, 4, 1, 2, 9, 6, 7]","(0, 0.25)",ENG008D,ENG,D,English,Wed Sep 05 14:56:07 2018,Mouse
1,0,4,0,11,6,6,1,1170,40,1130,144,0,500,200,8000,"[(960, 540), (960, 540), (960, 540), (959, 541), (959, 541), (959, 541), (958, 542), (958, 542), (958, 542), (958, 542), (958, 542), (958, 542), (958, 542), (958, 542), (958, 542), (958, 542), (958, 542), (958, 542), (958, 542), (958, 542), (958, 542), (958, 542), (958, 542), (958, 542), (958, 542), (958, 542), (958, 542), (958, 542), (958, 542), (958, 542), (958, 542), (958, 542), (958, 542), (958, 542), (958, 542), (958, 542), (958, 542), (958, 542), (958, 542), (958, 542), (958, 542), (958, 542), (958, 542), (958, 542), (958, 542), (958, 542), (958, 542), (958, 542), (958, 542), (958, 542), (958, 542), (958, 542), (958, 542), (958, 542), (958, 542), (958, 542), (958, 542), (958, 542), (958, 542), (958, 542), (958, 542), (958, 542), (958, 542), (958, 542), (958, 542), (958, 542), (958, 542), (957, 541), (957, 535), (961, 524), (968, 509), (995, 463), (1005, 444), (1014, 423), (1026, 404), (1043, 365), (1053, 347), (1060, 329), (1064, 313), (1072, 285), (1079, 267), (1085, 254), (1087, 242), (1097, 216), (1102, 206), (1105, 198), (1109, 192), (1114, 182), (1114, 180), (1115, 178), (1116, 176), (1117, 175), (1117, 175), (1117, 175), (1117, 175), (1117, 175), (1117, 175), (1117, 175), (1117, 175), (1117, 175), (1117, 174), (1117, 173), (1117, 173), (1117, 173), (1117, 173), (1117, 173), (1117, 173), (1117, 173), (1117, 173), (1117, 173), (1117, 173), (1117, 173), (1117, 173), (1117, 173), (1117, 173), (1117, 173), (1117, 169)]",292.93713831496297,"[5, 8, 3, 4, 1, 2, 9, 6, 7]","(0, 0.25)",ENG008D,ENG,D,English,Wed Sep 05 14:56:07 2018,Mouse
1,0,4,0,12,9,9,1,851,751,100,143,0,500,200,8000,"[(960, 540), (960, 540), (960, 540), (960, 540), (960, 540), (960, 540), (960, 540), (960, 540), (960, 540), (960, 540), (960, 540), (960, 540), (960, 540), (960, 540), (960, 540), (960, 540), (960, 540), (960, 540), (960, 540), (960, 540), (960, 540), (960, 540), (960, 540), (960, 540), (960, 540), (960, 540), (960, 540), (960, 540), (960, 540), (960, 540), (960, 540), (960, 540), (960, 540), (960, 540), (960, 540), (960, 540), (960, 540), (960, 540), (960, 540), (960, 540), (960, 540), (960, 540), (960, 540), (960, 540), (960, 540), (960, 540), (960, 540), (960, 540), (960, 540), (960, 540), (960, 540), (960, 540), (960, 540), (960, 540), (960, 540), (960, 540), (960, 540), (960, 540), (960, 540), (960, 540), (960, 540), (960, 540), (960, 540), (960, 540), (960, 540), (960, 540), (960, 540), (960, 540), (960, 540), (960, 540), (960, 540), (960, 540), (960, 540), (960, 540), (960, 540), (961, 540), (961, 537), (961, 518), (961, 507), (956, 481), (956, 445), (941, 348), (930, 288), (924, 231), (916, 169), (897, 49)]",262.68835310753263,"[5, 8, 3, 4, 1, 2, 9, 6, 7]","(0, 0.25)",ENG008D,ENG,D,English,Wed Sep 05 14:56:07 2018,Mouse
1,0,4,0,13,4,4,1,821,641,180,142,0,500,200,8000,"[(960, 540), (960, 540), (960, 540), (960, 540), (960, 540), (960, 540), (960, 540), (960, 540), (960, 540), (960, 540), (960, 540), (960, 540), (960, 540), (960, 540), (960, 540), (960, 540), (960, 540), (960, 540), (960, 540), (960, 540), (960, 540), (960, 540), (960, 540), (960, 540), (960, 540), (960, 540), (960, 540), (960, 540), (960, 540), (960, 540), (960, 540), (960, 540), (960, 540), (960, 540), (960, 540), (960, 540), (960, 540), (960, 540), (960, 540), (960, 540), (960, 540), (960, 540), (960, 540), (960, 540), (960, 540), (960, 540), (960, 540), (960, 540), (960, 540), (960, 540), (960, 540), (960, 540), (960, 540), (960, 540), (960, 540), (960, 540), (960, 540), (960, 540), (960, 540), (960, 540), (960, 540), (960, 540), (960, 540), (960, 540), (960, 541), (959, 542), (955, 544), (947, 547), (938, 553), (929, 560), (921, 566), (899, 581), (890, 589), (876, 601), (861, 612), (824, 650), (807, 675), (792, 699), (776, 732), (739, 789), (722, 817), (706, 840), (691, 857)]",130.31728449770924,"[5, 8, 3, 4, 1, 2, 9, 6, 7]","(0, 0.25)",ENG008D,ENG,D,English,Wed Sep 05 14:56:07 2018,Mouse
1,0,4,0,14,9,9,1,1482,902,580,141,0,500,200,8000,"[(960, 540), (960, 540), (960, 540), (960, 540), (960, 540), (960, 540), (960, 540), (960, 540), (960, 540), (960, 540), (960, 540), (960, 540), (960, 540), (960, 540), (960, 540), (960, 540), (960, 540), (960, 540), (960, 540), (960, 540), (960, 540), (960, 540), (960, 540), (960, 540), (960, 540), (960, 540), (960, 540), (960, 540), (960, 540), (960, 540), (960, 540), (960, 540), (960, 540), (960, 540), (960, 540), (960, 540), (960, 540), (960, 540), (960, 540), (960, 540), (960, 540), (960, 540), (960, 540), (960, 540), (960, 540), (960, 540), (960, 540), (960, 540), (960, 540), (960, 540), (960, 540), (960, 540), (960, 540), (960, 540), (960, 540), (960, 540), (960, 540), (960, 540), (960, 540), (960, 540), (960, 540), (960, 540), (960, 540), (960, 540), (960, 540), (960, 540), (960, 540), (960, 540), (960, 540), (960, 540), (960, 540), (960, 540), (960, 540), (960, 540), (960, 540), (960, 540), (960, 540), (960, 540), (960, 540), (960, 540), (960, 540), (960, 540), (960, 540), (960, 540), (960, 540), (960, 540), (960, 540), (960, 540), (960, 540), (960, 540), (962, 538), (966, 534), (979, 522), (981, 521), (983, 518), (984, 518), (984, 517), (984, 517), (984, 517), (984, 517), (984, 517), (984, 517), (984, 517), (984, 517), (984, 517), (984, 517), (984, 517), (984, 517), (984, 517), (984, 517), (984, 517), (984, 517), (984, 517), (984, 517), (984, 517), (984, 517), (984, 517), (984, 517), (984, 517), (984, 517), (984, 517), (984, 517), (984, 517), (984, 517), (984, 517), (984, 517), (984, 517), (984, 517), (984, 517), (984, 517), (984, 517), (984, 517), (984, 517), (984, 517), (984, 517), (984, 517), (984, 517), (984, 517), (984, 517), (984, 517), (984, 504), (983, 485), (983, 454), (981, 423), (973, 351), (965, 305), (958, 261), (949, 202), (926, 79)]",265.7819178745527,"[5, 8, 3, 4, 1, 2, 9, 6, 7]","(0, 0.25)",ENG008D,ENG,D,English,Wed Sep 05 14:56:07 2018,Mouse
1,0,4,0,15,8,8,1,420,230,190,140,0,500,200,8000,"[(960, 540), (960, 540), (960, 540), (960, 540), (960, 540), (960, 540), (960, 540), (960, 540), (960, 540), (960, 540), (960, 540), (960, 540), (960, 540), (960, 540), (960, 540), (960, 540), (960, 540), (960, 540), (960, 540), (960, 540), (960, 540), (960, 540), (960, 543), (960, 549), (960, 551), (960, 555), (960, 558), (961, 562), (962, 565), (962, 567), (965, 570), (969, 579), (972, 586), (978, 603), (989, 627), (1013, 697), (1022, 741), (1035, 777), (1049, 812), (1075, 870), (1088, 894), (1103, 921)]",69.42747627080098,"[5, 8, 3, 4, 1, 2, 9, 6, 7]","(0, 0.25)",ENG008D,ENG,D,English,Wed Sep 05 14:56:07 2018,Mouse
1,0,4,0,16,4,4,1,1341,561,780,139,0,500,200,8000,"[(960, 540), (960, 540), (960, 540), (960, 540), (960, 540), (960, 540), (960, 540), (960, 540), (960, 540), (960, 540), (960, 540), (960, 540), (960, 540), (960, 540), (960, 540), (960, 540), (960, 540), (960, 540), (960, 540), (960, 540), (960, 540), (960, 540), (960, 540), (960, 540), (960, 540), (960, 540), (960, 540), (960, 540), (960, 540), (960, 540), (960, 540), (960, 540), (960, 540), (960, 540), (960, 540), (960, 540), (960, 540), (960, 540), (960, 540), (960, 540), (960, 540), (960, 540), (960, 540), (960, 540), (960, 540), (960, 540), (960, 540), (960, 540), (960, 540), (960, 540), (960, 540), (960, 540), (960, 540), (960, 540), (960, 540), (960, 540), (960, 538), (960, 534), (962, 533), (965, 532), (967, 531), (970, 530), (972, 530), (972, 530), (972, 530), (972, 530), (972, 530), (972, 530), (972, 530), (972, 530), (972, 530), (972, 530), (972, 530), (972, 530), (972, 530), (972, 530), (972, 530), (972, 530), (972, 530), (972, 530), (972, 530), (972, 530), (972, 530), (972, 530), (972, 530), (972, 530), (972, 530), (972, 530), (972, 530), (972, 530), (972, 530), (972, 530), (972, 530), (972, 530), (972, 530), (972, 530), (972, 530), (973, 530), (973, 530), (973, 532), (973, 535), (973, 540), (972, 546), (971, 550), (970, 556), (965, 569), (962, 574), (961, 576), (959, 578), (959, 578), (959, 578), (959, 578), (959, 578), (959, 578), (959, 578), (959, 578), (959, 578), (956, 580), (952, 583), (944, 588), (934, 593), (905, 611), (886, 621), (867, 633), (848, 643), (809, 670), (791, 685), (768, 703), (747, 722), (719, 749), (702, 762), (690, 770), (675, 779), (652, 788), (642, 792)]",141.60483549675396,"[5, 8, 3, 4, 1, 2, 9, 6, 7]","(0, 0.25)",ENG008D,ENG,D,English,Wed Sep 05 14:56:07 2018,Mouse
1,0,4,0,17,7,7,1,510,420,90,138,0,500,200,8000,"[(960, 540), (960, 540), (960, 540), (960, 540), (960, 540), (960, 540), (960, 540), (960, 540), (960, 540), (960, 540), (960, 540), (960, 540), (960, 540), (960, 540), (960, 540), (960, 540), (960, 540), (960, 540), (960, 540), (960, 540), (960, 540), (960, 540), (960, 540), (960, 540), (960, 540), (960, 540), (960, 540), (960, 540), (960, 540), (960, 540), (960, 540), (960, 540), (960, 540), (960, 540), (960, 540), (960, 540), (960, 540), (960, 540), (960, 540), (960, 540), (960, 540), (985, 531), (1017, 517), (1046, 505), (1111, 481), (1139, 471), (1175, 462), (1208, 453), (1258, 441), (1336, 428), (1368, 425)]",344.25883316758797,"[5, 8, 3, 4, 1, 2, 9, 6, 7]","(0, 0.25)",ENG008D,ENG,D,English,Wed Sep 05 14:56:07 2018,Mouse
1,0,4,0,18,3,3,1,1241,941,300,137,0,500,200,8000,"[(960, 540), (960, 540), (960, 540), (960, 540), (960, 540), (960, 540), (960, 540), (960, 540), (960, 540), (960, 540), (960, 540), (960, 540), (960, 540), (960, 540), (960, 540), (960, 540), (960, 540), (960, 540), (960, 540), (960, 540), (960, 540), (960, 540), (960, 540), (960, 540), (960, 540), (960, 540), (960, 540), (960, 540), (960, 540), (960, 540), (960, 540), (960, 540), (960, 540), (960, 540), (960, 540), (960, 540), (960, 540), (960, 540), (960, 540), (960, 540), (960, 540), (960, 540), (960, 540), (960, 540), (960, 540), (960, 540), (960, 540), (960, 540), (960, 540), (960, 540), (960, 540), (960, 540), (960, 540), (960, 540), (960, 540), (960, 540), (960, 540), (960, 540), (960, 540), (960, 540), (960, 540), (960, 540), (960, 540), (960, 540), (960, 540), (960, 540), (960, 540), (960, 540), (960, 540), (960, 540), (960, 540), (960, 540), (960, 540), (960, 540), (960, 540), (960, 540), (960, 540), (960, 540), (960, 540), (960, 540), (960, 540), (960, 540), (960, 540), (960, 540), (960, 540), (960, 540), (960, 540), (960, 540), (960, 540), (960, 540), (960, 540), (960, 540), (960, 540), (960, 540), (959, 541), (957, 547), (953, 557), (946, 579), (942, 591), (938, 603), (936, 612), (930, 631), (929, 641), (927, 652), (926, 666), (926, 712), (926, 746), (926, 771), (926, 799), (926, 835), (923, 849), (921, 859), (921, 866), (920, 885), (919, 893), (919, 901), (918, 911), (915, 922), (915, 924), (915, 925), (915, 927), (914, 929), (914, 931), (914, 934), (914, 940)]",96.5601964005713,"[5, 8, 3, 4, 1, 2, 9, 6, 7]","(0, 0.25)",ENG008D,ENG,D,English,Wed Sep 05 14:56:07 2018,Mouse
1,0,4,0,19,1,1,1,361,221,140,136,0,500,200,8000,"[(960, 540), (960, 540), (960, 540), (960, 540), (960, 540), (960, 540), (960, 540), (960, 540), (960, 540), (960, 540), (960, 540), (960, 540), (960, 540), (960, 540), (960, 540), (960, 540), (960, 540), (960, 540), (960, 540), (960, 540), (960, 540), (960, 540), (958, 539), (949, 539), (920, 539), (900, 539), (878, 539), (853, 539), (805, 539), (777, 539), (752, 539), (724, 539), (668, 539), (646, 539), (621, 539), (601, 539), (546, 545)]",179.30805562782538,"[5, 8, 3, 4, 1, 2, 9, 6, 7]","(0, 0.25)",ENG008D,ENG,D,English,Wed Sep 05 14:56:07 2018,Mouse
1,0,4,0,20,8,8,1,420,270,150,135,0,500,200,8000,"[(960, 540), (960, 540), (960, 540), (960, 540), (960, 540), (960, 540), (960, 540), (960, 540), (960, 540), (960, 540), (960, 540), (960, 540), (960, 540), (960, 540), (960, 540), (960, 540), (960, 540), (960, 540), (960, 540), (960, 540), (960, 540), (960, 540), (960, 540), (960, 540), (960, 540), (960, 540), (961, 543), (965, 548), (969, 552), (976, 559), (987, 569), (994, 578), (1001, 587), (1010, 600), (1030, 638), (1039, 661), (1051, 680), (1063, 707), (1098, 776), (1122, 823), (1148, 866), (1168, 902)]",60.118943607085306,"[5, 8, 3, 4, 1, 2, 9, 6, 7]","(0, 0.25)",ENG008D,ENG,D,English,Wed Sep 05 14:56:07 2018,Mouse
1,0,4,0,21,8,2,0,-460,290,170,134,0,500,200,8000,"[(960, 540), (960, 540), (960, 540), (960, 540), (960, 540), (960, 540), (960, 540), (960, 540), (960, 540), (960, 540), (960, 540), (960, 540), (960, 540), (960, 540), (960, 540), (960, 540), (960, 540), (960, 540), (960, 540), (960, 540), (960, 540), (960, 540), (960, 540), (960, 540), (960, 540), (960, 540), (960, 540), (960, 540), (959, 539), (957, 534), (955, 527), (951, 518), (943, 500), (938, 492), (931, 483), (926, 477), (909, 458), (899, 446), (885, 428), (872, 411), (830, 357), (810, 336), (783, 309), (757, 286), (706, 247), (681, 230)]",228.01278750418334,"[5, 8, 3, 4, 1, 2, 9, 6, 7]","(0, 0.25)",ENG008D,ENG,D,English,Wed Sep 05 14:56:07 2018,Mouse
1,0,4,0,22,3,3,1,721,601,120,135,0,500,200,8000,"[(960, 540), (960, 540), (960, 540), (960, 540), (960, 540), (960, 540), (960, 540), (960, 540), (960, 540), (960, 540), (960, 540), (960, 540), (960, 540), (960, 540), (960, 540), (960, 540), (960, 540), (960, 540), (960, 540), (960, 540), (960, 540), (960, 540), (960, 540), (960, 540), (960, 540), (960, 540), (960, 540), (960, 540), (960, 540), (960, 540), (960, 540), (960, 540), (960, 540), (960, 540), (960, 540), (960, 540), (960, 540), (960, 540), (960, 540), (960, 540), (960, 540), (960, 540), (960, 540), (960, 540), (960, 540), (960, 540), (960, 540), (960, 540), (960, 540), (960, 540), (960, 540), (960, 540), (960, 540), (960, 540), (960, 540), (960, 540), (960, 540), (960, 540), (960, 540), (960, 540), (957, 544), (951, 552), (937, 571), (929, 586), (914, 620), (899, 660), (877, 730), (869, 766), (858, 794), (855, 823), (840, 884), (833, 916), (829, 956)]",107.47941528168094,"[5, 8, 3, 4, 1, 2, 9, 6, 7]","(0, 0.25)",ENG008D,ENG,D,English,Wed Sep 05 14:56:07 2018,Mouse
1,0,4,0,23,2,8,0,-460,290,170,135,0,500,200,8000,"[(960, 540), (960, 540), (960, 540), (960, 540), (960, 540), (960, 540), (960, 540), (960, 540), (960, 540), (960, 540), (960, 540), (960, 540), (960, 540), (960, 540), (960, 540), (960, 540), (960, 540), (960, 540), (960, 540), (960, 540), (960, 540), (960, 540), (960, 540), (960, 540), (960, 540), (960, 540), (960, 540), (960, 540), (962, 539), (963, 539), (964, 539), (966, 541), (968, 544), (971, 547), (974, 550), (978, 553), (988, 563), (996, 573), (1002, 587), (1016, 614), (1053, 690), (1073, 735), (1093, 783), (1111, 829), (1132, 893), (1138, 915)]",64.60786664192196,"[5, 8, 3, 4, 1, 2, 9, 6, 7]","(0, 0.25)",ENG008D,ENG,D,English,Wed Sep 05 14:56:07 2018,Mouse
1,0,4,0,24,8,8,1,370,40,330,136,0,500,200,8000,"[(960, 540), (960, 540), (960, 540), (960, 541), (961, 545), (964, 549), (965, 550), (968, 555), (974, 561), (978, 563), (982, 566), (984, 568), (993, 577), (997, 582), (1001, 587), (1003, 591), (1010, 600), (1012, 605), (1017, 611), (1023, 620), (1037, 643), (1046, 657), (1053, 670), (1064, 687), (1079, 716), (1085, 726), (1088, 733), (1093, 745), (1095, 760), (1096, 774), (1098, 787), (1098, 802), (1098, 834), (1098, 853), (1103, 878), (1109, 908), (1124, 966)]",68.94446576676967,"[5, 8, 3, 4, 1, 2, 9, 6, 7]","(0, 0.25)",ENG008D,ENG,D,English,Wed Sep 05 14:56:07 2018,Mouse
1,0,4,0,25,6,6,1,541,430,111,136,0,500,200,8000,"[(960, 540), (960, 540), (960, 540), (960, 540), (960, 540), (960, 540), (960, 540), (960, 540), (960, 540), (960, 540), (960, 540), (960, 540), (960, 540), (960, 540), (960, 540), (960, 540), (960, 540), (960, 540), (960, 540), (960, 540), (960, 540), (960, 540), (960, 540), (960, 540), (960, 540), (960, 540), (960, 540), (960, 540), (960, 540), (960, 540), (960, 540), (960, 540), (960, 540), (960, 540), (960, 540), (960, 540), (960, 540), (960, 540), (960, 540), (960, 540), (960, 540), (960, 540), (960, 537), (965, 530), (971, 521), (978, 513), (1004, 478), (1031, 451), (1063, 416), (1096, 381), (1156, 307), (1186, 268), (1210, 237), (1231, 209)]",309.308254157713,"[5, 8, 3, 4, 1, 2, 9, 6, 7]","(0, 0.25)",ENG008D,ENG,D,English,Wed Sep 05 14:56:07 2018,Mouse
1,0,4,0,26,2,7,0,-410,160,250,135,0,500,200,8000,"[(960, 540), (960, 540), (960, 540), (960, 540), (960, 540), (960, 540), (960, 540), (960, 540), (960, 540), (960, 540), (960, 540), (960, 540), (960, 540), (960, 540), (960, 540), (960, 541), (961, 543), (971, 544), (982, 549), (1007, 553), (1022, 553), (1036, 553), (1054, 553), (1099, 542), (1122, 533), (1140, 525), (1150, 519), (1173, 506), (1182, 501), (1194, 493), (1205, 485), (1227, 470), (1242, 459), (1253, 451), (1267, 440), (1291, 423), (1301, 415), (1310, 409), (1318, 402), (1330, 391), (1333, 389)]",337.9606306379023,"[5, 8, 3, 4, 1, 2, 9, 6, 7]","(0, 0.25)",ENG008D,ENG,D,English,Wed Sep 05 14:56:07 2018,Mouse
1,0,4,0,27,6,6,1,789,30,759,136,0,500,200,8000,"[(960, 540), (960, 540), (960, 542), (960, 542), (960, 542), (960, 543), (960, 545), (960, 545), (961, 546), (961, 549), (961, 549), (962, 551), (963, 553), (969, 561), (974, 566), (983, 578), (998, 595), (1033, 639), (1050, 657), (1062, 672), (1072, 684), (1088, 702), (1092, 709), (1096, 714), (1100, 721), (1104, 730), (1104, 734), (1104, 738), (1104, 744), (1106, 755), (1106, 761), (1108, 766), (1108, 769), (1109, 772), (1109, 772), (1110, 774), (1110, 774), (1110, 774), (1110, 774), (1110, 774), (1110, 774), (1110, 774), (1110, 774), (1110, 774), (1110, 774), (1110, 774), (1110, 774), (1110, 774), (1112, 772), (1112, 770), (1112, 768), (1112, 768), (1112, 767), (1112, 765), (1112, 765), (1112, 764), (1112, 764), (1112, 762), (1112, 762), (1112, 761), (1112, 761), (1112, 759), (1112, 758), (1112, 757), (1112, 756), (1112, 755), (1112, 745), (1112, 736), (1113, 721), (1117, 703), (1128, 636), (1135, 587), (1139, 537), (1147, 482), (1151, 368), (1155, 309), (1159, 261), (1165, 215), (1165, 143)]",297.3105998200078,"[5, 8, 3, 4, 1, 2, 9, 6, 7]","(0, 0.25)",ENG008D,ENG,D,English,Wed Sep 05 14:56:07 2018,Mouse
1,0,4,0,28,5,5,1,1330,850,480,136,0,500,200,8000,"[(960, 540), (960, 540), (960, 540), (960, 540), (960, 540), (960, 540), (960, 540), (960, 540), (960, 540), (960, 540), (960, 540), (960, 540), (960, 540), (960, 540), (960, 540), (960, 540), (960, 540), (960, 540), (960, 540), (960, 540), (960, 540), (960, 540), (960, 540), (960, 540), (960, 540), (960, 540), (960, 540), (960, 540), (960, 540), (960, 540), (960, 540), (960, 540), (960, 540), (960, 540), (960, 540), (960, 540), (960, 540), (960, 540), (960, 540), (960, 540), (960, 540), (960, 540), (960, 540), (960, 540), (960, 540), (960, 540), (960, 540), (960, 540), (960, 540), (960, 540), (960, 540), (960, 540), (960, 540), (960, 540), (960, 540), (960, 540), (960, 540), (960, 540), (960, 540), (960, 540), (960, 540), (960, 540), (960, 540), (960, 540), (960, 540), (960, 540), (960, 540), (960, 540), (960, 540), (960, 540), (960, 540), (960, 540), (960, 540), (960, 540), (960, 540), (960, 540), (960, 540), (960, 540), (960, 540), (960, 540), (960, 540), (960, 540), (960, 540), (960, 540), (959, 541), (959, 541), (959, 541), (958, 541), (958, 541), (958, 541), (958, 541), (958, 541), (958, 541), (958, 541), (958, 541), (958, 542), (958, 542), (958, 542), (958, 542), (958, 542), (958, 542), (958, 542), (958, 542), (958, 542), (958, 542), (958, 542), (958, 543), (958, 543), (958, 544), (958, 545), (958, 547), (961, 549), (965, 552), (969, 553), (985, 562), (995, 565), (1003, 569), (1019, 576), (1048, 588), (1074, 599), (1098, 609), (1121, 618), (1166, 632), (1188, 637), (1211, 645), (1232, 648), (1263, 653), (1275, 654), (1289, 655), (1301, 655), (1324, 655), (1337, 658), (1348, 660)]",17.18570614422477,"[5, 8, 3, 4, 1, 2, 9, 6, 7]","(0, 0.25)",ENG008D,ENG,D,English,Wed Sep 05 14:56:07 2018,Mouse
1,0,4,0,29,4,4,1,710,390,320,135,0,500,200,8000,"[(960, 540), (960, 540), (960, 540), (960, 540), (960, 540), (960, 540), (960, 540), (960, 540), (960, 540), (960, 540), (960, 540), (960, 540), (960, 540), (960, 540), (960, 540), (960, 540), (960, 540), (960, 540), (960, 540), (960, 540), (960, 540), (960, 540), (960, 540), (960, 540), (960, 540), (960, 540), (960, 540), (960, 540), (960, 540), (960, 540), (960, 540), (960, 540), (960, 540), (960, 540), (960, 540), (960, 540), (960, 540), (960, 540), (959, 540), (959, 540), (958, 540), (956, 540), (955, 541), (953, 541), (949, 543), (948, 544), (945, 545), (939, 549), (936, 552), (929, 556), (921, 559), (914, 563), (894, 578), (881, 585), (869, 592), (858, 599), (832, 618), (822, 629), (812, 639), (803, 649), (775, 687), (761, 702), (746, 720), (734, 735), (714, 753), (703, 760), (693, 766), (675, 777), (668, 782), (660, 789), (652, 799)]",139.9392155421262,"[5, 8, 3, 4, 1, 2, 9, 6, 7]","(0, 0.25)",ENG008D,ENG,D,English,Wed Sep 05 14:56:07 2018,Mouse
1,0,4,0,30,7,7,1,520,280,240,134,0,500,200,8000,"[(960, 540), (960, 540), (960, 540), (960, 540), (960, 540), (960, 540), (960, 540), (960, 540), (960, 540), (960, 540), (960, 540), (960, 540), (960, 540), (960, 540), (960, 540), (960, 540), (960, 540), (960, 540), (960, 540), (960, 540), (960, 540), (960, 540), (960, 540), (960, 540), (960, 540), (960, 540), (960, 540), (963, 540), (969, 540), (976, 541), (983, 541), (1001, 542), (1009, 542), (1017, 542), (1025, 542), (1038, 542), (1045, 541), (1052, 539), (1058, 535), (1075, 524), (1082, 518), (1093, 510), (1101, 506), (1124, 495), (1141, 487), (1172, 475), (1203, 466), (1249, 457), (1274, 456), (1301, 451), (1331, 446), (1410, 428)]",346.0236893339731,"[5, 8, 3, 4, 1, 2, 9, 6, 7]","(0, 0.25)",ENG008D,ENG,D,English,Wed Sep 05 14:56:07 2018,Mouse
1,0,4,0,31,1,9,0,-1712,1342,370,133,0,500,200,8000,"[(960, 540), (960, 540), (960, 540), (960, 540), (960, 540), (960, 540), (960, 540), (960, 540), (960, 540), (960, 540), (960, 540), (960, 540), (960, 540), (960, 540), (960, 540), (960, 540), (960, 540), (960, 540), (960, 540), (960, 540), (960, 540), (960, 540), (960, 540), (960, 540), (960, 540), (960, 540), (960, 540), (960, 540), (960, 540), (960, 540), (960, 540), (960, 540), (960, 540), (960, 540), (960, 540), (960, 540), (960, 540), (960, 540), (960, 540), (960, 540), (960, 540), (960, 540), (960, 540), (960, 540), (960, 540), (960, 540), (960, 540), (960, 540), (960, 540), (960, 540), (960, 540), (960, 540), (960, 540), (960, 540), (960, 540), (960, 540), (960, 540), (960, 540), (960, 540), (960, 540), (960, 540), (960, 540), (960, 540), (960, 540), (960, 540), (960, 540), (960, 540), (960, 540), (960, 540), (960, 540), (960, 540), (960, 540), (960, 540), (960, 540), (960, 540), (960, 540), (960, 540), (960, 540), (960, 540), (960, 540), (960, 540), (960, 540), (960, 540), (960, 540), (960, 540), (960, 540), (960, 540), (960, 540), (960, 540), (960, 540), (960, 540), (960, 540), (960, 540), (960, 540), (960, 540), (960, 540), (960, 540), (960, 540), (960, 540), (960, 540), (960, 540), (960, 540), (960, 540), (960, 540), (960, 540), (960, 540), (960, 540), (960, 540), (960, 540), (960, 540), (960, 540), (960, 540), (960, 540), (960, 540), (960, 540), (960, 540), (960, 540), (960, 540), (960, 540), (960, 540), (960, 540), (960, 540), (960, 540), (960, 540), (960, 540), (960, 540), (960, 540), (960, 540), (960, 540), (960, 540), (960, 540), (960, 540), (960, 540), (960, 540), (960, 539), (965, 514), (966, 500), (972, 476), (981, 433), (990, 363), (991, 343), (991, 329), (991, 319), (991, 306), (991, 302), (990, 300), (989, 300), (989, 298), (989, 298), (989, 298), (989, 298), (989, 298), (989, 298), (988, 298), (987, 298), (986, 298), (986, 298), (986, 298), (986, 298), (986, 298), (986, 298), (986, 298), (986, 298), (986, 298), (986, 298), (984, 298), (979, 294), (956, 259), (941, 235), (927, 213), (908, 185), (870, 119)]",257.93312860192486,"[5, 8, 3, 4, 1, 2, 9, 6, 7]","(0, 0.25)",ENG008D,ENG,D,English,Wed Sep 05 14:56:07 2018,Mouse
1,0,4,0,32,8,8,1,629,399,230,134,0,500,200,8000,"[(960, 540), (960, 540), (960, 540), (960, 540), (960, 540), (960, 540), (960, 540), (960, 540), (960, 540), (960, 540), (960, 540), (960, 540), (960, 540), (960, 540), (960, 540), (960, 540), (960, 540), (960, 540), (960, 540), (960, 540), (960, 540), (960, 540), (960, 540), (960, 540), (960, 540), (960, 540), (960, 540), (960, 540), (960, 540), (960, 540), (960, 540), (960, 540), (960, 540), (960, 540), (960, 540), (960, 540), (960, 540), (960, 540), (960, 540), (963, 540), (970, 540), (972, 540), (984, 540), (987, 540), (989, 540), (992, 540), (992, 540), (992, 540), (992, 540), (992, 540), (992, 540), (992, 540), (993, 540), (993, 541), (994, 553), (997, 561), (1005, 578), (1020, 605), (1063, 684), (1101, 739), (1125, 803), (1156, 856), (1195, 926)]",58.66659840607945,"[5, 8, 3, 4, 1, 2, 9, 6, 7]","(0, 0.25)",ENG008D,ENG,D,English,Wed Sep 05 14:56:07 2018,Mouse
1,0,4,0,33,8,8,1,319,19,300,134,0,500,200,8000,"[(963, 546), (966, 551), (970, 561), (977, 573), (982, 582), (986, 592), (989, 602), (993, 612), (996, 617), (997, 619), (998, 624), (1002, 629), (1004, 634), (1009, 640), (1010, 644), (1019, 654), (1023, 658), (1025, 662), (1029, 667), (1039, 682), (1046, 693), (1056, 705), (1066, 719), (1095, 759), (1111, 780), (1126, 800), (1139, 815), (1155, 840), (1162, 849), (1168, 860), (1170, 866), (1175, 879)]",57.61638238992301,"[5, 8, 3, 4, 1, 2, 9, 6, 7]","(0, 0.25)",ENG008D,ENG,D,English,Wed Sep 05 14:56:07 2018,Mouse
1,0,4,0,34,5,6,0,-641,391,250,133,0,500,200,8000,"[(960, 540), (960, 540), (960, 540), (960, 540), (960, 540), (960, 540), (960, 540), (960, 540), (960, 540), (960, 540), (960, 540), (960, 540), (960, 540), (960, 540), (960, 540), (960, 540), (960, 540), (960, 540), (960, 540), (960, 540), (960, 540), (960, 540), (960, 540), (960, 540), (960, 540), (960, 540), (960, 540), (960, 540), (960, 540), (960, 540), (960, 540), (960, 540), (960, 540), (960, 540), (960, 540), (960, 540), (960, 540), (960, 540), (960, 540), (959, 537), (959, 532), (961, 524), (963, 513), (971, 481), (981, 457), (997, 423), (1007, 406), (1017, 375), (1024, 355), (1027, 342), (1034, 326), (1050, 292), (1055, 279), (1058, 269), (1062, 259), (1073, 239), (1081, 229), (1089, 220), (1096, 214), (1103, 204), (1107, 199), (1110, 194), (1115, 185), (1119, 175), (1122, 169)]",293.58885738414983,"[5, 8, 3, 4, 1, 2, 9, 6, 7]","(0, 0.25)",ENG008D,ENG,D,English,Wed Sep 05 14:56:07 2018,Mouse
1,0,4,0,35,5,5,1,430,100,330,134,0,500,200,8000,"[(960, 540), (960, 540), (960, 540), (960, 540), (960, 540), (960, 540), (960, 540), (960, 540), (960, 540), (961, 542), (961, 542), (962, 543), (963, 544), (964, 545), (964, 546), (966, 548), (966, 548), (968, 550), (969, 552), (970, 552), (971, 554), (975, 558), (976, 559), (979, 561), (981, 562), (988, 566), (988, 566), (990, 568), (993, 569), (997, 572), (1001, 574), (1006, 576), (1012, 580), (1032, 591), (1044, 598), (1061, 609), (1082, 620), (1135, 643), (1169, 657), (1201, 669), (1238, 686), (1298, 710), (1329, 721)]",26.128639098312828,"[5, 8, 3, 4, 1, 2, 9, 6, 7]","(0, 0.25)",ENG008D,ENG,D,English,Wed Sep 05 14:56:07 2018,Mouse
1,0,4,0,36,8,8,1,330,180,150,134,0,500,200,8000,"[(960, 540), (960, 540), (960, 540), (960, 540), (960, 540), (960, 540), (960, 540), (960, 540), (960, 540), (960, 540), (960, 540), (960, 540), (960, 540), (960, 540), (960, 540), (960, 540), (960, 540), (959, 541), (959, 542), (959, 543), (965, 547), (971, 551), (974, 552), (981, 557), (994, 564), (1003, 570), (1012, 580), (1026, 592), (1074, 655), (1109, 707), (1136, 762), (1165, 814), (1202, 894)]",55.64287074470358,"[5, 8, 3, 4, 1, 2, 9, 6, 7]","(0, 0.25)",ENG008D,ENG,D,English,Wed Sep 05 14:56:07 2018,Mouse
1,0,4,0,37,5,6,0,-560,440,120,133,0,500,200,8000,"[(960, 540), (960, 540), (960, 540), (960, 540), (960, 540), (960, 540), (960, 540), (960, 540), (960, 540), (960, 540), (960, 540), (960, 540), (960, 540), (960, 540), (960, 540), (960, 540), (960, 540), (960, 540), (960, 540), (960, 540), (960, 540), (960, 540), (960, 540), (960, 540), (960, 540), (960, 540), (960, 540), (960, 540), (960, 540), (960, 540), (960, 540), (960, 540), (960, 540), (960, 540), (960, 540), (960, 540), (960, 540), (960, 540), (960, 540), (960, 540), (960, 540), (960, 540), (960, 540), (961, 534), (967, 529), (974, 522), (998, 502), (1014, 486), (1035, 464), (1054, 446), (1092, 392), (1113, 367), (1133, 334), (1148, 304), (1174, 231), (1183, 200)]",303.260161832229,"[5, 8, 3, 4, 1, 2, 9, 6, 7]","(0, 0.25)",ENG008D,ENG,D,English,Wed Sep 05 14:56:07 2018,Mouse
1,0,4,0,38,3,5,0,-390,210,180,134,0,500,200,8000,"[(960, 540), (960, 540), (960, 540), (960, 540), (960, 540), (960, 540), (960, 540), (960, 540), (960, 540), (960, 540), (960, 540), (960, 540), (960, 540), (960, 540), (960, 540), (960, 540), (960, 540), (960, 540), (960, 540), (960, 540), (961, 540), (967, 548), (971, 551), (975, 556), (979, 560), (990, 570), (999, 576), (1006, 581), (1018, 587), (1044, 602), (1065, 613), (1092, 626), (1118, 636), (1170, 659), (1200, 666), (1231, 676), (1261, 683), (1323, 693), (1350, 696)]",21.80140948635181,"[5, 8, 3, 4, 1, 2, 9, 6, 7]","(0, 0.25)",ENG008D,ENG,D,English,Wed Sep 05 14:56:07 2018,Mouse
1,0,4,0,39,2,2,1,549,319,230,135,0,500,200,8000,"[(960, 540), (960, 540), (960, 540), (960, 540), (960, 540), (960, 540), (960, 540), (960, 540), (960, 540), (960, 540), (960, 540), (960, 540), (960, 540), (960, 540), (960, 540), (960, 540), (960, 540), (960, 540), (960, 540), (960, 540), (960, 540), (960, 540), (960, 540), (960, 540), (960, 540), (960, 540), (960, 540), (960, 540), (960, 540), (960, 540), (960, 540), (957, 539), (954, 533), (950, 527), (937, 513), (928, 505), (915, 491), (903, 476), (875, 449), (866, 442), (856, 435), (846, 430), (832, 421), (827, 418), (822, 413), (817, 407), (805, 393), (796, 381), (786, 369), (776, 359), (746, 332), (728, 319), (714, 308), (689, 292), (644, 259)]",221.64479145337626,"[5, 8, 3, 4, 1, 2, 9, 6, 7]","(0, 0.25)",ENG008D,ENG,D,English,Wed Sep 05 14:56:07 2018,Mouse
1,0,4,0,40,6,6,1,751,601,150,135,0,500,200,8000,"[(960, 540), (960, 540), (960, 540), (960, 540), (960, 540), (960, 540), (960, 540), (960, 540), (960, 540), (960, 540), (960, 540), (960, 540), (960, 540), (960, 540), (960, 540), (960, 540), (960, 540), (960, 540), (960, 540), (960, 540), (960, 540), (960, 540), (960, 540), (960, 540), (960, 540), (960, 540), (960, 540), (960, 540), (960, 540), (960, 540), (960, 540), (960, 540), (960, 540), (960, 540), (960, 540), (960, 540), (960, 540), (960, 540), (960, 540), (960, 540), (960, 540), (960, 540), (960, 540), (960, 540), (960, 540), (960, 540), (960, 540), (960, 540), (960, 540), (960, 540), (960, 540), (960, 540), (960, 540), (960, 540), (960, 540), (960, 540), (960, 540), (960, 540), (960, 540), (960, 540), (965, 538), (973, 532), (981, 524), (1013, 496), (1029, 476), (1049, 452), (1073, 421), (1112, 370), (1131, 345), (1141, 323), (1156, 299), (1172, 258), (1178, 243), (1185, 225), (1190, 214), (1201, 187)]",304.32211732568595,"[5, 8, 3, 4, 1, 2, 9, 6, 7]","(0, 0.25)",ENG008D,ENG,D,English,Wed Sep 05 14:56:07 2018,Mouse
1,0,4,0,41,5,5,1,881,751,130,134,0,500,200,8000,"[(960, 540), (960, 540), (960, 540), (960, 540), (960, 540), (960, 540), (960, 540), (960, 540), (960, 540), (960, 540), (960, 540), (960, 540), (960, 540), (960, 540), (960, 540), (960, 540), (960, 540), (960, 540), (960, 540), (960, 540), (960, 540), (960, 540), (960, 540), (960, 540), (960, 540), (960, 540), (960, 540), (960, 540), (960, 540), (960, 540), (960, 540), (960, 540), (960, 540), (960, 540), (960, 540), (960, 540), (960, 540), (960, 540), (960, 540), (960, 540), (960, 540), (960, 540), (960, 540), (960, 540), (960, 540), (960, 540), (960, 540), (960, 540), (960, 540), (960, 540), (960, 540), (960, 540), (960, 540), (960, 540), (960, 540), (960, 540), (960, 540), (960, 540), (960, 540), (960, 540), (960, 540), (960, 540), (960, 540), (960, 540), (960, 540), (960, 540), (960, 540), (960, 540), (960, 540), (960, 540), (960, 540), (960, 540), (960, 540), (960, 540), (960, 540), (960, 543), (960, 545), (962, 550), (968, 555), (980, 561), (988, 565), (998, 568), (1012, 575), (1073, 600), (1113, 618), (1158, 637), (1210, 666), (1312, 711), (1360, 729)]",25.290734392148202,"[5, 8, 3, 4, 1, 2, 9, 6, 7]","(0, 0.25)",ENG008D,ENG,D,English,Wed Sep 05 14:56:07 2018,Mouse
1,0,4,0,42,2,7,0,-410,120,290,133,0,500,200,8000,"[(960, 540), (960, 540), (960, 540), (960, 540), (960, 540), (960, 540), (960, 540), (960, 540), (960, 540), (960, 540), (960, 540), (959, 540), (959, 540), (959, 540), (959, 540), (959, 540), (959, 540), (959, 540), (959, 540), (959, 540), (959, 540), (959, 540), (959, 540), (959, 540), (959, 540), (959, 540), (961, 539), (967, 537), (983, 529), (993, 527), (1011, 522), (1033, 516), (1071, 508), (1098, 501), (1123, 494), (1151, 485), (1211, 465), (1239, 455), (1268, 441), (1292, 432), (1343, 414)]",341.7897393567025,"[5, 8, 3, 4, 1, 2, 9, 6, 7]","(0, 0.25)",ENG008D,ENG,D,English,Wed Sep 05 14:56:07 2018,Mouse
1,0,4,0,43,4,6,0,-651,541,110,134,0,500,200,8000,"[(960, 540), (960, 540), (960, 540), (960, 540), (960, 540), (960, 540), (960, 540), (960, 540), (960, 540), (960, 540), (960, 540), (960, 540), (960, 540), (960, 540), (960, 540), (960, 540), (960, 540), (960, 540), (960, 540), (960, 540), (960, 540), (960, 540), (960, 540), (960, 540), (960, 540), (960, 540), (960, 540), (960, 540), (960, 540), (960, 540), (960, 540), (960, 540), (960, 540), (960, 540), (960, 540), (960, 540), (960, 540), (960, 540), (960, 540), (960, 540), (960, 540), (960, 540), (960, 540), (960, 540), (960, 540), (960, 540), (960, 540), (960, 540), (960, 540), (960, 540), (960, 540), (960, 540), (960, 540), (965, 531), (974, 510), (980, 497), (990, 484), (1008, 453), (1068, 365), (1090, 331), (1108, 301), (1123, 277), (1149, 216), (1158, 193), (1172, 163)]",299.3505374496918,"[5, 8, 3, 4, 1, 2, 9, 6, 7]","(0, 0.25)",ENG008D,ENG,D,English,Wed Sep 05 14:56:07 2018,Mouse
1,0,4,0,44,9,6,0,-580,480,100,135,0,500,200,8000,"[(960, 540), (960, 540), (960, 540), (960, 540), (960, 540), (960, 540), (960, 540), (960, 540), (960, 540), (960, 540), (960, 540), (960, 540), (960, 540), (960, 540), (960, 540), (960, 540), (960, 540), (960, 540), (960, 540), (960, 540), (960, 540), (960, 540), (960, 540), (960, 540), (960, 540), (960, 540), (960, 540), (960, 540), (960, 540), (960, 540), (960, 540), (960, 540), (960, 540), (960, 540), (960, 540), (960, 540), (960, 540), (960, 540), (960, 540), (960, 540), (960, 540), (960, 540), (960, 540), (960, 540), (960, 540), (960, 540), (960, 540), (961, 535), (971, 510), (980, 487), (998, 455), (1016, 419), (1056, 349), (1072, 317), (1082, 288), (1096, 254), (1125, 185), (1136, 151)]",294.34400101175925,"[5, 8, 3, 4, 1, 2, 9, 6, 7]","(0, 0.25)",ENG008D,ENG,D,English,Wed Sep 05 14:56:07 2018,Mouse
1,0,4,0,45,1,5,0,-2378,2218,160,136,0,500,200,8000,"[(960, 540), (960, 540), (960, 540), (960, 540), (960, 540), (960, 540), (960, 540), (960, 540), (960, 540), (960, 540), (960, 540), (960, 540), (960, 540), (960, 540), (960, 540), (960, 540), (960, 540), (960, 540), (960, 540), (960, 540), (960, 540), (960, 540), (960, 540), (960, 540), (960, 540), (960, 540), (960, 540), (960, 540), (960, 540), (960, 540), (960, 540), (960, 540), (960, 540), (960, 540), (960, 540), (960, 540), (960, 540), (960, 540), (960, 540), (960, 540), (960, 540), (960, 540), (960, 540), (960, 540), (960, 540), (960, 540), (960, 540), (960, 540), (960, 540), (960, 540), (960, 540), (960, 540), (960, 540), (960, 540), (960, 540), (960, 540), (960, 540), (960, 540), (960, 540), (960, 540), (960, 540), (960, 540), (960, 540), (960, 540), (960, 540), (960, 540), (960, 540), (960, 540), (960, 540), (960, 540), (960, 540), (960, 540), (960, 540), (960, 540), (960, 540), (960, 540), (960, 540), (960, 540), (960, 540), (960, 540), (960, 540), (960, 540), (960, 540), (960, 540), (960, 540), (960, 540), (960, 540), (960, 540), (960, 540), (960, 540), (960, 540), (960, 540), (960, 540), (960, 540), (960, 540), (960, 540), (960, 540), (960, 540), (960, 540), (960, 540), (960, 540), (960, 540), (960, 540), (960, 540), (960, 540), (960, 540), (960, 540), (960, 540), (960, 540), (960, 540), (960, 540), (960, 540), (960, 540), (960, 540), (960, 540), (960, 540), (960, 540), (960, 540), (960, 540), (960, 540), (960, 540), (960, 540), (960, 540), (960, 540), (960, 540), (960, 540), (960, 540), (960, 540), (960, 540), (960, 540), (960, 540), (960, 540), (960, 540), (960, 540), (960, 540), (960, 540), (960, 540), (960, 540), (960, 540), (960, 540), (960, 540), (960, 540), (960, 540), (960, 540), (960, 540), (960, 540), (960, 540), (960, 540), (960, 540), (960, 540), (960, 540), (960, 540), (960, 540), (960, 540), (960, 540), (960, 540), (960, 540), (960, 540), (960, 540), (960, 540), (960, 540), (960, 540), (960, 540), (960, 540), (960, 540), (960, 540), (960, 540), (960, 540), (960, 540), (960, 540), (960, 540), (960, 540), (960, 540), (960, 540), (960, 540), (960, 540), (960, 540), (960, 540), (960, 540), (960, 540), (960, 540), (960, 540), (960, 540), (960, 540), (960, 540), (960, 540), (960, 540), (960, 540), (960, 540), (960, 540), (960, 540), (960, 540), (960, 540), (960, 540), (960, 540), (960, 540), (960, 540), (960, 540), (960, 540), (960, 540), (960, 540), (960, 540), (960, 540), (960, 540), (960, 540), (960, 540), (960, 540), (960, 540), (960, 540), (960, 540), (960, 540), (960, 540), (960, 540), (960, 540), (960, 540), (960, 540), (960, 540), (960, 540), (960, 540), (960, 540), (960, 540), (960, 541), (974, 549), (986, 554), (999, 557), (1013, 563), (1047, 573), (1070, 581), (1096, 589), (1118, 597), (1174, 611), (1197, 620), (1222, 627), (1250, 635), (1294, 647), (1309, 653), (1327, 660), (1342, 666)]",18.254774009553795,"[5, 8, 3, 4, 1, 2, 9, 6, 7]","(0, 0.25)",ENG008D,ENG,D,English,Wed Sep 05 14:56:07 2018,Mouse
1,0,4,0,46,2,2,1,440,290,150,137,0,500,200,8000,"[(960, 540), (960, 540), (960, 540), (960, 540), (960, 540), (960, 540), (960, 540), (960, 540), (960, 540), (960, 540), (960, 540), (960, 540), (960, 540), (960, 540), (960, 540), (960, 540), (960, 540), (960, 540), (960, 540), (960, 540), (960, 540), (960, 540), (960, 540), (960, 540), (960, 540), (960, 540), (960, 540), (960, 540), (956, 540), (951, 539), (943, 536), (925, 529), (917, 524), (907, 520), (894, 514), (872, 502), (860, 494), (848, 482), (829, 456), (797, 404), (777, 371), (748, 332), (716, 292), (641, 221)]",225.0,"[5, 8, 3, 4, 1, 2, 9, 6, 7]","(0, 0.25)",ENG008D,ENG,D,English,Wed Sep 05 14:56:07 2018,Mouse
1,0,4,0,47,9,9,1,1451,191,1260,137,0,500,200,8000,"[(960, 540), (960, 540), (960, 540), (960, 540), (960, 540), (960, 540), (960, 540), (960, 540), (960, 540), (960, 540), (960, 540), (960, 540), (960, 540), (960, 540), (960, 540), (960, 540), (960, 540), (960, 540), (960, 540), (962, 541), (966, 543), (970, 545), (975, 547), (989, 550), (995, 553), (1002, 553), (1007, 554), (1015, 555), (1017, 555), (1019, 555), (1019, 555), (1020, 555), (1020, 555), (1020, 555), (1020, 555), (1021, 555), (1021, 556), (1022, 556), (1022, 556), (1024, 558), (1024, 558), (1025, 558), (1025, 558), (1025, 558), (1025, 558), (1025, 558), (1025, 558), (1025, 558), (1025, 558), (1025, 558), (1025, 558), (1025, 558), (1025, 558), (1025, 558), (1025, 558), (1025, 558), (1025, 558), (1025, 558), (1025, 558), (1026, 558), (1026, 558), (1026, 559), (1026, 560), (1026, 560), (1026, 562), (1026, 562), (1027, 563), (1027, 563), (1027, 563), (1027, 563), (1027, 563), (1027, 563), (1027, 563), (1027, 563), (1027, 563), (1027, 563), (1027, 563), (1027, 563), (1027, 563), (1027, 563), (1027, 563), (1027, 563), (1027, 563), (1027, 563), (1027, 563), (1027, 563), (1027, 563), (1027, 563), (1027, 563), (1027, 563), (1027, 563), (1027, 563), (1027, 563), (1027, 563), (1027, 563), (1027, 563), (1027, 564), (1027, 564), (1027, 564), (1027, 564), (1027, 564), (1027, 564), (1027, 564), (1027, 564), (1027, 564), (1027, 564), (1027, 564), (1027, 564), (1027, 564), (1027, 564), (1027, 564), (1027, 564), (1027, 564), (1027, 564), (1027, 564), (1027, 564), (1027, 564), (1027, 564), (1027, 565), (1027, 565), (1025, 565), (1025, 565), (1025, 565), (1024, 565), (1024, 565), (1024, 565), (1024, 565), (1022, 565), (1021, 565), (1021, 565), (1018, 562), (1016, 560), (1014, 555), (1012, 549), (1002, 530), (994, 515), (987, 497), (979, 467), (962, 403), (947, 366), (933, 332), (915, 289), (899, 254), (872, 191), (857, 161), (847, 136)]",254.373536054424,"[5, 8, 3, 4, 1, 2, 9, 6, 7]","(0, 0.25)",ENG008D,ENG,D,English,Wed Sep 05 14:56:07 2018,Mouse
1,0,4,0,48,3,3,1,1111,301,810,136,0,500,200,8000,"[(960, 540), (960, 540), (960, 540), (960, 540), (960, 540), (960, 540), (960, 540), (960, 540), (960, 540), (960, 540), (960, 540), (960, 540), (960, 540), (960, 540), (960, 540), (960, 540), (960, 540), (960, 540), (960, 540), (960, 540), (960, 540), (960, 540), (960, 540), (960, 540), (960, 540), (960, 540), (960, 540), (960, 540), (960, 540), (960, 540), (961, 538), (961, 535), (962, 527), (964, 522), (964, 516), (964, 510), (964, 497), (964, 493), (963, 488), (962, 479), (960, 473), (960, 471), (960, 471), (960, 471), (960, 471), (960, 471), (960, 471), (960, 471), (960, 471), (960, 471), (960, 471), (960, 471), (960, 471), (960, 471), (960, 472), (960, 473), (960, 475), (960, 477), (960, 477), (960, 479), (960, 484), (960, 487), (960, 488), (960, 491), (960, 498), (960, 501), (959, 504), (958, 507), (956, 519), (955, 526), (954, 536), (953, 544), (951, 563), (951, 572), (951, 580), (951, 588), (951, 599), (952, 603), (952, 606), (954, 608), (955, 609), (955, 610), (955, 610), (955, 610), (955, 611), (955, 611), (955, 611), (955, 611), (956, 612), (956, 613), (956, 613), (956, 616), (956, 624), (956, 631), (954, 640), (951, 650), (941, 683), (938, 697), (933, 713), (928, 728), (926, 751), (923, 762), (922, 772), (921, 783), (914, 805), (911, 815), (909, 831), (905, 850), (899, 892), (896, 913), (895, 930), (892, 949)]",99.43960381924275,"[5, 8, 3, 4, 1, 2, 9, 6, 7]","(0, 0.25)",ENG008D,ENG,D,English,Wed Sep 05 14:56:07 2018,Mouse
1,0,4,0,49,1,1,1,361,61,300,135,0,500,200,8000,"[(960, 540), (960, 540), (960, 540), (960, 540), (960, 540), (960, 540), (959, 540), (959, 540), (956, 541), (954, 541), (952, 541), (949, 542), (940, 545), (936, 546), (932, 547), (927, 549), (918, 550), (912, 553), (908, 553), (904, 554), (894, 555), (891, 556), (886, 556), (880, 558), (869, 559), (865, 560), (858, 560), (848, 560), (825, 560), (809, 560), (789, 560), (767, 560), (714, 560), (683, 560), (658, 560), (624, 560), (555, 560)]",177.17287542183874,"[5, 8, 3, 4, 1, 2, 9, 6, 7]","(0, 0.25)",ENG008D,ENG,D,English,Wed Sep 05 14:56:07 2018,Mouse
1,0,4,0,50,6,6,1,920,601,319,134,0,500,200,8000,"[(960, 540), (960, 540), (960, 540), (960, 540), (960, 540), (960, 540), (960, 540), (960, 540), (960, 540), (960, 540), (960, 540), (960, 540), (960, 540), (960, 540), (960, 540), (960, 540), (960, 540), (960, 540), (960, 540), (960, 540), (960, 540), (960, 540), (960, 540), (960, 540), (960, 540), (960, 540), (960, 540), (960, 540), (960, 540), (960, 540), (960, 540), (960, 540), (960, 540), (960, 540), (960, 540), (960, 540), (960, 540), (960, 540), (960, 540), (960, 540), (960, 540), (960, 540), (960, 540), (960, 540), (960, 540), (960, 540), (960, 540), (960, 540), (960, 540), (960, 540), (960, 540), (960, 540), (960, 540), (960, 540), (960, 540), (960, 540), (960, 540), (960, 540), (960, 540), (960, 540), (961, 539), (963, 539), (964, 539), (964, 539), (965, 539), (966, 539), (966, 539), (966, 539), (966, 539), (966, 539), (966, 539), (966, 539), (966, 539), (966, 539), (968, 538), (974, 535), (975, 533), (979, 529), (983, 522), (990, 509), (995, 500), (1001, 486), (1008, 470), (1072, 349), (1094, 318), (1109, 288), (1123, 259), (1137, 228), (1140, 215), (1145, 203), (1148, 193), (1152, 171)]",297.4890965298507,"[5, 8, 3, 4, 1, 2, 9, 6, 7]","(0, 0.25)",ENG008D,ENG,D,English,Wed Sep 05 14:56:07 2018,Mouse
1,0,4,0,51,1,1,1,640,510,130,133,0,500,200,8000,"[(960, 540), (960, 540), (960, 540), (960, 540), (960, 540), (960, 540), (960, 540), (960, 540), (960, 540), (960, 540), (960, 540), (960, 540), (960, 540), (960, 540), (960, 540), (960, 540), (960, 540), (960, 540), (960, 540), (960, 540), (960, 540), (960, 540), (960, 540), (960, 540), (960, 540), (960, 540), (960, 540), (960, 540), (960, 540), (960, 540), (960, 540), (960, 540), (960, 540), (960, 540), (960, 540), (960, 540), (960, 540), (960, 540), (960, 540), (960, 540), (960, 540), (960, 540), (960, 540), (960, 540), (960, 540), (960, 540), (960, 540), (960, 540), (960, 540), (960, 540), (959, 540), (948, 540), (936, 540), (921, 541), (887, 541), (865, 541), (845, 541), (823, 541), (770, 541), (739, 541), (706, 541), (664, 541), (584, 541), (548, 541)]",179.8609328470889,"[5, 8, 3, 4, 1, 2, 9, 6, 7]","(0, 0.25)",ENG008D,ENG,D,English,Wed Sep 05 14:56:07 2018,Mouse
1,0,4,0,52,7,7,1,630,460,170,132,0,500,200,8000,"[(960, 540), (960, 540), (960, 540), (960, 540), (960, 540), (960, 540), (960, 540), (960, 540), (960, 540), (960, 540), (960, 540), (960, 540), (960, 540), (960, 540), (960, 540), (960, 540), (960, 540), (960, 540), (960, 540), (960, 540), (960, 540), (960, 540), (960, 540), (960, 540), (960, 540), (960, 540), (960, 540), (960, 540), (960, 540), (960, 540), (960, 540), (960, 540), (960, 540), (960, 540), (960, 540), (960, 540), (960, 540), (960, 540), (960, 540), (960, 540), (960, 540), (960, 540), (960, 540), (960, 540), (960, 540), (974, 537), (982, 535), (988, 533), (997, 532), (1013, 530), (1023, 530), (1034, 528), (1041, 527), (1066, 522), (1078, 519), (1095, 512), (1121, 501), (1165, 483), (1194, 469), (1221, 457), (1247, 446), (1329, 413), (1357, 405)]",341.21937947660734,"[5, 8, 3, 4, 1, 2, 9, 6, 7]","(0, 0.25)",ENG008D,ENG,D,English,Wed Sep 05 14:56:07 2018,Mouse
1,0,4,0,53,7,2,0,-610,20,590,131,0,500,200,8000,"[(960, 540), (960, 539), (960, 539), (960, 538), (960, 538), (960, 538), (960, 537), (960, 536), (960, 535), (960, 534), (960, 534), (961, 532), (961, 532), (961, 532), (961, 532), (961, 532), (961, 532), (961, 532), (961, 532), (961, 532), (961, 532), (961, 532), (961, 532), (961, 532), (961, 532), (961, 532), (961, 532), (961, 532), (961, 532), (961, 532), (961, 532), (961, 532), (961, 532), (961, 532), (961, 532), (961, 532), (961, 532), (961, 532), (961, 532), (961, 532), (961, 532), (961, 532), (961, 531), (961, 531), (960, 531), (959, 531), (958, 531), (958, 531), (957, 531), (948, 525), (941, 520), (933, 515), (899, 488), (877, 464), (852, 435), (826, 404), (798, 372), (747, 322), (720, 298), (694, 275), (669, 256)]",224.30252061753615,"[5, 8, 3, 4, 1, 2, 9, 6, 7]","(0, 0.25)",ENG008D,ENG,D,English,Wed Sep 05 14:56:07 2018,Mouse
1,0,4,0,54,4,4,1,281,131,150,132,0,500,200,8000,"[(960, 540), (960, 540), (960, 540), (960, 540), (960, 540), (960, 540), (960, 540), (960, 540), (960, 540), (960, 540), (960, 540), (960, 540), (960, 540), (959, 542), (955, 545), (949, 548), (946, 550), (942, 553), (935, 557), (923, 565), (916, 571), (904, 580), (893, 588), (854, 618), (809, 655), (762, 690), (715, 721), (639, 777), (618, 795)]",143.29127149169105,"[5, 8, 3, 4, 1, 2, 9, 6, 7]","(0, 0.25)",ENG008D,ENG,D,English,Wed Sep 05 14:56:07 2018,Mouse
1,0,4,0,55,6,7,0,-621,471,150,132,0,500,200,8000,"[(960, 540), (960, 540), (960, 540), (960, 540), (960, 540), (960, 540), (960, 540), (960, 540), (960, 540), (960, 540), (960, 540), (960, 540), (960, 540), (960, 540), (960, 540), (960, 540), (960, 540), (960, 540), (960, 540), (960, 540), (960, 540), (960, 540), (960, 540), (960, 540), (960, 540), (960, 540), (960, 540), (960, 540), (960, 540), (960, 540), (960, 540), (960, 540), (960, 540), (960, 540), (960, 540), (960, 540), (960, 540), (960, 540), (960, 540), (960, 540), (960, 540), (960, 540), (960, 540), (960, 540), (960, 540), (960, 540), (960, 540), (961, 538), (966, 532), (971, 527), (986, 514), (994, 510), (1004, 503), (1015, 498), (1038, 489), (1050, 485), (1070, 473), (1101, 459), (1168, 430), (1199, 418), (1238, 409), (1288, 393), (1368, 372)]",337.6198649480404,"[5, 8, 3, 4, 1, 2, 9, 6, 7]","(0, 0.25)",ENG008D,ENG,D,English,Wed Sep 05 14:56:07 2018,Mouse
1,0,4,0,56,4,5,0,-430,270,160,133,0,500,200,8000,"[(960, 540), (960, 540), (960, 540), (960, 540), (960, 540), (960, 540), (960, 540), (960, 540), (960, 540), (960, 540), (960, 540), (960, 540), (960, 540), (960, 540), (960, 540), (960, 540), (960, 540), (960, 540), (960, 540), (960, 540), (960, 540), (960, 540), (960, 540), (960, 540), (960, 540), (960, 540), (959, 541), (959, 541), (961, 543), (967, 545), (988, 554), (1004, 559), (1025, 568), (1048, 577), (1108, 601), (1132, 611), (1155, 620), (1179, 633), (1225, 650), (1257, 666), (1284, 681), (1311, 695), (1361, 726)]",24.8837751920359,"[5, 8, 3, 4, 1, 2, 9, 6, 7]","(0, 0.25)",ENG008D,ENG,D,English,Wed Sep 05 14:56:07 2018,Mouse
1,0,4,0,57,7,7,1,369,169,200,134,0,500,200,8000,"[(960, 540), (960, 540), (960, 540), (960, 540), (960, 540), (960, 540), (960, 540), (960, 540), (960, 540), (960, 540), (960, 540), (960, 540), (960, 540), (960, 540), (960, 540), (960, 540), (961, 540), (965, 540), (970, 540), (981, 540), (985, 540), (993, 540), (1003, 540), (1024, 537), (1035, 532), (1046, 529), (1060, 525), (1081, 520), (1094, 514), (1109, 510), (1132, 503), (1193, 488), (1222, 484), (1248, 483), (1273, 475), (1335, 452), (1380, 435)]",345.96375653207355,"[5, 8, 3, 4, 1, 2, 9, 6, 7]","(0, 0.25)",ENG008D,ENG,D,English,Wed Sep 05 14:56:07 2018,Mouse
1,0,4,0,58,6,6,1,450,20,430,134,0,500,200,8000,"[(960, 539), (958, 538), (958, 538), (958, 538), (958, 538), (957, 538), (957, 538), (957, 538), (957, 538), (957, 538), (957, 538), (957, 538), (956, 538), (956, 538), (956, 538), (956, 538), (956, 538), (955, 538), (955, 539), (955, 541), (955, 542), (956, 543), (956, 544), (956, 545), (956, 545), (957, 545), (957, 545), (957, 545), (957, 545), (957, 545), (957, 545), (957, 545), (958, 545), (965, 532), (969, 525), (974, 517), (981, 506), (1017, 445), (1046, 410), (1073, 374), (1096, 345), (1137, 284), (1161, 253), (1177, 230), (1193, 210)]",305.22440902568053,"[5, 8, 3, 4, 1, 2, 9, 6, 7]","(0, 0.25)",ENG008D,ENG,D,English,Wed Sep 05 14:56:07 2018,Mouse
1,0,4,0,59,1,5,0,-680,120,560,133,0,500,200,8000,"[(960, 540), (960, 540), (960, 540), (960, 540), (960, 540), (960, 540), (960, 540), (960, 540), (960, 540), (960, 540), (960, 540), (960, 541), (960, 541), (960, 541), (960, 542), (960, 542), (961, 543), (961, 544), (963, 545), (963, 547), (964, 548), (965, 549), (965, 549), (967, 551), (967, 551), (967, 551), (967, 551), (968, 552), (968, 552), (968, 552), (969, 552), (969, 552), (970, 552), (971, 553), (971, 554), (972, 554), (972, 554), (972, 554), (973, 555), (974, 555), (974, 555), (976, 555), (978, 555), (982, 555), (985, 555), (987, 555), (990, 555), (998, 555), (1002, 555), (1006, 555), (1010, 555), (1019, 555), (1024, 555), (1028, 556), (1034, 559), (1049, 563), (1055, 565), (1063, 569), (1073, 574), (1096, 583), (1111, 589), (1134, 598), (1181, 618), (1206, 626), (1239, 635), (1265, 643), (1298, 652), (1358, 665)]",17.43595762704974,"[5, 8, 3, 4, 1, 2, 9, 6, 7]","(0, 0.25)",ENG008D,ENG,D,English,Wed Sep 05 14:56:07 2018,Mouse
1,0,4,0,60,4,5,0,-310,200,110,134,0,500,200,8000,"[(960, 540), (960, 540), (960, 540), (960, 540), (960, 540), (960, 540), (960, 540), (960, 540), (960, 540), (960, 540), (960, 540), (960, 540), (960, 540), (960, 540), (960, 540), (960, 540), (960, 540), (960, 540), (960, 540), (959, 539), (961, 539), (983, 541), (999, 543), (1015, 547), (1039, 552), (1098, 562), (1145, 574), (1187, 587), (1234, 599), (1324, 620), (1368, 629)]",12.3055785288675,"[5, 8, 3, 4, 1, 2, 9, 6, 7]","(0, 0.25)",ENG008D,ENG,D,English,Wed Sep 05 14:56:07 2018,Mouse
1,0,4,0,61,1,1,1,372,212,160,135,0,500,200,8000,"[(960, 540), (960, 540), (960, 540), (960, 540), (960, 540), (960, 540), (960, 540), (960, 540), (960, 540), (960, 540), (960, 540), (960, 540), (960, 540), (960, 540), (960, 540), (960, 540), (960, 540), (960, 540), (960, 540), (960, 540), (960, 540), (959, 540), (947, 539), (938, 538), (928, 537), (916, 535), (886, 532), (867, 528), (846, 525), (817, 521), (759, 513), (736, 512), (710, 512), (687, 510), (636, 509), (611, 509), (581, 509), (554, 504)]",185.0671617258532,"[5, 8, 3, 4, 1, 2, 9, 6, 7]","(0, 0.25)",ENG008D,ENG,D,English,Wed Sep 05 14:56:07 2018,Mouse
1,0,4,0,62,2,2,1,581,411,170,135,0,500,200,8000,"[(960, 540), (960, 540), (960, 540), (960, 540), (960, 540), (960, 540), (960, 540), (960, 540), (960, 540), (960, 540), (960, 540), (960, 540), (960, 540), (960, 540), (960, 540), (960, 540), (960, 540), (960, 540), (960, 540), (960, 540), (960, 540), (960, 540), (960, 540), (960, 540), (960, 540), (960, 540), (960, 540), (960, 540), (960, 540), (960, 540), (960, 540), (960, 540), (960, 540), (960, 540), (960, 540), (960, 540), (960, 540), (960, 540), (960, 540), (960, 540), (960, 540), (958, 538), (952, 535), (945, 531), (928, 523), (919, 518), (907, 513), (892, 504), (860, 485), (846, 476), (831, 464), (809, 450), (767, 422), (741, 399), (718, 373), (702, 357), (664, 324), (650, 314), (635, 303)]",216.10068178169178,"[5, 8, 3, 4, 1, 2, 9, 6, 7]","(0, 0.25)",ENG008D,ENG,D,English,Wed Sep 05 14:56:07 2018,Mouse
1,0,4,0,63,6,5,0,-659,329,330,134,0,500,200,8000,"[(960, 540), (960, 540), (960, 540), (960, 540), (960, 540), (960, 540), (960, 540), (960, 540), (960, 540), (960, 540), (960, 540), (960, 540), (960, 540), (960, 540), (960, 540), (960, 540), (960, 540), (960, 540), (960, 540), (960, 540), (960, 540), (960, 540), (960, 540), (960, 540), (960, 540), (960, 540), (960, 540), (960, 540), (960, 540), (960, 540), (960, 540), (960, 540), (961, 540), (962, 540), (962, 540), (962, 540), (962, 540), (963, 540), (963, 540), (964, 540), (965, 540), (966, 540), (968, 540), (971, 540), (971, 540), (980, 542), (983, 544), (990, 547), (995, 549), (1003, 553), (1010, 556), (1019, 559), (1025, 562), (1045, 570), (1052, 574), (1063, 578), (1075, 584), (1105, 606), (1123, 619), (1142, 630), (1160, 645), (1199, 681), (1225, 713), (1245, 736), (1263, 755), (1292, 771)]",34.82954526173656,"[5, 8, 3, 4, 1, 2, 9, 6, 7]","(0, 0.25)",ENG008D,ENG,D,English,Wed Sep 05 14:56:07 2018,Mouse
1,0,4,0,64,4,6,0,-740,20,720,135,0,500,200,8000,"[(959, 541), (958, 541), (957, 541), (955, 541), (954, 542), (954, 542), (953, 542), (953, 542), (952, 542), (951, 542), (951, 542), (950, 543), (950, 543), (950, 543), (950, 543), (950, 543), (950, 543), (950, 543), (950, 543), (950, 543), (950, 543), (950, 543), (950, 543), (950, 543), (950, 543), (950, 543), (950, 543), (950, 543), (950, 543), (950, 543), (950, 543), (950, 543), (950, 543), (950, 543), (950, 543), (950, 543), (950, 543), (950, 543), (950, 543), (950, 543), (950, 542), (950, 541), (950, 538), (950, 538), (950, 537), (950, 537), (950, 535), (950, 535), (950, 535), (950, 535), (950, 535), (950, 535), (950, 535), (950, 535), (950, 535), (950, 535), (950, 535), (950, 534), (950, 530), (952, 528), (956, 522), (958, 518), (972, 497), (982, 481), (1000, 446), (1024, 405), (1066, 336), (1079, 312), (1092, 290), (1102, 269), (1126, 231), (1135, 214), (1147, 197), (1152, 187)]",298.5421827018435,"[5, 8, 3, 4, 1, 2, 9, 6, 7]","(0, 0.25)",ENG008D,ENG,D,English,Wed Sep 05 14:56:07 2018,Mouse
1,0,4,0,65,8,6,0,-388,108,280,136,0,500,200,8000,"[(960, 540), (960, 540), (960, 540), (960, 540), (960, 540), (960, 540), (960, 540), (960, 540), (960, 540), (960, 540), (963, 539), (967, 529), (968, 526), (970, 523), (970, 522), (972, 517), (972, 515), (972, 514), (972, 513), (973, 510), (973, 510), (973, 507), (974, 504), (977, 495), (980, 490), (986, 477), (994, 464), (1022, 425), (1034, 405), (1045, 388), (1054, 375), (1071, 351), (1081, 334), (1090, 318), (1103, 294), (1125, 242), (1136, 216), (1145, 195), (1154, 174)]",297.92603397005405,"[5, 8, 3, 4, 1, 2, 9, 6, 7]","(0, 0.25)",ENG008D,ENG,D,English,Wed Sep 05 14:56:07 2018,Mouse
1,0,4,0,66,8,8,1,508,18,490,137,0,500,200,8000,"[(960, 540), (960, 542), (962, 545), (962, 546), (964, 548), (964, 549), (965, 551), (967, 552), (967, 553), (967, 553), (969, 557), (972, 559), (973, 560), (975, 562), (977, 565), (979, 566), (980, 568), (982, 569), (983, 571), (987, 575), (989, 577), (992, 579), (1005, 593), (1017, 609), (1027, 623), (1035, 634), (1047, 651), (1051, 657), (1055, 662), (1058, 666), (1062, 675), (1067, 683), (1069, 689), (1072, 695), (1075, 702), (1083, 722), (1085, 733), (1093, 754), (1107, 782), (1110, 792), (1114, 802), (1119, 811), (1125, 823), (1128, 828), (1129, 832), (1133, 841), (1138, 853), (1141, 863), (1144, 871), (1146, 880), (1149, 894)]",61.90231703256405,"[5, 8, 3, 4, 1, 2, 9, 6, 7]","(0, 0.25)",ENG008D,ENG,D,English,Wed Sep 05 14:56:07 2018,Mouse
1,0,4,0,67,1,1,1,361,150,211,137,0,500,200,8000,"[(960, 540), (960, 540), (960, 540), (960, 540), (960, 540), (960, 540), (960, 540), (960, 540), (960, 540), (960, 540), (960, 540), (960, 540), (960, 540), (960, 540), (958, 540), (956, 540), (952, 540), (948, 540), (938, 540), (934, 540), (927, 540), (921, 540), (908, 540), (901, 540), (891, 540), (882, 540), (857, 540), (842, 540), (828, 540), (809, 540), (770, 540), (744, 540), (717, 540), (683, 540), (600, 540), (558, 540)]",180.0,"[5, 8, 3, 4, 1, 2, 9, 6, 7]","(0, 0.25)",ENG008D,ENG,D,English,Wed Sep 05 14:56:07 2018,Mouse
1,0,4,0,68,8,8,1,310,30,280,136,0,500,200,8000,"[(960, 540), (960, 540), (960, 542), (963, 547), (967, 555), (974, 567), (978, 574), (982, 582), (988, 588), (1000, 608), (1007, 617), (1014, 627), (1022, 639), (1035, 660), (1042, 672), (1051, 685), (1057, 697), (1069, 716), (1074, 724), (1080, 734), (1085, 745), (1100, 771), (1105, 782), (1114, 794), (1117, 805), (1121, 823), (1122, 830), (1125, 839), (1127, 847), (1137, 880), (1141, 899)]",63.24375115828723,"[5, 8, 3, 4, 1, 2, 9, 6, 7]","(0, 0.25)",ENG008D,ENG,D,English,Wed Sep 05 14:56:07 2018,Mouse
1,0,4,0,69,2,3,0,-898,299,599,135,0,500,200,8000,"[(960, 540), (960, 540), (960, 540), (960, 540), (960, 540), (960, 540), (960, 540), (960, 540), (960, 540), (960, 540), (960, 540), (960, 540), (960, 540), (960, 540), (960, 540), (960, 540), (960, 540), (960, 540), (960, 540), (960, 540), (960, 540), (960, 540), (960, 540), (960, 540), (960, 540), (960, 540), (960, 540), (960, 540), (960, 540), (958, 540), (955, 539), (951, 536), (947, 533), (941, 531), (938, 528), (938, 528), (936, 527), (936, 527), (936, 527), (936, 527), (936, 527), (936, 527), (936, 527), (936, 527), (936, 527), (936, 527), (935, 527), (935, 527), (935, 527), (934, 527), (934, 527), (934, 527), (934, 527), (934, 527), (934, 527), (934, 527), (934, 527), (934, 527), (934, 527), (934, 527), (934, 527), (934, 527), (934, 527), (934, 527), (934, 527), (933, 527), (933, 528), (933, 529), (933, 530), (933, 530), (931, 533), (929, 535), (928, 537), (925, 539), (924, 542), (923, 544), (922, 546), (921, 550), (919, 559), (918, 566), (917, 574), (912, 587), (898, 645), (882, 675), (870, 706), (862, 737), (850, 820), (845, 860), (845, 907), (845, 954)]",105.52411099675426,"[5, 8, 3, 4, 1, 2, 9, 6, 7]","(0, 0.25)",ENG008D,ENG,D,English,Wed Sep 05 14:56:07 2018,Mouse
1,0,4,0,70,9,3,0,-760,20,740,136,0,500,200,8000,"[(960, 546), (959, 554), (957, 564), (956, 586), (956, 603), (956, 625), (956, 658), (956, 725), (956, 748), (954, 763), (951, 774), (950, 784), (950, 785), (950, 785), (950, 785), (950, 785), (950, 785), (950, 785), (950, 785), (950, 785), (950, 785), (950, 785), (950, 785), (950, 785), (950, 785), (950, 785), (950, 785), (950, 785), (950, 785), (950, 785), (950, 785), (950, 785), (950, 785), (950, 785), (950, 785), (950, 785), (950, 785), (950, 785), (950, 785), (950, 785), (950, 785), (950, 785), (950, 785), (950, 785), (950, 785), (950, 785), (950, 785), (950, 785), (950, 785), (950, 785), (950, 785), (950, 785), (950, 786), (950, 786), (951, 787), (955, 790), (958, 792), (960, 795), (961, 798), (965, 803), (966, 804), (966, 805), (966, 805), (966, 805), (966, 805), (966, 805), (966, 805), (966, 806), (966, 807), (966, 808), (965, 813), (957, 830), (947, 853), (933, 887), (919, 917), (894, 982)]",98.49272902811849,"[5, 8, 3, 4, 1, 2, 9, 6, 7]","(0, 0.25)",ENG008D,ENG,D,English,Wed Sep 05 14:56:07 2018,Mouse
1,0,4,0,71,5,5,1,400,20,380,137,0,500,200,8000,"[(960, 540), (961, 540), (962, 540), (963, 541), (963, 541), (964, 541), (966, 543), (966, 545), (967, 545), (967, 546), (967, 547), (967, 547), (967, 547), (967, 547), (967, 547), (967, 547), (967, 547), (967, 547), (967, 547), (967, 547), (967, 547), (967, 547), (967, 547), (967, 547), (967, 547), (967, 547), (967, 548), (969, 551), (973, 554), (978, 558), (996, 569), (1013, 577), (1039, 588), (1065, 598), (1109, 615), (1145, 626), (1181, 639), (1215, 649), (1297, 680), (1340, 699)]",22.705460820142516,"[5, 8, 3, 4, 1, 2, 9, 6, 7]","(0, 0.25)",ENG008D,ENG,D,English,Wed Sep 05 14:56:07 2018,Mouse
1,0,4,0,72,7,7,1,399,209,190,137,0,500,200,8000,"[(960, 540), (960, 540), (960, 540), (960, 540), (960, 540), (960, 540), (960, 540), (960, 540), (960, 540), (960, 540), (960, 540), (960, 540), (960, 540), (960, 540), (960, 540), (960, 540), (960, 540), (960, 540), (960, 540), (960, 540), (961, 540), (964, 540), (967, 539), (972, 539), (976, 538), (992, 531), (1001, 528), (1009, 528), (1019, 526), (1041, 523), (1053, 522), (1066, 519), (1086, 514), (1135, 491), (1168, 471), (1201, 453), (1232, 441), (1303, 417), (1324, 413), (1354, 408)]",341.47784305642733,"[5, 8, 3, 4, 1, 2, 9, 6, 7]","(0, 0.25)",ENG008D,ENG,D,English,Wed Sep 05 14:56:07 2018,Mouse
1,0,4,0,73,3,3,1,1051,801,250,136,0,500,200,8000,"[(960, 540), (960, 540), (960, 540), (960, 540), (960, 540), (960, 540), (960, 540), (960, 540), (960, 540), (960, 540), (960, 540), (960, 540), (960, 540), (960, 540), (960, 540), (960, 540), (960, 540), (960, 540), (960, 540), (960, 540), (960, 540), (960, 540), (960, 540), (960, 540), (960, 540), (960, 540), (960, 540), (960, 540), (960, 540), (960, 540), (960, 540), (960, 540), (960, 540), (960, 540), (960, 540), (960, 540), (960, 540), (960, 540), (960, 540), (960, 540), (960, 540), (960, 540), (960, 540), (960, 540), (960, 540), (960, 540), (960, 540), (960, 540), (960, 540), (960, 540), (960, 540), (960, 540), (960, 540), (960, 540), (960, 540), (960, 540), (960, 540), (960, 540), (960, 540), (960, 540), (960, 540), (960, 540), (960, 540), (960, 540), (960, 540), (960, 540), (960, 540), (960, 540), (960, 540), (960, 540), (960, 540), (960, 540), (960, 540), (960, 540), (960, 540), (960, 540), (960, 540), (960, 540), (960, 540), (960, 540), (960, 541), (960, 542), (960, 544), (959, 545), (956, 553), (955, 558), (952, 564), (949, 570), (942, 589), (939, 599), (939, 610), (939, 621), (938, 648), (938, 669), (938, 694), (938, 716), (936, 773), (936, 801), (933, 827), (930, 851), (923, 882), (922, 896), (920, 908), (917, 921), (912, 936), (911, 943)]",96.93245563954758,"[5, 8, 3, 4, 1, 2, 9, 6, 7]","(0, 0.25)",ENG008D,ENG,D,English,Wed Sep 05 14:56:07 2018,Mouse
1,0,4,0,74,6,6,1,652,382,270,135,0,500,200,8000,"[(960, 540), (960, 540), (960, 540), (960, 540), (960, 540), (960, 540), (960, 540), (960, 540), (960, 540), (960, 540), (960, 540), (960, 540), (960, 540), (960, 540), (960, 540), (960, 540), (960, 540), (960, 540), (960, 540), (960, 540), (960, 540), (960, 540), (960, 540), (960, 540), (960, 540), (960, 540), (960, 540), (960, 540), (960, 540), (960, 540), (960, 540), (960, 540), (960, 540), (960, 540), (960, 540), (960, 540), (960, 540), (960, 540), (960, 538), (960, 533), (960, 529), (960, 525), (961, 515), (963, 504), (969, 489), (979, 470), (993, 449), (997, 439), (1004, 427), (1011, 414), (1022, 395), (1029, 386), (1034, 381), (1041, 373), (1053, 355), (1060, 343), (1067, 330), (1074, 319), (1088, 296), (1092, 283), (1097, 270), (1103, 258), (1118, 231), (1129, 212), (1135, 197), (1141, 182)]",296.8205490577192,"[5, 8, 3, 4, 1, 2, 9, 6, 7]","(0, 0.25)",ENG008D,ENG,D,English,Wed Sep 05 14:56:07 2018,Mouse
1,0,4,0,75,5,5,1,530,321,209,134,0,500,200,8000,"[(960, 540), (960, 540), (960, 540), (960, 540), (960, 540), (960, 540), (960, 540), (960, 540), (960, 540), (960, 540), (960, 540), (960, 540), (960, 540), (960, 540), (960, 540), (960, 540), (960, 540), (960, 540), (960, 540), (960, 540), (960, 540), (960, 540), (960, 540), (960, 540), (960, 540), (960, 540), (960, 540), (960, 540), (960, 540), (960, 540), (960, 540), (960, 540), (962, 545), (967, 549), (975, 554), (985, 559), (1000, 565), (1010, 569), (1021, 573), (1033, 576), (1056, 583), (1075, 588), (1086, 590), (1102, 595), (1136, 606), (1152, 609), (1173, 620), (1192, 628), (1228, 645), (1252, 658), (1291, 682), (1310, 694), (1335, 705)]",23.74949449286676,"[5, 8, 3, 4, 1, 2, 9, 6, 7]","(0, 0.25)",ENG008D,ENG,D,English,Wed Sep 05 14:56:07 2018,Mouse
1,0,4,0,76,9,5,0,-349,229,120,133,0,500,200,8000,"[(960, 540), (960, 540), (960, 540), (960, 540), (960, 540), (960, 540), (960, 540), (960, 540), (960, 540), (960, 540), (960, 540), (960, 540), (960, 540), (960, 540), (960, 540), (960, 540), (960, 540), (960, 540), (960, 540), (960, 540), (960, 540), (960, 540), (970, 540), (984, 543), (1002, 549), (1019, 554), (1077, 570), (1103, 578), (1137, 591), (1166, 603), (1232, 636), (1268, 658), (1293, 671), (1317, 686), (1344, 702)]",22.873665190626713,"[5, 8, 3, 4, 1, 2, 9, 6, 7]","(0, 0.25)",ENG008D,ENG,D,English,Wed Sep 05 14:56:07 2018,Mouse
1,0,4,0,77,1,1,1,1158,868,290,134,0,500,200,8000,"[(960, 540), (960, 540), (960, 540), (960, 540), (960, 540), (960, 540), (960, 540), (960, 540), (960, 540), (960, 540), (960, 540), (960, 540), (960, 540), (960, 540), (960, 540), (960, 540), (960, 540), (960, 540), (960, 540), (960, 540), (960, 540), (960, 540), (960, 540), (960, 540), (960, 540), (960, 540), (960, 540), (960, 540), (960, 540), (960, 540), (960, 540), (960, 540), (960, 540), (960, 540), (960, 540), (960, 540), (960, 540), (960, 540), (960, 540), (960, 540), (960, 540), (960, 540), (960, 540), (960, 540), (960, 540), (960, 540), (960, 540), (960, 540), (960, 540), (960, 540), (960, 540), (960, 540), (960, 540), (960, 540), (960, 540), (960, 540), (960, 540), (960, 540), (960, 540), (960, 540), (960, 540), (960, 540), (960, 540), (960, 540), (960, 540), (960, 540), (960, 540), (960, 540), (960, 540), (960, 540), (960, 540), (960, 540), (960, 540), (960, 540), (960, 540), (960, 540), (960, 540), (960, 540), (960, 540), (960, 540), (960, 540), (960, 540), (960, 540), (960, 540), (960, 540), (960, 540), (958, 540), (953, 540), (942, 540), (931, 542), (913, 543), (911, 543), (909, 543), (908, 544), (901, 545), (894, 548), (883, 555), (863, 569), (794, 611), (765, 625), (741, 636), (739, 636), (739, 636), (739, 636), (741, 636), (744, 636), (744, 636), (744, 636), (746, 636), (746, 636), (746, 617), (741, 597), (730, 580), (706, 558), (600, 545), (520, 545)]",179.3489396197705,"[5, 8, 3, 4, 1, 2, 9, 6, 7]","(0, 0.25)",ENG008D,ENG,D,English,Wed Sep 05 14:56:07 2018,Mouse
1,0,4,0,78,4,4,1,469,239,230,134,0,500,200,8000,"[(960, 540), (960, 540), (960, 540), (960, 540), (960, 540), (960, 540), (960, 540), (960, 540), (960, 540), (960, 540), (960, 540), (960, 540), (960, 540), (960, 540), (960, 540), (960, 540), (960, 540), (960, 540), (960, 540), (960, 540), (960, 540), (960, 540), (960, 540), (960, 545), (960, 551), (960, 560), (958, 565), (958, 566), (958, 568), (958, 569), (957, 569), (957, 570), (956, 572), (953, 576), (951, 576), (947, 577), (941, 580), (924, 588), (914, 592), (902, 598), (891, 604), (854, 625), (831, 641), (798, 663), (764, 690), (677, 759), (641, 796)]",141.25268394146107,"[5, 8, 3, 4, 1, 2, 9, 6, 7]","(0, 0.25)",ENG008D,ENG,D,English,Wed Sep 05 14:56:07 2018,Mouse
1,0,4,0,79,1,1,1,651,511,140,133,0,500,200,8000,"[(960, 540), (960, 540), (960, 540), (960, 540), (960, 540), (960, 540), (960, 540), (960, 540), (960, 540), (960, 540), (960, 540), (960, 540), (960, 540), (960, 540), (960, 540), (960, 540), (960, 540), (960, 540), (960, 540), (960, 540), (960, 540), (960, 540), (960, 540), (960, 540), (960, 540), (960, 540), (960, 540), (960, 540), (960, 540), (960, 540), (960, 540), (960, 540), (960, 540), (960, 540), (960, 540), (960, 540), (960, 540), (960, 540), (960, 540), (960, 540), (960, 540), (960, 540), (960, 540), (960, 540), (960, 540), (960, 540), (960, 540), (960, 540), (960, 540), (960, 540), (960, 540), (957, 542), (953, 543), (942, 547), (938, 548), (934, 548), (924, 548), (899, 552), (882, 553), (860, 553), (832, 553), (754, 553), (721, 553), (671, 553), (620, 555), (514, 561)]",177.30420768836416,"[5, 8, 3, 4, 1, 2, 9, 6, 7]","(0, 0.25)",ENG008D,ENG,D,English,Wed Sep 05 14:56:07 2018,Mouse
1,0,4,0,80,1,1,1,270,190,80,132,0,500,200,8000,"[(960, 540), (960, 540), (960, 540), (960, 540), (960, 540), (960, 540), (960, 540), (960, 540), (960, 540), (960, 540), (960, 540), (960, 540), (960, 540), (960, 540), (960, 540), (960, 540), (960, 540), (960, 540), (935, 542), (912, 543), (887, 548), (859, 549), (774, 557), (732, 557), (680, 557), (619, 557), (502, 557)]",177.87427663254078,"[5, 8, 3, 4, 1, 2, 9, 6, 7]","(0, 0.25)",ENG008D,ENG,D,English,Wed Sep 05 14:56:07 2018,Mouse
1,0,4,0,81,8,1,0,-190,60,130,131,0,500,200,8000,"[(960, 540), (960, 540), (960, 540), (960, 540), (960, 540), (959, 540), (949, 540), (942, 542), (932, 542), (921, 542), (890, 543), (867, 545), (839, 546), (807, 549), (740, 560), (697, 564), (660, 569), (630, 576), (561, 581)]",174.1330555823641,"[5, 8, 3, 4, 1, 2, 9, 6, 7]","(0, 0.25)",ENG008D,ENG,D,English,Wed Sep 05 14:56:07 2018,Mouse
1,0,4,0,82,5,2,0,-519,399,120,132,0,500,200,8000,"[(960, 540), (960, 540), (960, 540), (960, 540), (960, 540), (960, 540), (960, 540), (960, 540), (960, 540), (960, 540), (960, 540), (960, 540), (960, 540), (960, 540), (960, 540), (960, 540), (960, 540), (960, 540), (960, 540), (960, 540), (960, 540), (960, 540), (960, 540), (960, 540), (960, 540), (960, 540), (960, 540), (960, 540), (960, 540), (960, 540), (960, 540), (960, 540), (960, 540), (960, 540), (960, 540), (960, 540), (960, 540), (960, 540), (960, 540), (955, 539), (950, 535), (942, 529), (935, 522), (912, 495), (886, 466), (858, 434), (830, 385), (777, 317), (753, 293), (727, 275), (703, 260), (662, 237)]",225.4766593817531,"[5, 8, 3, 4, 1, 2, 9, 6, 7]","(0, 0.25)",ENG008D,ENG,D,English,Wed Sep 05 14:56:07 2018,Mouse
1,0,4,0,83,7,3,0,-891,541,350,133,0,500,200,8000,"[(960, 540), (960, 540), (960, 540), (960, 540), (960, 540), (960, 540), (960, 540), (960, 540), (960, 540), (960, 540), (960, 540), (960, 540), (960, 540), (960, 540), (960, 540), (960, 540), (960, 540), (960, 540), (960, 540), (960, 540), (960, 540), (960, 540), (960, 540), (960, 540), (960, 540), (960, 540), (960, 540), (960, 540), (960, 540), (960, 540), (960, 540), (960, 540), (960, 540), (960, 540), (960, 540), (960, 540), (960, 540), (960, 540), (960, 540), (960, 540), (960, 540), (960, 540), (960, 540), (960, 540), (960, 540), (960, 540), (960, 540), (960, 540), (960, 540), (960, 540), (960, 540), (960, 540), (960, 540), (960, 540), (962, 541), (967, 548), (968, 553), (973, 558), (980, 566), (990, 578), (998, 586), (1006, 594), (1012, 601), (1020, 609), (1020, 609), (1021, 610), (1021, 610), (1021, 610), (1021, 610), (1021, 610), (1021, 610), (1021, 610), (1021, 610), (1021, 610), (1021, 610), (1021, 610), (1021, 610), (1021, 610), (1021, 612), (1018, 617), (1013, 623), (1005, 633), (993, 650), (955, 716), (937, 749), (919, 781), (902, 816), (885, 877), (884, 916), (884, 961)]",100.23297222733716,"[5, 8, 3, 4, 1, 2, 9, 6, 7]","(0, 0.25)",ENG008D,ENG,D,English,Wed Sep 05 14:56:07 2018,Mouse
1,0,4,0,84,8,3,0,-300,160,140,134,0,500,200,8000,"[(960, 540), (960, 540), (960, 540), (960, 540), (960, 540), (960, 540), (960, 540), (960, 540), (960, 540), (960, 540), (960, 540), (960, 540), (960, 540), (960, 540), (960, 540), (958, 544), (954, 554), (952, 560), (951, 565), (948, 574), (947, 606), (947, 639), (941, 671), (938, 706), (928, 770), (923, 802), (916, 832), (911, 859), (898, 917), (895, 940)]",99.22988624372772,"[5, 8, 3, 4, 1, 2, 9, 6, 7]","(0, 0.25)",ENG008D,ENG,D,English,Wed Sep 05 14:56:07 2018,Mouse
1,0,4,0,85,9,9,1,1340,570,770,135,0,500,200,8000,"[(960, 540), (960, 540), (960, 540), (960, 540), (960, 540), (960, 540), (960, 540), (960, 540), (960, 540), (960, 540), (960, 540), (960, 540), (960, 540), (960, 540), (960, 540), (960, 540), (960, 540), (960, 540), (960, 540), (960, 540), (960, 540), (960, 540), (960, 540), (960, 540), (960, 540), (960, 540), (960, 540), (960, 540), (960, 540), (960, 540), (960, 540), (960, 540), (960, 540), (960, 540), (960, 540), (960, 540), (960, 540), (960, 540), (960, 540), (960, 540), (960, 540), (960, 540), (960, 540), (960, 540), (960, 540), (960, 540), (960, 540), (960, 540), (960, 540), (960, 540), (960, 540), (960, 540), (960, 540), (960, 540), (960, 540), (960, 540), (962, 540), (963, 541), (966, 544), (968, 547), (975, 552), (978, 552), (982, 555), (984, 556), (986, 556), (990, 557), (991, 557), (991, 557), (991, 557), (991, 557), (991, 557), (991, 557), (991, 557), (991, 557), (991, 557), (991, 557), (991, 557), (991, 557), (991, 557), (991, 557), (991, 557), (991, 557), (991, 557), (991, 557), (991, 557), (991, 557), (991, 557), (991, 557), (991, 557), (991, 557), (991, 557), (991, 557), (991, 557), (991, 557), (991, 557), (991, 557), (991, 557), (991, 557), (991, 557), (991, 557), (991, 557), (991, 557), (991, 557), (991, 557), (991, 557), (991, 557), (991, 557), (991, 557), (991, 557), (991, 557), (991, 557), (991, 557), (991, 557), (991, 557), (991, 557), (991, 557), (991, 550), (988, 541), (982, 532), (978, 521), (969, 484), (962, 456), (957, 429), (954, 398), (944, 341), (936, 313), (928, 285), (922, 263), (914, 222), (911, 201), (909, 186), (907, 172), (903, 150), (903, 139)]",261.90990865855315,"[5, 8, 3, 4, 1, 2, 9, 6, 7]","(0, 0.25)",ENG008D,ENG,D,English,Wed Sep 05 14:56:07 2018,Mouse
1,0,4,0,86,2,2,1,648,78,570,135,0,500,200,8000,"[(960, 540), (960, 540), (960, 540), (960, 540), (960, 540), (960, 540), (960, 540), (960, 541), (958, 544), (953, 546), (950, 548), (947, 550), (945, 550), (940, 553), (939, 553), (939, 553), (937, 554), (935, 556), (935, 556), (933, 557), (932, 557), (927, 559), (925, 560), (925, 560), (923, 560), (919, 562), (918, 562), (916, 563), (914, 564), (908, 566), (904, 567), (902, 569), (898, 572), (887, 578), (882, 582), (876, 586), (869, 591), (855, 603), (848, 607), (844, 608), (839, 609), (834, 611), (834, 611), (834, 611), (834, 611), (834, 611), (834, 611), (834, 611), (834, 611), (833, 611), (833, 611), (831, 610), (829, 606), (824, 594), (821, 587), (816, 577), (810, 564), (786, 530), (771, 513), (749, 489), (724, 462), (675, 411), (650, 385), (632, 362), (612, 338)]",210.13344104581552,"[5, 8, 3, 4, 1, 2, 9, 6, 7]","(0, 0.25)",ENG008D,ENG,D,English,Wed Sep 05 14:56:07 2018,Mouse
1,0,4,0,87,5,5,1,409,19,390,134,0,500,200,8000,"[(964, 543), (969, 545), (974, 548), (980, 550), (984, 552), (986, 553), (988, 556), (995, 558), (1001, 561), (1003, 562), (1005, 562), (1008, 563), (1009, 563), (1009, 563), (1011, 563), (1012, 564), (1012, 564), (1012, 564), (1012, 564), (1013, 564), (1014, 564), (1014, 565), (1015, 565), (1018, 566), (1020, 568), (1022, 569), (1025, 571), (1036, 577), (1040, 579), (1046, 583), (1056, 587), (1073, 599), (1091, 613), (1118, 628), (1140, 639), (1192, 662), (1218, 672), (1242, 685), (1262, 692), (1306, 710), (1330, 721)]",26.067380483617992,"[5, 8, 3, 4, 1, 2, 9, 6, 7]","(0, 0.25)",ENG008D,ENG,D,English,Wed Sep 05 14:56:07 2018,Mouse
1,0,4,0,88,2,1,0,-320,60,260,133,0,500,200,8000,"[(960, 540), (960, 540), (960, 540), (960, 540), (960, 540), (958, 540), (956, 542), (955, 543), (954, 545), (952, 545), (949, 547), (947, 547), (945, 547), (944, 547), (941, 547), (941, 547), (939, 547), (936, 547), (923, 547), (914, 547), (903, 547), (891, 547), (855, 547), (832, 547), (813, 547), (790, 547), (729, 547), (698, 547), (662, 547), (629, 547), (578, 547), (553, 547)]",179.01466605102206,"[5, 8, 3, 4, 1, 2, 9, 6, 7]","(0, 0.25)",ENG008D,ENG,D,English,Wed Sep 05 14:56:07 2018,Mouse
1,0,4,0,89,9,5,0,-460,290,170,134,0,500,200,8000,"[(960, 540), (960, 540), (960, 540), (960, 540), (960, 540), (960, 540), (960, 540), (960, 540), (960, 540), (960, 540), (960, 540), (960, 540), (960, 540), (960, 540), (960, 540), (960, 540), (960, 540), (960, 540), (960, 540), (960, 540), (960, 540), (960, 540), (960, 540), (960, 540), (960, 540), (960, 540), (960, 540), (960, 540), (962, 542), (967, 543), (973, 547), (979, 549), (989, 554), (1007, 559), (1019, 562), (1032, 566), (1045, 569), (1084, 582), (1105, 586), (1136, 595), (1161, 603), (1220, 619), (1248, 627), (1279, 642), (1305, 650), (1346, 667)]",18.21200917172449,"[5, 8, 3, 4, 1, 2, 9, 6, 7]","(0, 0.25)",ENG008D,ENG,D,English,Wed Sep 05 14:56:07 2018,Mouse
1,0,4,0,90,7,7,1,470,150,320,135,0,500,200,8000,"[(960, 540), (960, 540), (960, 540), (960, 540), (960, 540), (960, 540), (960, 540), (960, 540), (960, 540), (960, 540), (960, 540), (960, 540), (960, 540), (960, 540), (961, 540), (961, 540), (962, 540), (964, 540), (968, 541), (970, 541), (974, 541), (977, 542), (986, 543), (991, 543), (995, 543), (1004, 543), (1015, 543), (1019, 543), (1022, 543), (1026, 543), (1032, 543), (1035, 543), (1039, 542), (1043, 541), (1056, 536), (1068, 530), (1082, 526), (1098, 516), (1137, 501), (1160, 491), (1185, 483), (1209, 479), (1257, 473), (1280, 470), (1302, 466), (1323, 463), (1376, 455)]",348.4518878283996,"[5, 8, 3, 4, 1, 2, 9, 6, 7]","(0, 0.25)",ENG008D,ENG,D,English,Wed Sep 05 14:56:07 2018,Mouse
1,0,4,0,91,1,2,0,-781,631,150,135,0,500,200,8000,"[(960, 540), (960, 540), (960, 540), (960, 540), (960, 540), (960, 540), (960, 540), (960, 540), (960, 540), (960, 540), (960, 540), (960, 540), (960, 540), (960, 540), (960, 540), (960, 540), (960, 540), (960, 540), (960, 540), (960, 540), (960, 540), (960, 540), (960, 540), (960, 540), (960, 540), (960, 540), (960, 540), (960, 540), (960, 540), (960, 540), (960, 540), (960, 540), (960, 540), (960, 540), (960, 540), (960, 540), (960, 540), (960, 540), (960, 540), (960, 540), (960, 540), (960, 540), (960, 540), (960, 540), (960, 540), (960, 540), (960, 540), (960, 540), (960, 540), (960, 540), (960, 540), (960, 540), (960, 540), (960, 540), (960, 540), (960, 540), (960, 540), (960, 540), (960, 540), (960, 540), (960, 540), (960, 540), (960, 540), (955, 539), (949, 537), (942, 532), (923, 517), (913, 513), (906, 507), (890, 495), (844, 458), (818, 424), (790, 385), (770, 360), (750, 339), (710, 309), (699, 301), (681, 289), (641, 260)]",221.27481482324805,"[5, 8, 3, 4, 1, 2, 9, 6, 7]","(0, 0.25)",ENG008D,ENG,D,English,Wed Sep 05 14:56:07 2018,Mouse
1,0,4,0,92,1,1,1,331,11,320,136,0,500,200,8000,"[(960, 540), (954, 542), (948, 544), (936, 548), (934, 549), (930, 550), (928, 550), (926, 551), (925, 551), (925, 551), (925, 551), (924, 552), (924, 552), (924, 552), (924, 554), (922, 555), (922, 555), (922, 555), (921, 557), (920, 558), (919, 558), (915, 558), (913, 558), (896, 558), (883, 558), (868, 558), (852, 558), (802, 558), (771, 558), (732, 558), (696, 558), (621, 558), (585, 558), (551, 558)]",177.4800514418533,"[5, 8, 3, 4, 1, 2, 9, 6, 7]","(0, 0.25)",ENG008D,ENG,D,English,Wed Sep 05 14:56:07 2018,Mouse
1,0,4,0,93,8,8,1,851,21,830,136,0,500,200,8000,"[(960, 540), (960, 540), (961, 540), (962, 540), (962, 540), (962, 540), (963, 540), (963, 540), (963, 540), (963, 540), (963, 540), (963, 540), (963, 540), (963, 540), (963, 540), (963, 540), (963, 540), (964, 540), (966, 542), (966, 542), (966, 542), (970, 544), (974, 545), (978, 547), (981, 548), (990, 551), (997, 552), (1001, 552), (1010, 555), (1020, 557), (1024, 559), (1027, 561), (1028, 561), (1034, 565), (1035, 565), (1040, 570), (1044, 574), (1053, 584), (1057, 590), (1062, 599), (1068, 609), (1088, 637), (1097, 651), (1108, 667), (1124, 687), (1148, 722), (1156, 733), (1163, 743), (1168, 752), (1174, 764), (1176, 769), (1178, 773), (1178, 778), (1180, 785), (1180, 791), (1180, 800), (1180, 813), (1180, 834), (1180, 843), (1180, 847), (1178, 849), (1178, 851), (1178, 851), (1178, 851), (1178, 851), (1178, 851), (1178, 851), (1178, 851), (1178, 851), (1178, 851), (1178, 851), (1178, 851), (1178, 851), (1178, 851), (1178, 851), (1178, 851), (1178, 851), (1178, 851), (1178, 851), (1178, 851), (1178, 851), (1178, 852), (1178, 854), (1180, 858), (1185, 867), (1194, 887)]",56.006180358796655,"[5, 8, 3, 4, 1, 2, 9, 6, 7]","(0, 0.25)",ENG008D,ENG,D,English,Wed Sep 05 14:56:07 2018,Mouse
1,0,4,0,94,3,3,1,1839,549,1290,135,0,500,200,8000,"[(960, 540), (960, 540), (960, 540), (960, 540), (960, 540), (960, 540), (960, 540), (960, 540), (960, 540), (960, 540), (960, 540), (960, 540), (960, 540), (960, 540), (960, 540), (960, 540), (960, 540), (960, 540), (960, 540), (960, 540), (960, 540), (960, 540), (960, 540), (960, 540), (960, 540), (960, 540), (960, 540), (960, 540), (960, 540), (960, 540), (960, 540), (960, 540), (960, 540), (960, 540), (960, 540), (960, 540), (960, 540), (960, 540), (960, 540), (960, 540), (960, 540), (960, 540), (960, 540), (960, 540), (960, 540), (960, 540), (960, 540), (960, 540), (960, 540), (960, 540), (960, 540), (960, 540), (960, 540), (960, 540), (958, 539), (950, 536), (946, 536), (944, 535), (941, 535), (936, 532), (933, 531), (933, 531), (931, 531), (929, 529), (929, 529), (929, 529), (929, 529), (928, 529), (928, 529), (928, 529), (927, 529), (927, 529), (927, 529), (926, 529), (926, 529), (926, 529), (926, 529), (926, 529), (925, 529), (925, 529), (925, 529), (925, 529), (925, 529), (925, 529), (925, 529), (925, 529), (925, 529), (925, 529), (925, 529), (925, 529), (925, 529), (925, 529), (925, 529), (925, 529), (925, 529), (925, 529), (925, 529), (925, 529), (925, 529), (925, 529), (925, 529), (925, 529), (925, 529), (925, 529), (925, 529), (925, 529), (925, 529), (925, 529), (925, 529), (925, 529), (925, 529), (925, 529), (925, 529), (925, 529), (925, 529), (925, 529), (925, 529), (925, 529), (926, 527), (926, 527), (926, 527), (926, 526), (926, 526), (926, 526), (926, 526), (926, 526), (926, 526), (926, 526), (926, 526), (926, 526), (926, 526), (926, 526), (926, 526), (926, 526), (926, 526), (926, 526), (926, 526), (927, 526), (927, 526), (928, 526), (928, 526), (928, 526), (928, 526), (929, 526), (929, 526), (930, 526), (932, 526), (934, 526), (937, 527), (941, 528), (943, 529), (946, 530), (948, 530), (948, 530), (949, 530), (951, 531), (951, 531), (951, 531), (951, 531), (951, 531), (951, 531), (951, 531), (951, 531), (952, 534), (952, 537), (953, 541), (954, 549), (954, 567), (954, 581), (954, 594), (953, 606), (948, 642), (945, 658), (941, 675), (937, 689), (929, 716), (926, 728), (923, 741), (921, 756), (917, 798), (914, 819), (914, 846), (914, 880), (916, 940)]",96.27729848959756,"[5, 8, 3, 4, 1, 2, 9, 6, 7]","(0, 0.25)",ENG008D,ENG,D,English,Wed Sep 05 14:56:07 2018,Mouse
1,0,4,0,95,6,5,0,-510,320,190,134,0,500,200,8000,"[(960, 540), (960, 540), (960, 540), (960, 540), (960, 540), (960, 540), (960, 540), (960, 540), (960, 540), (960, 540), (960, 540), (960, 540), (960, 540), (960, 540), (960, 540), (960, 540), (960, 540), (960, 540), (960, 540), (960, 540), (960, 540), (960, 540), (960, 540), (960, 540), (960, 540), (960, 540), (960, 540), (960, 540), (960, 540), (960, 540), (960, 540), (965, 540), (970, 542), (979, 542), (996, 547), (1006, 550), (1018, 555), (1029, 557), (1056, 564), (1070, 569), (1083, 573), (1101, 578), (1131, 587), (1151, 593), (1169, 595), (1190, 606), (1234, 624), (1258, 635), (1280, 647), (1304, 662), (1344, 691)]",21.46619947945527,"[5, 8, 3, 4, 1, 2, 9, 6, 7]","(0, 0.25)",ENG008D,ENG,D,English,Wed Sep 05 14:56:07 2018,Mouse
1,0,4,0,96,7,7,1,500,110,390,135,0,500,200,8000,"[(960, 540), (960, 540), (960, 540), (960, 540), (960, 540), (960, 540), (960, 540), (960, 540), (960, 540), (960, 540), (959, 539), (959, 539), (959, 539), (959, 538), (960, 538), (960, 537), (961, 537), (961, 537), (963, 536), (963, 536), (963, 536), (965, 536), (969, 536), (973, 535), (979, 534), (983, 532), (999, 531), (1008, 530), (1017, 529), (1026, 529), (1047, 529), (1056, 529), (1067, 529), (1078, 529), (1099, 526), (1113, 520), (1126, 515), (1139, 510), (1164, 498), (1183, 488), (1202, 476), (1223, 469), (1255, 456), (1269, 453), (1282, 449), (1298, 444), (1320, 436), (1332, 430), (1339, 424), (1347, 419)]",342.63754579494366,"[5, 8, 3, 4, 1, 2, 9, 6, 7]","(0, 0.25)",ENG008D,ENG,D,English,Wed Sep 05 14:56:07 2018,Mouse
1,0,4,0,97,3,3,1,1040,740,300,135,0,500,200,8000,"[(960, 540), (960, 540), (960, 540), (960, 540), (960, 540), (960, 540), (960, 540), (960, 540), (960, 540), (960, 540), (960, 540), (960, 540), (960, 540), (960, 540), (960, 540), (960, 540), (960, 540), (960, 540), (960, 540), (960, 540), (960, 540), (960, 540), (960, 540), (960, 540), (960, 540), (960, 540), (960, 540), (960, 540), (960, 540), (960, 540), (960, 540), (960, 540), (960, 540), (960, 540), (960, 540), (960, 540), (960, 540), (960, 540), (960, 540), (960, 540), (960, 540), (960, 540), (960, 540), (960, 540), (960, 540), (960, 540), (960, 540), (960, 540), (960, 540), (960, 540), (960, 540), (960, 540), (960, 540), (960, 540), (960, 540), (960, 540), (960, 540), (960, 540), (960, 540), (960, 540), (960, 540), (960, 540), (960, 540), (960, 540), (960, 540), (960, 540), (960, 540), (960, 540), (960, 540), (960, 540), (960, 540), (960, 540), (960, 540), (959, 540), (959, 544), (959, 546), (960, 548), (960, 549), (960, 553), (961, 555), (961, 557), (961, 560), (963, 565), (963, 570), (963, 581), (963, 592), (963, 618), (963, 630), (963, 646), (963, 659), (956, 696), (950, 715), (947, 734), (943, 753), (939, 788), (937, 802), (936, 817), (934, 833), (929, 864), (928, 878), (925, 890), (924, 904), (921, 931), (920, 941)]",95.69644603173454,"[5, 8, 3, 4, 1, 2, 9, 6, 7]","(0, 0.25)",ENG008D,ENG,D,English,Wed Sep 05 14:56:07 2018,Mouse
1,0,4,0,98,3,3,1,400,160,240,134,0,500,200,8000,"[(960, 540), (960, 540), (960, 540), (960, 540), (960, 540), (960, 540), (960, 540), (960, 540), (960, 540), (960, 540), (960, 540), (960, 540), (960, 540), (960, 540), (960, 540), (960, 543), (960, 544), (960, 548), (960, 551), (960, 553), (960, 555), (960, 566), (959, 572), (959, 579), (955, 593), (949, 619), (945, 637), (937, 659), (933, 681), (921, 725), (919, 751), (919, 779), (919, 812), (919, 868), (919, 891), (919, 906), (919, 916), (919, 929), (919, 934), (919, 941)]",95.8378854522893,"[5, 8, 3, 4, 1, 2, 9, 6, 7]","(0, 0.25)",ENG008D,ENG,D,English,Wed Sep 05 14:56:07 2018,Mouse
1,0,4,0,99,4,7,0,-850,560,290,133,0,500,200,8000,"[(960, 540), (960, 540), (960, 540), (960, 540), (960, 540), (960, 540), (960, 540), (960, 540), (960, 540), (960, 540), (960, 540), (960, 540), (960, 540), (960, 540), (960, 540), (960, 540), (960, 540), (960, 540), (960, 540), (960, 540), (960, 540), (960, 540), (960, 540), (960, 540), (960, 540), (960, 540), (960, 540), (960, 540), (960, 540), (960, 540), (960, 540), (960, 540), (960, 540), (960, 540), (960, 540), (960, 540), (960, 540), (960, 540), (960, 540), (960, 540), (960, 540), (960, 540), (960, 540), (960, 540), (960, 540), (960, 540), (960, 540), (960, 540), (960, 540), (960, 540), (960, 540), (960, 540), (960, 540), (960, 540), (960, 540), (961, 540), (973, 540), (980, 539), (990, 536), (1004, 528), (1042, 508), (1069, 493), (1099, 477), (1131, 459), (1184, 436), (1207, 427), (1222, 420), (1239, 417), (1261, 410), (1268, 410), (1276, 409), (1278, 409), (1284, 409), (1285, 409), (1286, 409), (1288, 409), (1290, 407), (1291, 407), (1292, 407), (1294, 407), (1303, 406), (1308, 406), (1315, 406), (1324, 406), (1340, 406)]",340.57574044111493,"[5, 8, 3, 4, 1, 2, 9, 6, 7]","(0, 0.25)",ENG008D,ENG,D,English,Wed Sep 05 14:56:07 2018,Mouse
