NativeLangNumber,LanuageNumber,SessionNumber,Block,TrialNum,ConditionNumber,Response,Accuracy,RT,MovementOnsetTime,TimeInMotion,SignalContrast,SignalContrastNumber,StimDisplayTime,MaskTime,MaxResponseTime,MousePositionXY,MouseAngle,WheelOrder,NoiseMuSigma,ParticipantID,LanuageTested,SessionTested,NativeLanuage,Date,ResponseDevice
2,0,3,0,1,2,2,1,662,12,650,153,0,500,200,8000,"[(512, 383), (512, 378), (515, 368), (515, 363), (516, 353), (516, 349), (517, 346), (519, 341), (521, 335), (521, 334), (523, 331), (524, 330), (524, 329), (524, 329), (524, 329), (524, 329), (524, 329), (524, 329), (524, 329), (524, 329), (524, 329), (524, 329), (524, 329), (524, 329), (524, 329), (524, 329), (524, 329), (524, 329), (525, 326), (529, 321), (533, 317), (535, 312), (539, 306), (541, 303), (542, 303), (542, 303), (542, 303), (542, 303), (542, 303), (542, 303), (543, 303), (543, 305), (545, 310), (546, 313), (548, 318), (548, 319), (548, 320), (548, 320), (548, 320), (548, 320), (548, 320), (548, 320), (543, 312), (537, 303), (530, 292), (522, 280), (512, 252), (509, 239), (504, 227), (501, 214), (495, 192), (491, 181), (490, 172), (485, 162), (482, 144), (481, 137), (480, 130)]",262.81946450227986,"[1, 9, 6, 8, 7, 5, 2, 4, 3]","(0, 0.25)",ENG009C,ENG,C,Chinese,Fri Oct 19 16:55:08 2018,Mouse
2,0,3,0,2,2,2,1,341,11,330,153,0,500,200,8000,"[(512, 384), (512, 378), (508, 366), (506, 359), (503, 353), (502, 346), (498, 330), (497, 323), (496, 318), (494, 310), (493, 304), (492, 298), (490, 294), (489, 292), (489, 285), (488, 282), (487, 279), (486, 275), (484, 267), (483, 263), (483, 261), (481, 256), (480, 250), (480, 247), (479, 241), (477, 232), (473, 215), (473, 207), (470, 197), (468, 187), (463, 168), (462, 162), (459, 155), (458, 148), (455, 135)]",257.10625595511783,"[1, 9, 6, 8, 7, 5, 2, 4, 3]","(0, 0.25)",ENG009C,ENG,C,Chinese,Fri Oct 19 16:55:08 2018,Mouse
2,0,3,0,3,7,7,1,340,20,320,152,0,500,200,8000,"[(510, 384), (507, 383), (506, 383), (500, 382), (497, 382), (493, 382), (486, 382), (477, 382), (474, 382), (468, 383), (466, 384), (458, 385), (454, 387), (451, 388), (448, 388), (444, 390), (443, 391), (441, 392), (441, 392), (437, 393), (437, 395), (436, 395), (434, 396), (429, 396), (425, 396), (419, 396), (410, 396), (388, 396), (373, 395), (359, 394), (342, 391), (304, 384), (280, 380), (254, 377)]",181.5541553729342,"[1, 9, 6, 8, 7, 5, 2, 4, 3]","(0, 0.25)",ENG009C,ENG,C,Chinese,Fri Oct 19 16:55:08 2018,Mouse
2,0,3,0,4,6,6,1,790,20,770,151,0,500,200,8000,"[(511, 381), (509, 374), (508, 372), (507, 367), (506, 364), (505, 357), (503, 354), (503, 351), (502, 346), (498, 338), (497, 335), (496, 331), (495, 326), (492, 320), (490, 315), (490, 313), (489, 308), (489, 301), (489, 298), (489, 296), (488, 293), (486, 285), (486, 282), (485, 280), (485, 278), (485, 276), (485, 274), (485, 274), (485, 273), (485, 273), (485, 273), (485, 273), (485, 273), (485, 273), (485, 273), (482, 273), (481, 274), (475, 286), (473, 292), (472, 299), (470, 303), (466, 318), (463, 326), (462, 335), (460, 340), (458, 356), (457, 364), (456, 370), (455, 380), (452, 396), (451, 406), (451, 417), (451, 427), (451, 443), (451, 450), (451, 457), (451, 462), (451, 472), (451, 476), (451, 481), (452, 485), (452, 491), (453, 494), (454, 497), (454, 500), (457, 507), (457, 510), (458, 517), (458, 523), (458, 536), (458, 545), (458, 553), (456, 563), (455, 579), (454, 588), (454, 591), (453, 598), (450, 618), (449, 626)]",104.59195620196542,"[1, 9, 6, 8, 7, 5, 2, 4, 3]","(0, 0.25)",ENG009C,ENG,C,Chinese,Fri Oct 19 16:55:08 2018,Mouse
2,0,3,0,5,4,4,1,510,20,490,150,0,500,200,8000,"[(510, 381), (509, 378), (507, 376), (507, 375), (506, 373), (504, 367), (504, 363), (501, 358), (501, 354), (498, 343), (496, 339), (496, 333), (495, 329), (493, 321), (493, 318), (493, 314), (493, 310), (493, 303), (493, 299), (493, 296), (493, 292), (493, 285), (493, 282), (493, 279), (493, 275), (493, 271), (493, 269), (493, 268), (493, 267), (493, 266), (493, 266), (493, 266), (493, 266), (493, 266), (493, 266), (493, 266), (493, 266), (493, 264), (493, 262), (493, 261), (497, 259), (508, 253), (516, 248), (525, 241), (536, 233), (556, 220), (568, 210), (580, 202), (594, 189), (624, 163), (647, 147)]",299.66671520694644,"[1, 9, 6, 8, 7, 5, 2, 4, 3]","(0, 0.25)",ENG009C,ENG,C,Chinese,Fri Oct 19 16:55:08 2018,Mouse
2,0,3,0,6,5,5,1,399,19,380,149,0,500,200,8000,"[(511, 383), (510, 382), (509, 381), (508, 379), (506, 378), (503, 378), (499, 377), (485, 376), (478, 376), (470, 376), (463, 376), (452, 376), (449, 376), (447, 376), (446, 376), (445, 376), (445, 376), (445, 376), (444, 376), (444, 377), (444, 377), (444, 377), (444, 377), (443, 377), (443, 377), (443, 377), (443, 377), (443, 377), (443, 377), (443, 377), (443, 377), (443, 377), (441, 377), (435, 375), (423, 365), (390, 334), (374, 318), (360, 302), (341, 284), (306, 240)]",214.9546696305033,"[1, 9, 6, 8, 7, 5, 2, 4, 3]","(0, 0.25)",ENG009C,ENG,C,Chinese,Fri Oct 19 16:55:08 2018,Mouse
2,0,3,0,7,3,3,1,440,230,210,148,0,500,200,8000,"[(512, 384), (512, 384), (512, 384), (512, 384), (512, 384), (512, 384), (512, 384), (512, 384), (512, 384), (512, 384), (512, 384), (512, 384), (512, 384), (512, 384), (512, 384), (512, 384), (512, 384), (512, 384), (512, 384), (512, 384), (512, 384), (512, 384), (514, 384), (517, 384), (519, 385), (521, 385), (524, 387), (533, 389), (538, 389), (547, 389), (553, 389), (573, 389), (584, 389), (592, 387), (598, 386), (619, 379), (637, 374), (650, 370), (663, 366), (692, 357), (708, 354), (728, 347), (740, 345), (779, 337)]",350.0165055729284,"[1, 9, 6, 8, 7, 5, 2, 4, 3]","(0, 0.25)",ENG009C,ENG,C,Chinese,Fri Oct 19 16:55:08 2018,Mouse
2,0,3,0,8,6,6,1,801,251,550,147,0,500,200,8000,"[(512, 384), (512, 384), (512, 384), (512, 384), (512, 384), (512, 384), (512, 384), (512, 384), (512, 384), (512, 384), (512, 384), (512, 384), (512, 384), (512, 384), (512, 384), (512, 384), (512, 384), (512, 384), (512, 384), (512, 384), (512, 384), (512, 384), (512, 384), (512, 384), (512, 384), (512, 385), (512, 385), (512, 385), (512, 385), (512, 385), (512, 385), (512, 385), (512, 385), (512, 385), (512, 385), (512, 385), (512, 385), (512, 385), (512, 385), (512, 385), (512, 386), (512, 386), (510, 389), (503, 390), (483, 396), (476, 397), (469, 400), (463, 401), (454, 404), (453, 405), (451, 405), (451, 405), (449, 405), (449, 406), (449, 407), (449, 409), (446, 415), (445, 420), (444, 424), (443, 427), (443, 431), (442, 434), (442, 436), (442, 436), (442, 438), (442, 438), (442, 439), (442, 439), (442, 441), (442, 442), (443, 444), (444, 447), (447, 454), (449, 460), (450, 467), (453, 476), (458, 503), (464, 525), (464, 542), (467, 577), (467, 646)]",99.7457869552949,"[1, 9, 6, 8, 7, 5, 2, 4, 3]","(0, 0.25)",ENG009C,ENG,C,Chinese,Fri Oct 19 16:55:08 2018,Mouse
2,0,3,0,9,5,5,1,629,19,610,146,0,500,200,8000,"[(512, 383), (512, 382), (512, 381), (512, 378), (512, 376), (512, 374), (512, 373), (512, 369), (512, 368), (512, 367), (512, 364), (512, 362), (512, 362), (512, 362), (512, 362), (512, 362), (512, 362), (512, 362), (512, 362), (512, 362), (512, 362), (512, 362), (512, 362), (512, 362), (512, 362), (512, 362), (512, 362), (512, 362), (512, 362), (512, 362), (512, 362), (512, 362), (512, 362), (512, 362), (512, 362), (512, 362), (512, 362), (512, 362), (512, 362), (512, 362), (512, 362), (512, 362), (512, 362), (512, 362), (512, 362), (512, 362), (512, 362), (512, 362), (512, 362), (512, 358), (508, 348), (486, 329), (473, 316), (459, 301), (448, 286), (423, 263), (411, 252), (398, 241), (386, 233), (366, 218), (357, 212), (347, 206), (340, 199)]",227.08547946412963,"[1, 9, 6, 8, 7, 5, 2, 4, 3]","(0, 0.25)",ENG009C,ENG,C,Chinese,Fri Oct 19 16:55:08 2018,Mouse
2,0,3,0,10,9,9,1,709,179,530,145,0,500,200,8000,"[(512, 384), (512, 384), (512, 384), (512, 384), (512, 384), (512, 384), (512, 384), (512, 384), (512, 384), (512, 384), (512, 384), (512, 384), (512, 384), (512, 384), (512, 384), (512, 384), (512, 384), (515, 384), (517, 384), (517, 384), (517, 384), (517, 384), (517, 384), (517, 384), (517, 384), (517, 384), (517, 384), (517, 384), (517, 384), (517, 384), (517, 384), (517, 384), (517, 384), (517, 384), (517, 384), (517, 384), (517, 384), (517, 384), (517, 384), (517, 384), (517, 385), (517, 390), (517, 392), (517, 396), (517, 400), (517, 402), (517, 404), (517, 406), (517, 408), (517, 410), (517, 410), (517, 414), (517, 418), (518, 423), (521, 431), (526, 447), (531, 456), (533, 464), (538, 469), (542, 476), (549, 488), (553, 493), (560, 502), (564, 510), (573, 529), (579, 544), (585, 559), (589, 571), (600, 602), (606, 613), (611, 625)]",67.66771109935128,"[1, 9, 6, 8, 7, 5, 2, 4, 3]","(0, 0.25)",ENG009C,ENG,C,Chinese,Fri Oct 19 16:55:08 2018,Mouse
2,0,3,0,11,5,5,1,461,11,450,144,0,500,200,8000,"[(512, 384), (511, 378), (510, 377), (508, 373), (508, 370), (504, 364), (504, 361), (504, 360), (504, 358), (502, 355), (502, 354), (502, 352), (501, 351), (500, 350), (500, 350), (500, 349), (500, 349), (500, 348), (500, 348), (500, 348), (500, 348), (499, 347), (498, 344), (496, 341), (495, 339), (488, 332), (487, 331), (485, 329), (484, 329), (484, 329), (484, 328), (483, 328), (482, 327), (478, 325), (476, 324), (470, 320), (463, 318), (442, 308), (431, 303), (419, 296), (404, 287), (382, 273), (368, 263), (357, 256), (347, 249), (328, 233), (317, 225)]",219.19327309446842,"[1, 9, 6, 8, 7, 5, 2, 4, 3]","(0, 0.25)",ENG009C,ENG,C,Chinese,Fri Oct 19 16:55:08 2018,Mouse
2,0,3,0,12,8,8,1,1959,639,1320,143,0,500,200,8000,"[(512, 384), (512, 384), (512, 384), (512, 384), (512, 384), (512, 384), (512, 384), (512, 384), (512, 384), (512, 384), (512, 384), (512, 384), (512, 384), (512, 384), (512, 384), (512, 384), (512, 384), (512, 384), (512, 384), (512, 384), (512, 384), (512, 384), (512, 384), (512, 384), (512, 384), (512, 384), (512, 384), (512, 384), (512, 384), (512, 384), (512, 384), (512, 384), (512, 384), (512, 384), (512, 384), (512, 384), (512, 384), (512, 384), (512, 384), (512, 384), (512, 384), (512, 384), (512, 384), (512, 384), (512, 384), (512, 384), (512, 384), (512, 384), (512, 384), (512, 384), (512, 384), (512, 384), (512, 384), (512, 384), (512, 384), (512, 384), (512, 384), (512, 384), (512, 384), (512, 384), (512, 384), (512, 384), (512, 384), (514, 384), (515, 384), (516, 383), (516, 381), (519, 377), (519, 376), (519, 373), (521, 372), (522, 369), (523, 368), (523, 368), (524, 366), (524, 365), (524, 365), (524, 365), (524, 365), (524, 365), (524, 365), (524, 365), (524, 365), (524, 365), (524, 365), (524, 365), (524, 365), (524, 364), (524, 364), (524, 364), (524, 364), (524, 364), (524, 364), (524, 364), (524, 364), (524, 364), (524, 364), (524, 364), (524, 364), (524, 364), (524, 364), (524, 364), (524, 364), (524, 364), (524, 364), (524, 364), (524, 364), (524, 364), (524, 364), (524, 364), (524, 364), (524, 364), (524, 364), (524, 364), (524, 364), (524, 364), (524, 364), (524, 364), (524, 364), (524, 364), (524, 364), (524, 364), (524, 364), (524, 364), (524, 364), (524, 364), (524, 364), (524, 364), (524, 364), (524, 364), (524, 364), (524, 364), (524, 364), (524, 364), (524, 363), (524, 354), (523, 351), (522, 350), (521, 349), (521, 349), (521, 349), (521, 349), (521, 349), (521, 349), (521, 349), (521, 349), (521, 349), (521, 348), (519, 348), (514, 352), (512, 358), (507, 371), (504, 379), (502, 386), (500, 392), (498, 403), (498, 406), (497, 409), (497, 409), (497, 410), (497, 410), (497, 410), (496, 410), (495, 414), (493, 416), (490, 420), (487, 423), (482, 430), (477, 435), (473, 440), (471, 442), (464, 449), (460, 453), (458, 454), (456, 456), (453, 461), (450, 464), (449, 465), (447, 467), (443, 470), (442, 472), (441, 473), (438, 474), (434, 476), (432, 478), (430, 479), (427, 480), (416, 485), (409, 490), (399, 496), (388, 502), (368, 513), (353, 523), (338, 528), (330, 531), (307, 541)]",142.55316977502923,"[1, 9, 6, 8, 7, 5, 2, 4, 3]","(0, 0.25)",ENG009C,ENG,C,Chinese,Fri Oct 19 16:55:08 2018,Mouse
2,0,3,0,13,9,9,1,1201,280,921,142,0,500,200,8000,"[(512, 384), (512, 384), (512, 384), (512, 384), (512, 384), (512, 384), (512, 384), (512, 384), (512, 384), (512, 384), (512, 384), (512, 384), (512, 384), (512, 384), (512, 384), (512, 384), (512, 384), (512, 384), (512, 384), (512, 384), (512, 384), (512, 384), (512, 384), (512, 384), (512, 384), (512, 384), (512, 384), (514, 382), (514, 381), (516, 378), (517, 377), (518, 377), (518, 376), (518, 375), (518, 375), (519, 374), (519, 374), (519, 374), (519, 374), (519, 374), (519, 374), (519, 374), (519, 374), (519, 374), (519, 374), (519, 374), (519, 374), (519, 374), (519, 374), (520, 375), (520, 377), (524, 383), (524, 386), (527, 390), (528, 392), (529, 395), (529, 395), (529, 395), (530, 396), (530, 397), (530, 397), (530, 398), (530, 401), (532, 413), (534, 423), (537, 432), (540, 443), (546, 462), (549, 470), (551, 479), (553, 485), (557, 494), (559, 497), (560, 500), (562, 501), (564, 503), (564, 503), (565, 505), (565, 505), (565, 505), (565, 505), (565, 505), (565, 505), (565, 505), (565, 505), (565, 505), (565, 505), (565, 505), (566, 507), (568, 508), (569, 511), (574, 519), (578, 522), (582, 529), (586, 535), (597, 547), (603, 555), (609, 561), (614, 566), (621, 572), (624, 574), (624, 574), (624, 574), (624, 574), (624, 574), (624, 574), (624, 574), (625, 575), (625, 575), (625, 575), (625, 575), (625, 575), (625, 575), (625, 575), (625, 575), (625, 575), (625, 575), (625, 578), (625, 585), (629, 617)]",63.33667142442716,"[1, 9, 6, 8, 7, 5, 2, 4, 3]","(0, 0.25)",ENG009C,ENG,C,Chinese,Fri Oct 19 16:55:08 2018,Mouse
2,0,3,0,14,7,7,1,580,30,550,141,0,500,200,8000,"[(512, 384), (512, 384), (511, 383), (511, 383), (511, 383), (511, 382), (510, 382), (509, 381), (509, 381), (507, 380), (506, 379), (501, 377), (498, 377), (494, 374), (488, 373), (479, 372), (472, 369), (469, 368), (464, 367), (459, 367), (457, 366), (457, 366), (457, 366), (457, 366), (457, 366), (457, 366), (457, 366), (457, 366), (457, 366), (455, 366), (455, 366), (450, 366), (446, 367), (437, 369), (430, 370), (415, 370), (408, 370), (404, 370), (402, 370), (399, 370), (398, 370), (398, 371), (398, 371), (398, 371), (398, 371), (398, 371), (398, 371), (395, 371), (391, 371), (384, 371), (376, 371), (356, 371), (345, 371), (332, 371), (319, 371), (289, 371), (269, 371), (250, 371)]",182.84059072896932,"[1, 9, 6, 8, 7, 5, 2, 4, 3]","(0, 0.25)",ENG009C,ENG,C,Chinese,Fri Oct 19 16:55:08 2018,Mouse
2,0,3,0,15,6,6,1,970,180,790,140,0,500,200,8000,"[(512, 384), (512, 384), (512, 384), (512, 384), (512, 384), (512, 384), (512, 384), (512, 384), (512, 384), (512, 384), (512, 384), (512, 384), (512, 384), (512, 384), (512, 384), (512, 384), (512, 384), (510, 380), (508, 377), (507, 375), (506, 372), (504, 369), (504, 366), (504, 365), (500, 359), (500, 357), (497, 353), (497, 352), (495, 349), (493, 346), (492, 344), (492, 344), (492, 343), (492, 342), (492, 342), (492, 342), (492, 342), (492, 342), (492, 342), (492, 342), (492, 342), (492, 342), (492, 342), (492, 342), (492, 342), (492, 342), (492, 342), (492, 342), (492, 342), (493, 352), (495, 360), (499, 368), (505, 384), (508, 391), (513, 401), (516, 406), (525, 422), (528, 427), (530, 432), (532, 434), (532, 436), (532, 436), (534, 437), (534, 440), (534, 442), (535, 443), (536, 447), (537, 450), (539, 454), (540, 457), (540, 462), (542, 466), (542, 472), (541, 477), (541, 478), (540, 480), (538, 483), (538, 484), (537, 485), (537, 486), (533, 489), (531, 491), (531, 491), (529, 493), (527, 494), (526, 496), (526, 497), (524, 498), (524, 502), (522, 509), (520, 518), (518, 529), (508, 555), (504, 572), (499, 591), (493, 614), (484, 647)]",96.07703970289532,"[1, 9, 6, 8, 7, 5, 2, 4, 3]","(0, 0.25)",ENG009C,ENG,C,Chinese,Fri Oct 19 16:55:08 2018,Mouse
2,0,3,0,16,1,1,1,390,200,190,139,0,500,200,8000,"[(512, 384), (512, 384), (512, 384), (512, 384), (512, 384), (512, 384), (512, 384), (512, 384), (512, 384), (512, 384), (512, 384), (512, 384), (512, 384), (512, 384), (512, 384), (512, 384), (512, 384), (512, 384), (512, 384), (512, 383), (512, 382), (512, 382), (513, 381), (515, 379), (517, 378), (519, 377), (522, 377), (526, 376), (529, 376), (533, 376), (539, 376), (560, 378), (574, 383), (599, 391), (624, 397), (685, 414), (719, 425), (743, 431), (760, 435)]",11.620595933512263,"[1, 9, 6, 8, 7, 5, 2, 4, 3]","(0, 0.25)",ENG009C,ENG,C,Chinese,Fri Oct 19 16:55:08 2018,Mouse
2,0,3,0,17,4,4,1,710,90,620,138,0,500,200,8000,"[(512, 384), (512, 384), (512, 384), (512, 384), (512, 384), (512, 384), (512, 384), (512, 384), (506, 382), (493, 378), (482, 374), (472, 373), (460, 367), (455, 367), (450, 366), (449, 366), (447, 365), (447, 365), (447, 365), (447, 365), (446, 364), (446, 364), (446, 364), (446, 364), (446, 364), (446, 364), (445, 364), (443, 362), (437, 359), (431, 355), (423, 348), (416, 342), (402, 327), (398, 324), (397, 322), (394, 320), (393, 319), (393, 319), (393, 319), (393, 319), (393, 319), (393, 319), (393, 319), (393, 319), (393, 319), (393, 319), (393, 319), (393, 319), (398, 319), (403, 320), (406, 321), (409, 321), (415, 324), (419, 326), (422, 327), (427, 327), (435, 328), (444, 328), (444, 328), (449, 328), (467, 316), (477, 309), (487, 301), (503, 289), (544, 263), (563, 251), (588, 237), (610, 224), (654, 204), (672, 197), (694, 190)]",313.172031755695,"[1, 9, 6, 8, 7, 5, 2, 4, 3]","(0, 0.25)",ENG009C,ENG,C,Chinese,Fri Oct 19 16:55:08 2018,Mouse
2,0,3,0,18,6,6,1,949,39,910,137,0,500,200,8000,"[(512, 384), (512, 384), (512, 384), (511, 385), (507, 386), (498, 387), (476, 389), (466, 390), (459, 390), (450, 390), (430, 390), (422, 389), (418, 389), (416, 389), (415, 389), (415, 389), (415, 389), (415, 389), (415, 389), (415, 389), (415, 389), (415, 389), (415, 389), (415, 389), (415, 389), (415, 389), (415, 389), (415, 389), (415, 389), (415, 389), (415, 389), (415, 389), (415, 389), (415, 389), (415, 389), (415, 389), (415, 389), (415, 389), (415, 389), (415, 389), (415, 389), (415, 389), (415, 389), (415, 389), (415, 389), (415, 389), (415, 389), (415, 389), (415, 389), (415, 389), (415, 389), (415, 389), (415, 389), (415, 389), (415, 389), (414, 389), (413, 389), (413, 390), (413, 393), (411, 394), (411, 394), (411, 395), (411, 396), (411, 398), (410, 402), (410, 403), (410, 408), (410, 410), (410, 413), (410, 416), (410, 426), (410, 430), (410, 440), (410, 448), (416, 467), (420, 474), (423, 480), (427, 490), (430, 499), (432, 504), (433, 508), (434, 513), (438, 527), (442, 535), (444, 543), (448, 553), (458, 573), (464, 583), (468, 591), (471, 597), (477, 610), (479, 617), (480, 622), (481, 629), (481, 642)]",96.85153021823494,"[1, 9, 6, 8, 7, 5, 2, 4, 3]","(0, 0.25)",ENG009C,ENG,C,Chinese,Fri Oct 19 16:55:08 2018,Mouse
2,0,3,0,19,5,3,0,-461,371,90,136,0,500,200,8000,"[(512, 384), (512, 384), (512, 384), (512, 384), (512, 384), (512, 384), (512, 384), (512, 384), (512, 384), (512, 384), (512, 384), (512, 384), (512, 384), (512, 384), (512, 384), (512, 384), (512, 384), (512, 384), (512, 384), (512, 384), (512, 384), (512, 384), (512, 384), (512, 384), (512, 384), (512, 384), (512, 384), (512, 384), (512, 384), (512, 384), (512, 384), (512, 384), (512, 384), (512, 384), (512, 384), (512, 384), (517, 381), (529, 377), (543, 371), (576, 356), (599, 349), (628, 337), (641, 329), (700, 311), (723, 305), (753, 298)]",340.3612379235958,"[1, 9, 6, 8, 7, 5, 2, 4, 3]","(0, 0.25)",ENG009C,ENG,C,Chinese,Fri Oct 19 16:55:08 2018,Mouse
2,0,3,0,20,2,2,1,400,150,250,137,0,500,200,8000,"[(512, 384), (512, 384), (512, 384), (512, 384), (512, 384), (512, 384), (512, 384), (512, 384), (512, 384), (512, 384), (512, 384), (512, 384), (512, 384), (512, 384), (508, 381), (508, 375), (503, 367), (502, 365), (502, 364), (502, 364), (502, 364), (502, 362), (502, 362), (502, 362), (502, 362), (502, 362), (502, 362), (502, 362), (502, 362), (502, 362), (502, 362), (502, 361), (502, 357), (502, 336), (502, 318), (502, 293), (499, 264), (490, 200), (487, 165), (476, 132)]",261.86989764584405,"[1, 9, 6, 8, 7, 5, 2, 4, 3]","(0, 0.25)",ENG009C,ENG,C,Chinese,Fri Oct 19 16:55:08 2018,Mouse
2,0,3,0,21,9,9,1,850,360,490,137,0,500,200,8000,"[(512, 384), (512, 384), (512, 384), (512, 384), (512, 384), (512, 384), (512, 384), (512, 384), (512, 384), (512, 384), (512, 384), (512, 384), (512, 384), (512, 384), (512, 384), (512, 384), (512, 384), (512, 384), (512, 384), (512, 384), (512, 384), (512, 384), (512, 384), (512, 384), (512, 384), (512, 384), (512, 384), (512, 384), (512, 384), (512, 384), (512, 384), (512, 384), (512, 384), (512, 384), (512, 384), (512, 383), (512, 381), (512, 379), (511, 379), (511, 379), (511, 379), (511, 379), (511, 379), (511, 379), (511, 379), (511, 379), (511, 379), (511, 379), (511, 379), (511, 379), (510, 379), (508, 383), (506, 393), (506, 400), (506, 406), (506, 407), (506, 421), (506, 430), (506, 435), (508, 443), (508, 455), (508, 459), (510, 465), (511, 468), (511, 474), (511, 476), (512, 478), (512, 479), (513, 479), (513, 479), (513, 479), (513, 479), (513, 479), (513, 479), (513, 480), (516, 481), (526, 487), (531, 492), (538, 500), (545, 506), (564, 528), (579, 546), (593, 561), (605, 576), (633, 605)]",61.298796381537315,"[1, 9, 6, 8, 7, 5, 2, 4, 3]","(0, 0.25)",ENG009C,ENG,C,Chinese,Fri Oct 19 16:55:08 2018,Mouse
2,0,3,0,22,9,9,1,280,80,200,136,0,500,200,8000,"[(512, 384), (512, 384), (512, 384), (512, 384), (512, 384), (512, 384), (512, 384), (515, 385), (519, 394), (525, 403), (529, 411), (538, 429), (542, 434), (547, 441), (551, 447), (558, 457), (561, 461), (564, 466), (566, 469), (571, 481), (575, 488), (581, 498), (585, 510), (597, 537), (605, 552), (613, 568), (624, 585), (636, 610)]",61.24763157278565,"[1, 9, 6, 8, 7, 5, 2, 4, 3]","(0, 0.25)",ENG009C,ENG,C,Chinese,Fri Oct 19 16:55:08 2018,Mouse
2,0,3,0,23,8,3,0,-430,240,190,135,0,500,200,8000,"[(512, 384), (512, 384), (512, 384), (512, 384), (512, 384), (512, 384), (512, 384), (512, 384), (512, 384), (512, 384), (512, 384), (512, 384), (512, 384), (512, 384), (512, 384), (512, 384), (512, 384), (512, 384), (512, 384), (512, 384), (512, 384), (512, 384), (512, 384), (512, 381), (513, 376), (516, 372), (522, 364), (526, 355), (528, 352), (532, 348), (537, 344), (549, 338), (557, 335), (566, 333), (576, 329), (600, 322), (617, 320), (637, 314), (658, 310), (698, 299), (719, 294), (740, 293), (756, 289)]",338.7268345061055,"[1, 9, 6, 8, 7, 5, 2, 4, 3]","(0, 0.25)",ENG009C,ENG,C,Chinese,Fri Oct 19 16:55:08 2018,Mouse
2,0,3,0,24,5,5,1,338,208,130,136,0,500,200,8000,"[(512, 384), (512, 384), (512, 384), (512, 384), (512, 384), (512, 384), (512, 384), (512, 384), (512, 384), (512, 384), (512, 384), (512, 384), (512, 384), (512, 384), (512, 384), (512, 384), (512, 384), (512, 384), (512, 384), (512, 384), (511, 384), (480, 361), (465, 349), (456, 342), (448, 337), (429, 327), (421, 321), (413, 316), (404, 309), (381, 291), (372, 282), (360, 268), (343, 250), (305, 212)]",219.72379791346802,"[1, 9, 6, 8, 7, 5, 2, 4, 3]","(0, 0.25)",ENG009C,ENG,C,Chinese,Fri Oct 19 16:55:08 2018,Mouse
2,0,3,0,25,1,1,1,360,130,230,136,0,500,200,8000,"[(512, 384), (512, 384), (512, 384), (512, 384), (512, 384), (512, 384), (512, 384), (512, 384), (512, 384), (512, 384), (512, 384), (512, 384), (513, 384), (516, 388), (520, 394), (529, 406), (533, 409), (535, 413), (539, 415), (546, 420), (549, 421), (554, 423), (559, 425), (571, 428), (581, 430), (589, 430), (596, 432), (624, 438), (637, 439), (655, 444), (667, 448), (700, 457), (721, 461), (731, 462), (734, 463), (753, 467)]",19.003622749411033,"[1, 9, 6, 8, 7, 5, 2, 4, 3]","(0, 0.25)",ENG009C,ENG,C,Chinese,Fri Oct 19 16:55:08 2018,Mouse
2,0,3,0,26,7,7,1,701,641,60,135,0,500,200,8000,"[(512, 384), (512, 384), (512, 384), (512, 384), (512, 384), (512, 384), (512, 384), (512, 384), (512, 384), (512, 384), (512, 384), (512, 384), (512, 384), (512, 384), (512, 384), (512, 384), (512, 384), (512, 384), (512, 384), (512, 384), (512, 384), (512, 384), (512, 384), (512, 384), (512, 384), (512, 384), (512, 384), (512, 384), (512, 384), (512, 384), (512, 384), (512, 384), (512, 384), (512, 384), (512, 384), (512, 384), (512, 384), (512, 384), (512, 384), (512, 384), (512, 384), (512, 384), (512, 384), (512, 384), (512, 384), (512, 384), (512, 384), (512, 384), (512, 384), (512, 384), (512, 384), (512, 384), (512, 384), (512, 384), (512, 384), (512, 384), (512, 384), (512, 384), (512, 384), (512, 384), (512, 384), (512, 384), (512, 384), (512, 384), (486, 384), (458, 384), (433, 384), (358, 384), (317, 384), (278, 384), (236, 384)]",180.0,"[1, 9, 6, 8, 7, 5, 2, 4, 3]","(0, 0.25)",ENG009C,ENG,C,Chinese,Fri Oct 19 16:55:08 2018,Mouse
2,0,3,0,27,3,3,1,540,280,260,134,0,500,200,8000,"[(512, 384), (512, 384), (512, 384), (512, 384), (512, 384), (512, 384), (512, 384), (512, 384), (512, 384), (512, 384), (512, 384), (512, 384), (512, 384), (512, 384), (512, 384), (512, 384), (512, 384), (512, 384), (512, 384), (512, 384), (512, 384), (512, 384), (512, 384), (512, 384), (512, 384), (512, 384), (512, 384), (516, 384), (530, 380), (536, 374), (547, 369), (553, 364), (573, 355), (583, 351), (597, 345), (605, 342), (627, 333), (640, 330), (652, 324), (663, 321), (682, 313), (691, 310), (698, 308), (703, 305), (706, 303), (708, 303), (708, 303), (709, 303), (711, 301), (716, 301), (720, 300), (728, 300), (740, 297), (747, 296)]",339.47067855623663,"[1, 9, 6, 8, 7, 5, 2, 4, 3]","(0, 0.25)",ENG009C,ENG,C,Chinese,Fri Oct 19 16:55:08 2018,Mouse
2,0,3,0,28,5,3,0,-299,239,60,133,0,500,200,8000,"[(512, 384), (512, 384), (512, 384), (512, 384), (512, 384), (512, 384), (512, 384), (512, 384), (512, 384), (512, 384), (512, 384), (512, 384), (512, 384), (512, 384), (512, 384), (512, 384), (512, 384), (512, 384), (512, 384), (512, 384), (512, 384), (512, 384), (512, 384), (518, 385), (543, 374), (587, 365), (660, 341), (698, 332), (737, 323), (773, 312)]",344.5778386812613,"[1, 9, 6, 8, 7, 5, 2, 4, 3]","(0, 0.25)",ENG009C,ENG,C,Chinese,Fri Oct 19 16:55:08 2018,Mouse
2,0,3,0,29,5,7,0,-700,410,290,134,0,500,200,8000,"[(512, 384), (512, 384), (512, 384), (512, 384), (512, 384), (512, 384), (512, 384), (512, 384), (512, 384), (512, 384), (512, 384), (512, 384), (512, 384), (512, 384), (512, 384), (512, 384), (512, 384), (512, 384), (512, 384), (512, 384), (512, 384), (512, 384), (512, 384), (512, 384), (512, 384), (512, 384), (512, 384), (512, 384), (512, 384), (512, 384), (512, 384), (512, 384), (512, 384), (512, 384), (512, 384), (512, 384), (512, 384), (512, 384), (512, 384), (512, 384), (513, 387), (515, 387), (522, 390), (524, 390), (527, 391), (527, 391), (527, 391), (527, 391), (527, 391), (527, 391), (527, 391), (527, 391), (527, 391), (527, 391), (527, 391), (527, 391), (522, 394), (517, 394), (513, 395), (509, 395), (495, 395), (489, 395), (485, 395), (477, 395), (460, 395), (448, 395), (432, 395), (401, 395), (301, 395), (246, 395)]",177.63197489928908,"[1, 9, 6, 8, 7, 5, 2, 4, 3]","(0, 0.25)",ENG009C,ENG,C,Chinese,Fri Oct 19 16:55:08 2018,Mouse
2,0,3,0,30,3,3,1,239,119,120,135,0,500,200,8000,"[(512, 384), (512, 384), (512, 384), (512, 384), (512, 384), (512, 384), (512, 384), (512, 384), (512, 384), (512, 384), (512, 384), (530, 378), (545, 372), (562, 365), (579, 360), (613, 351), (627, 347), (638, 345), (648, 342), (672, 335), (684, 333), (701, 324), (717, 316), (759, 295)]",340.18469710363354,"[1, 9, 6, 8, 7, 5, 2, 4, 3]","(0, 0.25)",ENG009C,ENG,C,Chinese,Fri Oct 19 16:55:08 2018,Mouse
2,0,3,0,31,8,3,0,-220,140,80,135,0,500,200,8000,"[(512, 384), (512, 384), (512, 384), (512, 384), (512, 384), (512, 384), (512, 384), (512, 384), (512, 384), (512, 384), (512, 384), (512, 384), (512, 384), (517, 383), (529, 377), (559, 363), (579, 358), (600, 349), (627, 344), (688, 334), (726, 327), (761, 323)]",346.2347846879924,"[1, 9, 6, 8, 7, 5, 2, 4, 3]","(0, 0.25)",ENG009C,ENG,C,Chinese,Fri Oct 19 16:55:08 2018,Mouse
2,0,3,0,32,1,8,0,-421,60,361,136,0,500,200,8000,"[(512, 384), (512, 384), (512, 384), (512, 384), (512, 384), (505, 390), (500, 395), (495, 400), (487, 407), (473, 419), (468, 424), (462, 431), (455, 435), (447, 444), (444, 445), (443, 447), (442, 449), (442, 449), (442, 449), (442, 450), (441, 450), (441, 451), (441, 453), (441, 454), (440, 457), (440, 461), (440, 462), (440, 463), (437, 465), (437, 467), (437, 467), (434, 470), (430, 476), (425, 480), (419, 485), (412, 492), (401, 500), (377, 518), (365, 527), (358, 534), (348, 542), (326, 555)]",137.4059705166453,"[1, 9, 6, 8, 7, 5, 2, 4, 3]","(0, 0.25)",ENG009C,ENG,C,Chinese,Fri Oct 19 16:55:08 2018,Mouse
2,0,3,0,33,5,5,1,1540,1490,50,137,0,500,200,8000,"[(512, 384), (512, 384), (512, 384), (512, 384), (512, 384), (512, 384), (512, 384), (512, 384), (512, 384), (512, 384), (512, 384), (512, 384), (512, 384), (512, 384), (512, 384), (512, 384), (512, 384), (512, 384), (512, 384), (512, 384), (512, 384), (512, 384), (512, 384), (512, 384), (512, 384), (512, 384), (512, 384), (512, 384), (512, 384), (512, 384), (512, 384), (512, 384), (512, 384), (512, 384), (512, 384), (512, 384), (512, 384), (512, 384), (512, 384), (512, 384), (512, 384), (512, 384), (512, 384), (512, 384), (512, 384), (512, 384), (512, 384), (512, 384), (512, 384), (512, 384), (512, 384), (512, 384), (512, 384), (512, 384), (512, 384), (512, 384), (512, 384), (512, 384), (512, 384), (512, 384), (512, 384), (512, 384), (512, 384), (512, 384), (512, 384), (512, 384), (512, 384), (512, 384), (512, 384), (512, 384), (512, 384), (512, 384), (512, 384), (512, 384), (512, 384), (512, 384), (512, 384), (512, 384), (512, 384), (512, 384), (512, 384), (512, 384), (512, 384), (512, 384), (512, 384), (512, 384), (512, 384), (512, 384), (512, 384), (512, 384), (512, 384), (512, 384), (512, 384), (512, 384), (512, 384), (512, 384), (512, 384), (512, 384), (512, 384), (512, 384), (512, 384), (512, 384), (512, 384), (512, 384), (512, 384), (512, 384), (512, 384), (512, 384), (512, 384), (512, 384), (512, 384), (512, 384), (512, 384), (512, 384), (512, 384), (512, 384), (512, 384), (512, 384), (512, 384), (512, 384), (512, 384), (512, 384), (512, 384), (512, 384), (512, 384), (512, 384), (512, 384), (512, 384), (512, 384), (512, 384), (512, 384), (512, 384), (512, 384), (512, 384), (512, 384), (512, 384), (512, 384), (512, 384), (512, 384), (512, 384), (512, 384), (512, 384), (512, 384), (512, 384), (512, 384), (512, 384), (512, 384), (512, 384), (512, 380), (490, 342), (412, 273), (380, 245), (359, 225), (336, 203)]",225.80240943463897,"[1, 9, 6, 8, 7, 5, 2, 4, 3]","(0, 0.25)",ENG009C,ENG,C,Chinese,Fri Oct 19 16:55:08 2018,Mouse
2,0,3,0,34,1,1,1,840,180,660,137,0,500,200,8000,"[(512, 384), (512, 384), (512, 384), (512, 384), (512, 384), (512, 384), (512, 384), (512, 384), (512, 384), (512, 384), (512, 384), (512, 384), (512, 384), (512, 384), (512, 384), (512, 384), (512, 384), (515, 384), (520, 385), (521, 385), (526, 386), (527, 387), (527, 387), (527, 387), (527, 387), (527, 387), (527, 387), (527, 387), (527, 387), (527, 387), (527, 387), (527, 387), (527, 387), (528, 387), (528, 388), (528, 389), (523, 392), (517, 394), (510, 396), (502, 398), (477, 402), (466, 403), (458, 405), (452, 406), (446, 406), (445, 406), (445, 406), (445, 406), (445, 406), (445, 406), (445, 406), (445, 406), (445, 406), (445, 406), (445, 406), (445, 406), (445, 406), (445, 406), (445, 406), (445, 406), (445, 406), (445, 406), (445, 406), (445, 406), (445, 406), (445, 406), (445, 406), (445, 406), (445, 406), (445, 406), (445, 406), (445, 406), (445, 406), (445, 406), (445, 406), (445, 406), (460, 406), (475, 406), (496, 408), (530, 411), (628, 425), (687, 435), (744, 441), (801, 451)]",13.052520541291972,"[1, 9, 6, 8, 7, 5, 2, 4, 3]","(0, 0.25)",ENG009C,ENG,C,Chinese,Fri Oct 19 16:55:08 2018,Mouse
2,0,3,0,35,9,9,1,730,620,110,136,0,500,200,8000,"[(512, 384), (512, 384), (512, 384), (512, 384), (512, 384), (512, 384), (512, 384), (512, 384), (512, 384), (512, 384), (512, 384), (512, 384), (512, 384), (512, 384), (512, 384), (512, 384), (512, 384), (512, 384), (512, 384), (512, 384), (512, 384), (512, 384), (512, 384), (512, 384), (512, 384), (512, 384), (512, 384), (512, 384), (512, 384), (512, 384), (512, 384), (512, 384), (512, 384), (512, 384), (512, 384), (512, 384), (512, 384), (512, 384), (512, 384), (512, 384), (512, 384), (512, 384), (512, 384), (512, 384), (512, 384), (512, 384), (512, 384), (512, 384), (512, 384), (512, 384), (512, 384), (512, 384), (512, 384), (512, 384), (512, 384), (512, 384), (512, 384), (512, 384), (512, 384), (512, 384), (512, 384), (511, 387), (514, 403), (521, 423), (539, 464), (551, 484), (560, 500), (572, 519), (592, 552), (599, 567), (606, 581), (610, 591), (621, 615)]",64.73918083589484,"[1, 9, 6, 8, 7, 5, 2, 4, 3]","(0, 0.25)",ENG009C,ENG,C,Chinese,Fri Oct 19 16:55:08 2018,Mouse
2,0,3,0,36,7,7,1,819,739,80,135,0,500,200,8000,"[(512, 384), (512, 384), (512, 384), (512, 384), (512, 384), (512, 384), (512, 384), (512, 384), (512, 384), (512, 384), (512, 384), (512, 384), (512, 384), (512, 384), (512, 384), (512, 384), (512, 384), (512, 384), (512, 384), (512, 384), (512, 384), (512, 384), (512, 384), (512, 384), (512, 384), (512, 384), (512, 384), (512, 384), (512, 384), (512, 384), (512, 384), (512, 384), (512, 384), (512, 384), (512, 384), (512, 384), (512, 384), (512, 384), (512, 384), (512, 384), (512, 384), (512, 384), (512, 384), (512, 384), (512, 384), (512, 384), (512, 384), (512, 384), (512, 384), (512, 384), (512, 384), (512, 384), (512, 384), (512, 384), (512, 384), (512, 384), (512, 384), (512, 384), (512, 384), (512, 384), (512, 384), (512, 384), (512, 384), (512, 384), (512, 384), (512, 384), (512, 384), (512, 384), (512, 384), (512, 384), (512, 384), (512, 384), (512, 384), (495, 382), (463, 377), (432, 375), (363, 368), (334, 365), (311, 364), (290, 361), (264, 358), (254, 358)]",185.75456533110219,"[1, 9, 6, 8, 7, 5, 2, 4, 3]","(0, 0.25)",ENG009C,ENG,C,Chinese,Fri Oct 19 16:55:08 2018,Mouse
2,0,3,0,37,2,7,0,-1870,840,1030,134,0,500,200,8000,"[(512, 384), (512, 384), (512, 384), (512, 384), (512, 384), (512, 384), (512, 384), (512, 384), (512, 384), (512, 384), (512, 384), (512, 384), (512, 384), (512, 384), (512, 384), (512, 384), (512, 384), (512, 384), (512, 384), (512, 384), (512, 384), (512, 384), (512, 384), (512, 384), (512, 384), (512, 384), (512, 384), (512, 384), (512, 384), (512, 384), (512, 384), (512, 384), (512, 384), (512, 384), (512, 384), (512, 384), (512, 384), (512, 384), (512, 384), (512, 384), (512, 384), (512, 384), (512, 384), (512, 384), (512, 384), (512, 384), (512, 384), (512, 384), (512, 384), (512, 384), (512, 384), (512, 384), (512, 384), (512, 384), (512, 384), (512, 384), (512, 384), (512, 384), (512, 384), (512, 384), (512, 384), (512, 384), (512, 384), (512, 384), (512, 384), (512, 384), (512, 384), (512, 384), (512, 384), (512, 384), (512, 384), (512, 384), (512, 384), (512, 384), (512, 384), (512, 384), (512, 384), (512, 384), (512, 384), (512, 384), (512, 384), (512, 384), (512, 384), (509, 384), (505, 384), (498, 384), (495, 384), (494, 384), (494, 384), (494, 384), (494, 384), (494, 384), (494, 384), (494, 384), (494, 384), (494, 384), (494, 384), (494, 384), (494, 384), (494, 384), (494, 384), (494, 384), (494, 384), (494, 384), (494, 384), (494, 384), (494, 384), (494, 384), (494, 384), (494, 384), (494, 384), (494, 384), (494, 384), (494, 384), (494, 384), (494, 384), (494, 384), (494, 384), (494, 384), (494, 384), (494, 384), (494, 384), (494, 384), (494, 384), (494, 384), (494, 384), (494, 384), (494, 384), (494, 384), (494, 384), (494, 384), (494, 384), (494, 384), (494, 384), (494, 384), (494, 384), (494, 384), (494, 384), (494, 384), (494, 384), (494, 384), (494, 384), (494, 384), (494, 384), (494, 384), (494, 384), (494, 384), (494, 384), (494, 384), (494, 384), (494, 384), (494, 384), (494, 384), (494, 384), (494, 384), (494, 384), (494, 384), (494, 384), (494, 384), (494, 384), (494, 384), (494, 384), (494, 384), (494, 384), (494, 384), (494, 384), (494, 384), (494, 384), (494, 384), (494, 384), (494, 384), (494, 384), (494, 384), (494, 384), (487, 384), (476, 384), (466, 384), (441, 384), (425, 384), (405, 384), (389, 382), (346, 380), (323, 379), (306, 378), (292, 375), (263, 375), (248, 375)]",181.9525090493996,"[1, 9, 6, 8, 7, 5, 2, 4, 3]","(0, 0.25)",ENG009C,ENG,C,Chinese,Fri Oct 19 16:55:08 2018,Mouse
2,0,3,0,38,1,1,1,491,441,50,135,0,500,200,8000,"[(512, 384), (512, 384), (512, 384), (512, 384), (512, 384), (512, 384), (512, 384), (512, 384), (512, 384), (512, 384), (512, 384), (512, 384), (512, 384), (512, 384), (512, 384), (512, 384), (512, 384), (512, 384), (512, 384), (512, 384), (512, 384), (512, 384), (512, 384), (512, 384), (512, 384), (512, 384), (512, 384), (512, 384), (512, 384), (512, 384), (512, 384), (512, 384), (512, 384), (512, 384), (512, 384), (512, 384), (512, 384), (512, 384), (512, 384), (512, 384), (512, 384), (512, 384), (512, 384), (512, 384), (517, 384), (544, 386), (590, 394), (684, 406), (730, 413), (777, 421)]",7.948403873891743,"[1, 9, 6, 8, 7, 5, 2, 4, 3]","(0, 0.25)",ENG009C,ENG,C,Chinese,Fri Oct 19 16:55:08 2018,Mouse
2,0,3,0,39,1,1,1,1030,930,100,135,0,500,200,8000,"[(512, 384), (512, 384), (512, 384), (512, 384), (512, 384), (512, 384), (512, 384), (512, 384), (512, 384), (512, 384), (512, 384), (512, 384), (512, 384), (512, 384), (512, 384), (512, 384), (512, 384), (512, 384), (512, 384), (512, 384), (512, 384), (512, 384), (512, 384), (512, 384), (512, 384), (512, 384), (512, 384), (512, 384), (512, 384), (512, 384), (512, 384), (512, 384), (512, 384), (512, 384), (512, 384), (512, 384), (512, 384), (512, 384), (512, 384), (512, 384), (512, 384), (512, 384), (512, 384), (512, 384), (512, 384), (512, 384), (512, 384), (512, 384), (512, 384), (512, 384), (512, 384), (512, 384), (512, 384), (512, 384), (512, 384), (512, 384), (512, 384), (512, 384), (512, 384), (512, 384), (512, 384), (512, 384), (512, 384), (512, 384), (512, 384), (512, 384), (512, 384), (512, 384), (512, 384), (512, 384), (512, 384), (512, 384), (512, 384), (512, 384), (512, 384), (512, 384), (512, 384), (512, 384), (512, 384), (512, 384), (512, 384), (512, 384), (512, 384), (512, 384), (512, 384), (512, 384), (512, 384), (512, 384), (512, 384), (512, 384), (512, 384), (512, 384), (521, 388), (554, 403), (569, 409), (589, 416), (615, 426), (646, 440), (671, 447), (693, 453), (710, 459), (741, 473), (752, 476)]",20.973493421320804,"[1, 9, 6, 8, 7, 5, 2, 4, 3]","(0, 0.25)",ENG009C,ENG,C,Chinese,Fri Oct 19 16:55:08 2018,Mouse
2,0,3,0,40,4,2,0,-1380,320,1060,134,0,500,200,8000,"[(512, 384), (512, 384), (512, 384), (512, 384), (512, 384), (512, 384), (512, 384), (512, 384), (512, 384), (512, 384), (512, 384), (512, 384), (512, 384), (512, 384), (512, 384), (512, 384), (512, 384), (512, 384), (512, 384), (512, 384), (512, 384), (512, 384), (512, 384), (512, 384), (512, 384), (512, 384), (512, 384), (512, 384), (512, 384), (512, 384), (512, 384), (512, 383), (514, 381), (514, 381), (517, 380), (517, 380), (518, 380), (519, 379), (519, 379), (519, 379), (519, 379), (519, 379), (519, 379), (519, 379), (519, 379), (519, 379), (519, 379), (519, 379), (519, 379), (519, 379), (519, 379), (519, 379), (519, 379), (519, 379), (519, 379), (519, 379), (519, 379), (519, 379), (519, 379), (519, 379), (519, 379), (519, 379), (519, 379), (519, 379), (519, 379), (519, 379), (519, 379), (519, 379), (519, 379), (519, 379), (519, 379), (519, 379), (519, 379), (519, 379), (519, 379), (519, 379), (519, 379), (519, 379), (519, 379), (519, 379), (519, 379), (519, 379), (519, 379), (519, 379), (519, 379), (519, 379), (519, 379), (519, 379), (519, 379), (519, 379), (519, 379), (519, 379), (519, 379), (519, 379), (519, 379), (519, 379), (519, 379), (519, 379), (519, 379), (519, 379), (519, 379), (519, 379), (519, 379), (519, 379), (519, 379), (519, 379), (519, 379), (519, 379), (519, 379), (519, 379), (519, 372), (517, 365), (513, 359), (512, 352), (508, 340), (507, 333), (504, 326), (504, 322), (502, 314), (501, 307), (501, 303), (500, 297), (499, 288), (498, 281), (497, 273), (497, 267), (493, 250), (493, 241), (493, 230), (493, 222), (492, 206), (491, 199), (489, 191), (488, 183), (481, 161), (481, 152), (478, 145), (477, 136)]",261.96695420944064,"[1, 9, 6, 8, 7, 5, 2, 4, 3]","(0, 0.25)",ENG009C,ENG,C,Chinese,Fri Oct 19 16:55:08 2018,Mouse
2,0,3,0,41,7,7,1,410,130,280,135,0,500,200,8000,"[(512, 384), (512, 384), (512, 384), (512, 384), (512, 384), (512, 384), (512, 384), (512, 384), (512, 384), (512, 384), (512, 384), (512, 384), (512, 386), (509, 391), (505, 398), (503, 400), (492, 410), (486, 412), (483, 413), (477, 415), (466, 418), (462, 420), (459, 420), (453, 421), (446, 422), (443, 422), (440, 424), (438, 424), (431, 424), (425, 424), (416, 424), (410, 424), (390, 424), (376, 424), (361, 424), (346, 424), (312, 418), (297, 417), (284, 417), (274, 417), (257, 417)]",172.6262336386698,"[1, 9, 6, 8, 7, 5, 2, 4, 3]","(0, 0.25)",ENG009C,ENG,C,Chinese,Fri Oct 19 16:55:08 2018,Mouse
2,0,3,0,42,8,8,1,399,129,270,135,0,500,200,8000,"[(512, 384), (512, 384), (512, 384), (512, 384), (512, 384), (512, 384), (512, 384), (512, 384), (512, 384), (512, 384), (512, 384), (512, 384), (512, 385), (512, 389), (511, 391), (506, 401), (505, 405), (504, 409), (501, 413), (500, 417), (500, 418), (499, 419), (498, 421), (497, 423), (494, 426), (489, 431), (484, 436), (470, 446), (462, 451), (454, 457), (445, 463), (424, 477), (413, 484), (402, 491), (391, 496), (371, 508), (360, 513), (349, 519), (334, 524), (300, 534)]",144.71879220282563,"[1, 9, 6, 8, 7, 5, 2, 4, 3]","(0, 0.25)",ENG009C,ENG,C,Chinese,Fri Oct 19 16:55:08 2018,Mouse
2,0,3,0,43,6,8,0,-440,280,160,134,0,500,200,8000,"[(512, 384), (512, 384), (512, 384), (512, 384), (512, 384), (512, 384), (512, 384), (512, 384), (512, 384), (512, 384), (512, 384), (512, 384), (512, 384), (512, 384), (512, 384), (512, 384), (512, 384), (512, 384), (512, 384), (512, 384), (512, 384), (512, 384), (512, 384), (512, 384), (512, 384), (512, 384), (512, 384), (498, 391), (488, 397), (477, 402), (468, 408), (453, 415), (446, 421), (435, 426), (428, 433), (410, 447), (406, 451), (398, 461), (390, 471), (369, 497), (358, 510), (347, 522), (336, 531), (319, 547)]",139.81691529649262,"[1, 9, 6, 8, 7, 5, 2, 4, 3]","(0, 0.25)",ENG009C,ENG,C,Chinese,Fri Oct 19 16:55:08 2018,Mouse
2,0,3,0,44,6,3,0,-281,51,230,135,0,500,200,8000,"[(512, 384), (512, 384), (512, 384), (512, 384), (512, 384), (513, 381), (515, 373), (520, 368), (533, 357), (537, 354), (542, 350), (549, 346), (557, 341), (560, 338), (564, 336), (566, 336), (574, 332), (581, 329), (590, 327), (600, 324), (619, 318), (633, 317), (645, 315), (660, 310), (687, 303), (700, 299), (709, 298), (726, 293), (749, 286)]",337.53480234742017,"[1, 9, 6, 8, 7, 5, 2, 4, 3]","(0, 0.25)",ENG009C,ENG,C,Chinese,Fri Oct 19 16:55:08 2018,Mouse
2,0,3,0,45,9,9,1,800,630,170,136,0,500,200,8000,"[(512, 384), (512, 384), (512, 384), (512, 384), (512, 384), (512, 384), (512, 384), (512, 384), (512, 384), (512, 384), (512, 384), (512, 384), (512, 384), (512, 384), (512, 384), (512, 384), (512, 384), (512, 384), (512, 384), (512, 384), (512, 384), (512, 384), (512, 384), (512, 384), (512, 384), (512, 384), (512, 384), (512, 384), (512, 384), (512, 384), (512, 384), (512, 384), (512, 384), (512, 384), (512, 384), (512, 384), (512, 384), (512, 384), (512, 384), (512, 384), (512, 384), (512, 384), (512, 384), (512, 384), (512, 384), (512, 384), (512, 384), (512, 384), (512, 384), (512, 384), (512, 384), (512, 384), (512, 384), (512, 384), (512, 384), (512, 384), (512, 384), (512, 384), (512, 384), (512, 384), (512, 384), (512, 384), (511, 384), (511, 390), (514, 394), (516, 397), (518, 398), (521, 403), (522, 404), (524, 407), (526, 410), (536, 421), (546, 435), (553, 444), (565, 463), (588, 504), (598, 522), (609, 544), (616, 566), (632, 607)]",61.71456805805005,"[1, 9, 6, 8, 7, 5, 2, 4, 3]","(0, 0.25)",ENG009C,ENG,C,Chinese,Fri Oct 19 16:55:08 2018,Mouse
2,0,3,0,46,3,3,1,329,189,140,136,0,500,200,8000,"[(512, 384), (512, 384), (512, 384), (512, 384), (512, 384), (512, 384), (512, 384), (512, 384), (512, 384), (512, 384), (512, 384), (512, 384), (512, 384), (512, 384), (512, 384), (512, 384), (512, 384), (512, 384), (512, 383), (525, 380), (528, 380), (535, 378), (545, 375), (567, 370), (581, 367), (594, 365), (608, 361), (641, 351), (656, 346), (675, 342), (694, 336), (747, 324), (773, 321)]",346.4295656148385,"[1, 9, 6, 8, 7, 5, 2, 4, 3]","(0, 0.25)",ENG009C,ENG,C,Chinese,Fri Oct 19 16:55:08 2018,Mouse
2,0,3,0,47,4,7,0,-779,479,300,135,0,500,200,8000,"[(512, 384), (512, 384), (512, 384), (512, 384), (512, 384), (512, 384), (512, 384), (512, 384), (512, 384), (512, 384), (512, 384), (512, 384), (512, 384), (512, 384), (512, 384), (512, 384), (512, 384), (512, 384), (512, 384), (512, 384), (512, 384), (512, 384), (512, 384), (512, 384), (512, 384), (512, 384), (512, 384), (512, 384), (512, 384), (512, 384), (512, 384), (512, 384), (512, 384), (512, 384), (512, 384), (512, 384), (512, 384), (512, 384), (512, 384), (512, 384), (512, 384), (512, 384), (512, 384), (512, 384), (512, 384), (512, 384), (512, 384), (511, 386), (513, 391), (515, 393), (530, 401), (538, 403), (544, 406), (548, 408), (549, 409), (549, 409), (549, 409), (549, 409), (549, 409), (549, 409), (549, 409), (549, 409), (549, 409), (549, 409), (549, 409), (549, 409), (549, 409), (549, 409), (549, 409), (549, 409), (549, 409), (549, 410), (536, 410), (515, 410), (426, 410), (368, 410), (315, 410), (254, 410)]",174.24543466889781,"[1, 9, 6, 8, 7, 5, 2, 4, 3]","(0, 0.25)",ENG009C,ENG,C,Chinese,Fri Oct 19 16:55:08 2018,Mouse
2,0,3,0,48,1,1,1,249,19,230,136,0,500,200,8000,"[(517, 385), (531, 387), (542, 390), (556, 393), (583, 400), (596, 404), (607, 408), (617, 410), (633, 415), (638, 416), (643, 418), (645, 419), (649, 419), (651, 420), (653, 422), (654, 422), (660, 423), (667, 425), (674, 427), (684, 429), (707, 440), (721, 446), (734, 449), (745, 452), (768, 460)]",16.534837857345156,"[1, 9, 6, 8, 7, 5, 2, 4, 3]","(0, 0.25)",ENG009C,ENG,C,Chinese,Fri Oct 19 16:55:08 2018,Mouse
2,0,3,0,49,8,3,0,-290,130,160,136,0,500,200,8000,"[(512, 384), (512, 384), (512, 384), (512, 384), (512, 384), (512, 384), (512, 384), (512, 384), (512, 384), (512, 384), (512, 384), (512, 384), (512, 383), (512, 381), (519, 376), (533, 367), (542, 363), (550, 359), (561, 354), (580, 348), (590, 344), (598, 342), (607, 339), (624, 333), (640, 329), (657, 324), (679, 318), (734, 303), (759, 297)]",340.59637426214425,"[1, 9, 6, 8, 7, 5, 2, 4, 3]","(0, 0.25)",ENG009C,ENG,C,Chinese,Fri Oct 19 16:55:08 2018,Mouse
2,0,3,0,50,7,7,1,231,31,200,137,0,500,200,8000,"[(512, 384), (512, 384), (512, 384), (510, 384), (501, 386), (489, 390), (478, 391), (457, 392), (450, 394), (438, 394), (428, 394), (408, 396), (398, 396), (390, 396), (379, 397), (359, 399), (349, 399), (338, 400), (325, 400), (302, 402), (287, 402), (278, 403), (267, 403), (248, 403)]",175.88353758127533,"[1, 9, 6, 8, 7, 5, 2, 4, 3]","(0, 0.25)",ENG009C,ENG,C,Chinese,Fri Oct 19 16:55:08 2018,Mouse
2,0,3,0,51,7,7,1,199,39,160,137,0,500,200,8000,"[(512, 384), (512, 384), (512, 384), (496, 384), (480, 384), (463, 384), (438, 384), (398, 384), (379, 384), (364, 384), (350, 384), (334, 384), (331, 384), (327, 384), (321, 384), (314, 384), (306, 384), (295, 384), (283, 384), (256, 384)]",180.0,"[1, 9, 6, 8, 7, 5, 2, 4, 3]","(0, 0.25)",ENG009C,ENG,C,Chinese,Fri Oct 19 16:55:08 2018,Mouse
2,0,3,0,52,3,1,0,-1724,1464,260,136,0,500,200,8000,"[(512, 384), (512, 384), (512, 384), (512, 384), (512, 384), (512, 384), (512, 384), (512, 384), (512, 384), (512, 384), (512, 384), (512, 384), (512, 384), (512, 384), (512, 384), (512, 384), (512, 384), (512, 384), (512, 384), (512, 384), (512, 384), (512, 384), (512, 384), (512, 384), (512, 384), (512, 384), (512, 384), (512, 384), (512, 384), (512, 384), (512, 384), (512, 384), (512, 384), (512, 384), (512, 384), (512, 384), (512, 384), (512, 384), (512, 384), (512, 384), (512, 384), (512, 384), (512, 384), (512, 384), (512, 384), (512, 384), (512, 384), (512, 384), (512, 384), (512, 384), (512, 384), (512, 384), (512, 384), (512, 384), (512, 384), (512, 384), (512, 384), (512, 384), (512, 384), (512, 384), (512, 384), (512, 384), (512, 384), (512, 384), (512, 384), (512, 384), (512, 384), (512, 384), (512, 384), (512, 384), (512, 384), (512, 384), (512, 384), (512, 384), (512, 384), (512, 384), (512, 384), (512, 384), (512, 384), (512, 384), (512, 384), (512, 384), (512, 384), (512, 384), (512, 384), (512, 384), (512, 384), (512, 384), (512, 384), (512, 384), (512, 384), (512, 384), (512, 384), (512, 384), (512, 384), (512, 384), (512, 384), (512, 384), (512, 384), (512, 384), (512, 384), (512, 384), (512, 384), (512, 384), (512, 384), (512, 384), (512, 384), (512, 384), (512, 384), (512, 384), (512, 384), (512, 384), (512, 384), (512, 384), (512, 384), (512, 384), (512, 384), (512, 384), (512, 384), (512, 384), (512, 384), (512, 384), (512, 384), (512, 384), (512, 384), (512, 384), (512, 384), (512, 384), (512, 384), (512, 384), (512, 384), (512, 384), (512, 384), (512, 384), (512, 384), (512, 384), (512, 384), (512, 384), (512, 384), (512, 384), (512, 384), (512, 384), (512, 384), (512, 384), (512, 384), (512, 384), (514, 383), (516, 382), (516, 382), (516, 382), (516, 382), (516, 382), (516, 382), (516, 382), (516, 382), (516, 382), (516, 382), (516, 382), (516, 382), (516, 382), (516, 382), (516, 382), (520, 383), (533, 388), (542, 394), (545, 398), (555, 405), (582, 419), (601, 431), (622, 442), (649, 457), (707, 492), (731, 505)]",28.921151437817244,"[1, 9, 6, 8, 7, 5, 2, 4, 3]","(0, 0.25)",ENG009C,ENG,C,Chinese,Fri Oct 19 16:55:08 2018,Mouse
2,0,3,0,53,3,3,1,311,111,200,137,0,500,200,8000,"[(512, 384), (512, 384), (512, 384), (512, 384), (512, 384), (512, 384), (512, 384), (512, 384), (512, 384), (512, 384), (512, 384), (512, 380), (517, 372), (523, 364), (526, 361), (529, 356), (538, 346), (544, 341), (553, 335), (559, 332), (573, 324), (577, 321), (585, 319), (595, 313), (617, 308), (633, 303), (646, 298), (658, 296), (689, 291), (708, 290), (727, 286), (747, 286)]",337.3628251493101,"[1, 9, 6, 8, 7, 5, 2, 4, 3]","(0, 0.25)",ENG009C,ENG,C,Chinese,Fri Oct 19 16:55:08 2018,Mouse
2,0,3,0,54,4,1,0,-1091,411,680,137,0,500,200,8000,"[(512, 384), (512, 384), (512, 384), (512, 384), (512, 384), (512, 384), (512, 384), (512, 384), (512, 384), (512, 384), (512, 384), (512, 384), (512, 384), (512, 384), (512, 384), (512, 384), (512, 384), (512, 384), (512, 384), (512, 384), (512, 384), (512, 384), (512, 384), (512, 384), (512, 384), (512, 384), (512, 384), (512, 384), (512, 384), (512, 384), (512, 384), (512, 384), (512, 384), (512, 384), (512, 384), (512, 384), (512, 384), (512, 384), (512, 384), (512, 384), (512, 384), (511, 384), (508, 392), (506, 395), (506, 397), (505, 400), (504, 402), (504, 402), (503, 403), (502, 405), (499, 407), (497, 410), (496, 412), (493, 415), (489, 418), (487, 420), (485, 422), (483, 424), (475, 430), (472, 432), (466, 435), (460, 438), (446, 447), (440, 450), (435, 453), (429, 457), (422, 461), (419, 463), (417, 464), (415, 466), (412, 468), (411, 469), (410, 469), (410, 469), (410, 470), (410, 470), (410, 470), (408, 471), (408, 471), (408, 471), (408, 471), (408, 471), (408, 471), (408, 471), (408, 471), (408, 471), (408, 471), (408, 471), (408, 471), (408, 471), (408, 471), (408, 471), (408, 471), (408, 471), (408, 471), (408, 471), (408, 471), (408, 471), (408, 471), (408, 471), (413, 472), (413, 472), (435, 475), (446, 475), (466, 475), (511, 475), (616, 475), (677, 475), (729, 475), (777, 475)]",18.952278145708082,"[1, 9, 6, 8, 7, 5, 2, 4, 3]","(0, 0.25)",ENG009C,ENG,C,Chinese,Fri Oct 19 16:55:08 2018,Mouse
2,0,3,0,55,3,7,0,-642,462,180,138,0,500,200,8000,"[(512, 384), (512, 384), (512, 384), (512, 384), (512, 384), (512, 384), (512, 384), (512, 384), (512, 384), (512, 384), (512, 384), (512, 384), (512, 384), (512, 384), (512, 384), (512, 384), (512, 384), (512, 384), (512, 384), (512, 384), (512, 384), (512, 384), (512, 384), (512, 384), (512, 384), (512, 384), (512, 384), (512, 384), (512, 384), (512, 384), (512, 384), (512, 384), (512, 384), (512, 384), (512, 384), (512, 384), (512, 384), (512, 384), (512, 384), (512, 384), (512, 384), (512, 384), (512, 384), (512, 384), (512, 384), (512, 384), (511, 384), (507, 385), (499, 395), (491, 404), (472, 419), (465, 423), (459, 425), (456, 427), (449, 429), (447, 429), (443, 429), (435, 429), (413, 429), (401, 428), (383, 425), (368, 423), (322, 415), (295, 410), (261, 407)]",174.76441033820157,"[1, 9, 6, 8, 7, 5, 2, 4, 3]","(0, 0.25)",ENG009C,ENG,C,Chinese,Fri Oct 19 16:55:08 2018,Mouse
2,0,3,0,56,3,3,1,672,292,380,139,0,500,200,8000,"[(512, 384), (512, 384), (512, 384), (512, 384), (512, 384), (512, 384), (512, 384), (512, 384), (512, 384), (512, 384), (512, 384), (512, 384), (512, 384), (512, 384), (512, 384), (512, 384), (512, 384), (512, 384), (512, 384), (512, 384), (512, 384), (512, 384), (512, 384), (512, 384), (512, 384), (512, 384), (512, 384), (512, 384), (512, 384), (513, 384), (515, 383), (515, 383), (515, 383), (515, 383), (515, 383), (515, 383), (516, 383), (516, 383), (516, 383), (516, 383), (516, 383), (516, 383), (516, 383), (516, 383), (516, 383), (516, 383), (516, 383), (516, 383), (516, 383), (516, 383), (516, 383), (516, 383), (516, 383), (516, 383), (516, 383), (516, 383), (516, 383), (516, 383), (516, 383), (531, 378), (553, 373), (576, 365), (603, 359), (655, 347), (690, 342), (722, 339), (754, 334), (817, 320)]",348.1492172015998,"[1, 9, 6, 8, 7, 5, 2, 4, 3]","(0, 0.25)",ENG009C,ENG,C,Chinese,Fri Oct 19 16:55:08 2018,Mouse
2,0,3,0,57,1,1,1,322,142,180,139,0,500,200,8000,"[(512, 384), (512, 384), (512, 384), (512, 384), (512, 384), (512, 384), (512, 384), (512, 384), (512, 384), (512, 384), (512, 384), (512, 384), (512, 384), (512, 384), (516, 385), (526, 388), (535, 391), (568, 400), (580, 405), (594, 410), (606, 413), (634, 421), (645, 426), (652, 430), (661, 433), (678, 439), (685, 440), (694, 444), (702, 448), (721, 457), (732, 463), (744, 467), (755, 473)]",20.115516473235715,"[1, 9, 6, 8, 7, 5, 2, 4, 3]","(0, 0.25)",ENG009C,ENG,C,Chinese,Fri Oct 19 16:55:08 2018,Mouse
2,0,3,0,58,1,1,1,330,200,130,138,0,500,200,8000,"[(512, 384), (512, 384), (512, 384), (512, 384), (512, 384), (512, 384), (512, 384), (512, 384), (512, 384), (512, 384), (512, 384), (512, 384), (512, 384), (512, 384), (512, 384), (512, 384), (512, 384), (512, 384), (512, 384), (513, 383), (528, 384), (542, 389), (553, 394), (573, 398), (618, 411), (638, 420), (658, 426), (680, 431), (710, 440), (721, 443), (734, 448), (743, 450), (766, 456)]",15.826154076172548,"[1, 9, 6, 8, 7, 5, 2, 4, 3]","(0, 0.25)",ENG009C,ENG,C,Chinese,Fri Oct 19 16:55:08 2018,Mouse
2,0,3,0,59,3,3,1,280,160,120,137,0,500,200,8000,"[(512, 384), (512, 384), (512, 384), (512, 384), (512, 384), (512, 384), (512, 384), (512, 384), (512, 384), (512, 384), (512, 384), (512, 384), (512, 384), (512, 384), (512, 384), (511, 383), (511, 379), (517, 372), (527, 364), (553, 349), (563, 343), (576, 337), (589, 335), (634, 324), (666, 319), (699, 312), (728, 307), (778, 301)]",342.67050791608796,"[1, 9, 6, 8, 7, 5, 2, 4, 3]","(0, 0.25)",ENG009C,ENG,C,Chinese,Fri Oct 19 16:55:08 2018,Mouse
2,0,3,0,60,3,3,1,209,59,150,136,0,500,200,8000,"[(512, 384), (512, 384), (512, 384), (512, 384), (512, 384), (517, 382), (527, 377), (542, 369), (552, 367), (560, 362), (573, 358), (598, 351), (611, 347), (620, 344), (630, 340), (652, 331), (666, 328), (682, 323), (699, 318), (743, 306), (769, 298)]",341.4981949886193,"[1, 9, 6, 8, 7, 5, 2, 4, 3]","(0, 0.25)",ENG009C,ENG,C,Chinese,Fri Oct 19 16:55:08 2018,Mouse
2,0,3,0,61,1,1,1,429,299,130,135,0,500,200,8000,"[(512, 384), (512, 384), (512, 384), (512, 384), (512, 384), (512, 384), (512, 384), (512, 384), (512, 384), (512, 384), (512, 384), (512, 384), (512, 384), (512, 384), (512, 384), (512, 384), (512, 384), (512, 384), (512, 384), (512, 384), (512, 384), (512, 384), (512, 384), (512, 384), (512, 384), (512, 384), (512, 384), (512, 384), (512, 384), (532, 393), (579, 411), (599, 419), (612, 426), (636, 437), (666, 448), (674, 451), (684, 456), (694, 460), (709, 465), (717, 468), (727, 472), (735, 476), (756, 489)]",23.2835570052639,"[1, 9, 6, 8, 7, 5, 2, 4, 3]","(0, 0.25)",ENG009C,ENG,C,Chinese,Fri Oct 19 16:55:08 2018,Mouse
2,0,3,0,62,4,7,0,-749,439,310,134,0,500,200,8000,"[(512, 384), (512, 384), (512, 384), (512, 384), (512, 384), (512, 384), (512, 384), (512, 384), (512, 384), (512, 384), (512, 384), (512, 384), (512, 384), (512, 384), (512, 384), (512, 384), (512, 384), (512, 384), (512, 384), (512, 384), (512, 384), (512, 384), (512, 384), (512, 384), (512, 384), (512, 384), (512, 384), (512, 384), (512, 384), (512, 384), (512, 384), (512, 384), (512, 384), (512, 384), (512, 384), (512, 384), (512, 384), (512, 384), (512, 384), (512, 384), (512, 384), (512, 384), (512, 384), (510, 384), (509, 384), (507, 384), (507, 384), (503, 385), (501, 387), (500, 387), (500, 387), (498, 388), (498, 388), (498, 388), (498, 388), (498, 388), (498, 388), (498, 388), (497, 388), (495, 389), (495, 389), (494, 390), (494, 390), (491, 391), (488, 394), (485, 394), (480, 394), (466, 397), (455, 397), (441, 397), (425, 397), (361, 397), (314, 397), (269, 397), (226, 390)]",178.7981669355479,"[1, 9, 6, 8, 7, 5, 2, 4, 3]","(0, 0.25)",ENG009C,ENG,C,Chinese,Fri Oct 19 16:55:08 2018,Mouse
2,0,3,0,63,4,3,0,-301,151,150,135,0,500,200,8000,"[(512, 384), (512, 384), (512, 384), (512, 384), (512, 384), (512, 384), (512, 384), (512, 384), (512, 384), (512, 384), (512, 384), (512, 384), (512, 384), (512, 384), (512, 384), (518, 375), (525, 364), (534, 348), (538, 342), (542, 336), (548, 328), (561, 314), (569, 306), (575, 301), (584, 297), (607, 283), (620, 277), (634, 271), (654, 264), (700, 247), (720, 241)]",325.4914770123316,"[1, 9, 6, 8, 7, 5, 2, 4, 3]","(0, 0.25)",ENG009C,ENG,C,Chinese,Fri Oct 19 16:55:08 2018,Mouse
2,0,3,0,64,2,2,1,410,130,280,136,0,500,200,8000,"[(512, 384), (512, 384), (512, 384), (512, 384), (512, 384), (512, 384), (512, 384), (512, 384), (512, 384), (512, 384), (512, 384), (512, 384), (511, 382), (507, 379), (491, 370), (483, 365), (476, 359), (469, 354), (461, 346), (458, 342), (457, 341), (456, 338), (453, 333), (453, 331), (453, 328), (452, 326), (451, 317), (451, 313), (449, 309), (449, 300), (449, 283), (449, 273), (449, 265), (449, 251), (454, 228), (458, 210), (461, 196), (463, 182), (470, 156), (473, 146), (474, 133)]",261.3911139755487,"[1, 9, 6, 8, 7, 5, 2, 4, 3]","(0, 0.25)",ENG009C,ENG,C,Chinese,Fri Oct 19 16:55:08 2018,Mouse
2,0,3,0,65,1,1,1,360,20,340,136,0,500,200,8000,"[(513, 385), (518, 385), (521, 385), (526, 385), (529, 385), (534, 385), (537, 385), (538, 385), (539, 385), (541, 385), (544, 385), (545, 386), (547, 386), (556, 388), (560, 388), (564, 389), (569, 390), (578, 393), (584, 395), (590, 396), (597, 398), (603, 399), (612, 400), (619, 401), (625, 401), (637, 406), (646, 408), (652, 410), (660, 413), (675, 419), (685, 424), (698, 430), (713, 432), (738, 439), (751, 443), (759, 447)]",14.308818859306138,"[1, 9, 6, 8, 7, 5, 2, 4, 3]","(0, 0.25)",ENG009C,ENG,C,Chinese,Fri Oct 19 16:55:08 2018,Mouse
2,0,3,0,66,7,7,1,340,100,240,135,0,500,200,8000,"[(512, 384), (512, 384), (512, 384), (512, 384), (512, 384), (512, 384), (512, 384), (512, 384), (512, 384), (510, 384), (503, 384), (493, 384), (477, 384), (448, 384), (435, 386), (422, 386), (413, 386), (387, 386), (380, 386), (372, 386), (365, 386), (354, 386), (352, 386), (348, 386), (344, 386), (331, 386), (324, 386), (315, 386), (305, 386), (289, 386), (279, 386), (274, 386), (264, 386), (254, 386)]",179.55585556688806,"[1, 9, 6, 8, 7, 5, 2, 4, 3]","(0, 0.25)",ENG009C,ENG,C,Chinese,Fri Oct 19 16:55:08 2018,Mouse
2,0,3,0,67,6,7,0,-329,269,60,134,0,500,200,8000,"[(512, 384), (512, 384), (512, 384), (512, 384), (512, 384), (512, 384), (512, 384), (512, 384), (512, 384), (512, 384), (512, 384), (512, 384), (512, 384), (512, 384), (512, 384), (512, 384), (512, 384), (512, 384), (512, 384), (512, 384), (512, 384), (512, 384), (512, 384), (512, 384), (512, 384), (512, 384), (511, 385), (478, 385), (450, 385), (406, 385), (367, 385), (276, 378), (230, 371)]",182.63942613790726,"[1, 9, 6, 8, 7, 5, 2, 4, 3]","(0, 0.25)",ENG009C,ENG,C,Chinese,Fri Oct 19 16:55:08 2018,Mouse
2,0,3,0,68,3,9,0,-2870,1729,1141,135,0,500,200,8000,"[(512, 384), (512, 384), (512, 384), (512, 384), (512, 384), (512, 384), (512, 384), (512, 384), (512, 384), (512, 384), (512, 384), (512, 384), (512, 384), (512, 384), (512, 384), (512, 384), (512, 384), (512, 384), (512, 384), (512, 384), (512, 384), (512, 384), (512, 384), (512, 384), (512, 384), (512, 384), (512, 384), (512, 384), (512, 384), (512, 384), (512, 384), (512, 384), (512, 384), (512, 384), (512, 384), (512, 384), (512, 384), (512, 384), (512, 384), (512, 384), (512, 384), (512, 384), (512, 384), (512, 384), (512, 384), (512, 384), (512, 384), (512, 384), (512, 384), (512, 384), (512, 384), (512, 384), (512, 384), (512, 384), (512, 384), (512, 384), (512, 384), (512, 384), (512, 384), (512, 384), (512, 384), (512, 384), (512, 384), (512, 384), (512, 384), (512, 384), (512, 384), (512, 384), (512, 384), (512, 384), (512, 384), (512, 384), (512, 384), (512, 384), (512, 384), (512, 384), (512, 384), (512, 384), (512, 384), (512, 384), (512, 384), (512, 384), (512, 384), (512, 384), (512, 384), (512, 384), (512, 384), (512, 384), (512, 384), (512, 384), (512, 384), (512, 384), (512, 384), (512, 384), (512, 384), (512, 384), (512, 384), (512, 384), (512, 384), (512, 384), (512, 384), (512, 384), (512, 384), (512, 384), (512, 384), (512, 384), (512, 384), (512, 384), (512, 384), (512, 384), (512, 384), (512, 384), (512, 384), (512, 384), (512, 384), (512, 384), (512, 384), (512, 384), (512, 384), (512, 384), (512, 384), (512, 384), (512, 384), (512, 384), (512, 384), (512, 384), (512, 384), (512, 384), (512, 384), (512, 384), (512, 384), (512, 384), (512, 384), (512, 384), (512, 384), (512, 384), (512, 384), (512, 384), (512, 384), (512, 384), (512, 384), (512, 384), (512, 384), (512, 384), (512, 384), (512, 384), (512, 384), (512, 384), (512, 384), (512, 384), (512, 384), (512, 384), (512, 384), (512, 384), (512, 384), (512, 384), (512, 384), (512, 384), (512, 384), (512, 384), (512, 384), (512, 384), (512, 384), (512, 384), (512, 384), (512, 384), (512, 384), (512, 384), (512, 384), (512, 384), (512, 384), (512, 384), (511, 384), (508, 384), (506, 384), (506, 384), (506, 384), (506, 384), (506, 384), (506, 384), (506, 384), (506, 384), (506, 384), (506, 384), (506, 384), (506, 384), (506, 384), (506, 384), (506, 384), (506, 384), (506, 384), (506, 384), (506, 384), (506, 384), (506, 384), (506, 384), (506, 384), (506, 384), (506, 384), (506, 384), (506, 384), (506, 384), (506, 384), (505, 384), (504, 384), (503, 385), (501, 386), (499, 387), (498, 388), (498, 389), (495, 390), (494, 390), (493, 391), (493, 391), (492, 392), (492, 392), (492, 392), (492, 392), (492, 392), (492, 392), (492, 392), (492, 392), (492, 392), (492, 392), (492, 392), (492, 392), (492, 392), (492, 392), (492, 392), (492, 392), (492, 392), (492, 392), (492, 392), (492, 392), (492, 392), (492, 392), (492, 392), (492, 392), (492, 392), (492, 392), (492, 392), (492, 392), (492, 392), (492, 392), (492, 392), (492, 392), (492, 392), (492, 392), (492, 392), (492, 392), (492, 392), (492, 392), (492, 392), (492, 392), (492, 392), (492, 392), (492, 392), (492, 392), (492, 392), (492, 392), (492, 392), (492, 392), (492, 392), (492, 392), (492, 392), (492, 392), (492, 392), (492, 392), (492, 392), (492, 392), (492, 392), (492, 392), (492, 392), (492, 392), (491, 393), (492, 400), (498, 410), (500, 416), (516, 446), (524, 466), (535, 485), (551, 508), (590, 557), (603, 570), (614, 584), (629, 598), (641, 613)]",60.60662214293114,"[1, 9, 6, 8, 7, 5, 2, 4, 3]","(0, 0.25)",ENG009C,ENG,C,Chinese,Fri Oct 19 16:55:08 2018,Mouse
2,0,3,0,69,9,9,1,310,200,110,136,0,500,200,8000,"[(512, 384), (512, 384), (512, 384), (512, 384), (512, 384), (512, 384), (512, 384), (512, 384), (512, 384), (512, 384), (512, 384), (512, 384), (512, 384), (512, 384), (512, 384), (512, 384), (512, 384), (512, 384), (512, 384), (512, 388), (515, 395), (521, 405), (535, 423), (561, 460), (575, 480), (588, 497), (597, 513), (623, 552), (633, 573), (643, 592), (651, 605)]",57.83177904253009,"[1, 9, 6, 8, 7, 5, 2, 4, 3]","(0, 0.25)",ENG009C,ENG,C,Chinese,Fri Oct 19 16:55:08 2018,Mouse
2,0,3,0,70,8,6,0,-1150,740,410,136,0,500,200,8000,"[(512, 384), (512, 384), (512, 384), (512, 384), (512, 384), (512, 384), (512, 384), (512, 384), (512, 384), (512, 384), (512, 384), (512, 384), (512, 384), (512, 384), (512, 384), (512, 384), (512, 384), (512, 384), (512, 384), (512, 384), (512, 384), (512, 384), (512, 384), (512, 384), (512, 384), (512, 384), (512, 384), (512, 384), (512, 384), (512, 384), (512, 384), (512, 384), (512, 384), (512, 384), (512, 384), (512, 384), (512, 384), (512, 384), (512, 384), (512, 384), (512, 384), (512, 384), (512, 384), (512, 384), (512, 384), (512, 384), (512, 384), (512, 384), (512, 384), (512, 384), (512, 384), (512, 384), (512, 384), (512, 384), (512, 384), (512, 384), (512, 384), (512, 384), (512, 384), (512, 384), (512, 384), (512, 384), (512, 384), (512, 384), (512, 384), (512, 384), (512, 384), (512, 384), (512, 384), (512, 384), (512, 384), (512, 384), (512, 384), (510, 384), (507, 384), (505, 384), (503, 384), (503, 384), (503, 384), (503, 384), (503, 384), (503, 384), (503, 384), (503, 384), (503, 384), (503, 384), (503, 384), (503, 384), (503, 384), (503, 384), (503, 384), (503, 384), (503, 384), (503, 384), (503, 384), (503, 384), (503, 384), (502, 384), (500, 384), (500, 384), (498, 391), (493, 397), (492, 404), (489, 416), (483, 438), (481, 450), (478, 466), (474, 483), (469, 517), (464, 538), (464, 553), (462, 570), (457, 600), (453, 616), (452, 628)]",103.81502534126162,"[1, 9, 6, 8, 7, 5, 2, 4, 3]","(0, 0.25)",ENG009C,ENG,C,Chinese,Fri Oct 19 16:55:08 2018,Mouse
2,0,3,0,71,8,8,1,420,260,160,137,0,500,200,8000,"[(512, 384), (512, 384), (512, 384), (512, 384), (512, 384), (512, 384), (512, 384), (512, 384), (512, 384), (512, 384), (512, 384), (512, 384), (512, 384), (512, 384), (512, 384), (512, 384), (512, 384), (512, 384), (512, 384), (512, 384), (512, 384), (512, 384), (512, 384), (512, 384), (512, 384), (508, 383), (502, 383), (496, 386), (490, 392), (474, 409), (465, 421), (453, 434), (442, 446), (423, 471), (413, 483), (405, 495), (397, 505), (386, 525), (379, 536), (374, 545), (367, 560), (355, 583)]",128.27148790623133,"[1, 9, 6, 8, 7, 5, 2, 4, 3]","(0, 0.25)",ENG009C,ENG,C,Chinese,Fri Oct 19 16:55:08 2018,Mouse
2,0,3,0,72,1,1,1,360,80,280,137,0,500,200,8000,"[(512, 384), (512, 384), (512, 384), (512, 384), (512, 384), (512, 384), (512, 384), (525, 383), (532, 380), (540, 380), (546, 380), (558, 380), (562, 380), (568, 380), (571, 380), (573, 380), (575, 381), (577, 381), (581, 383), (587, 385), (590, 388), (593, 389), (597, 390), (603, 393), (611, 398), (617, 399), (625, 402), (644, 408), (648, 409), (657, 412), (667, 416), (688, 425), (701, 432), (712, 439), (730, 449), (759, 464)]",17.94644609662125,"[1, 9, 6, 8, 7, 5, 2, 4, 3]","(0, 0.25)",ENG009C,ENG,C,Chinese,Fri Oct 19 16:55:08 2018,Mouse
2,0,3,0,73,6,6,1,1699,589,1110,136,0,500,200,8000,"[(512, 384), (512, 384), (512, 384), (512, 384), (512, 384), (512, 384), (512, 384), (512, 384), (512, 384), (512, 384), (512, 384), (512, 384), (512, 384), (512, 384), (512, 384), (512, 384), (512, 384), (512, 384), (512, 384), (512, 384), (512, 384), (512, 384), (512, 384), (512, 384), (512, 384), (512, 384), (512, 384), (512, 384), (512, 384), (512, 384), (512, 384), (512, 384), (512, 384), (512, 384), (512, 384), (512, 384), (512, 384), (512, 384), (512, 384), (512, 384), (512, 384), (512, 384), (512, 384), (512, 384), (512, 384), (512, 384), (512, 384), (512, 384), (512, 384), (512, 384), (512, 384), (512, 384), (512, 384), (512, 384), (512, 384), (512, 384), (512, 384), (512, 384), (511, 384), (511, 382), (509, 382), (508, 381), (507, 381), (507, 381), (507, 381), (507, 381), (507, 381), (507, 381), (507, 381), (507, 381), (507, 381), (507, 381), (507, 381), (507, 381), (507, 381), (507, 381), (507, 381), (507, 381), (504, 380), (502, 378), (499, 378), (497, 376), (496, 375), (496, 375), (495, 374), (495, 374), (495, 374), (495, 374), (495, 374), (495, 374), (495, 374), (495, 374), (495, 374), (495, 374), (495, 374), (495, 374), (495, 374), (495, 374), (495, 374), (495, 374), (495, 374), (495, 374), (495, 374), (495, 374), (495, 374), (495, 374), (495, 374), (495, 374), (495, 374), (495, 374), (495, 374), (495, 374), (495, 374), (495, 374), (494, 374), (494, 369), (494, 369), (494, 368), (494, 368), (494, 367), (494, 367), (494, 367), (494, 367), (494, 367), (494, 367), (494, 367), (494, 367), (494, 367), (494, 367), (494, 367), (494, 367), (496, 369), (499, 375), (500, 382), (502, 391), (510, 411), (512, 418), (514, 425), (516, 431), (517, 438), (517, 440), (518, 441), (518, 441), (518, 441), (518, 441), (518, 441), (518, 441), (519, 444), (518, 447), (518, 451), (517, 459), (515, 479), (514, 489), (514, 500), (514, 509), (516, 521), (520, 527), (521, 529), (522, 531), (523, 535), (523, 536), (523, 538), (523, 543), (519, 556), (514, 569), (510, 579), (506, 591), (497, 617), (494, 629), (488, 643)]",95.2941430074,"[1, 9, 6, 8, 7, 5, 2, 4, 3]","(0, 0.25)",ENG009C,ENG,C,Chinese,Fri Oct 19 16:55:08 2018,Mouse
2,0,3,0,74,4,4,1,3061,1241,1820,135,0,500,200,8000,"[(512, 384), (512, 384), (512, 384), (512, 384), (512, 384), (512, 384), (512, 384), (512, 384), (512, 384), (512, 384), (512, 384), (512, 384), (512, 384), (512, 384), (512, 384), (512, 384), (512, 384), (512, 384), (512, 384), (512, 384), (512, 384), (512, 384), (512, 384), (512, 384), (512, 384), (512, 384), (512, 384), (512, 384), (512, 384), (512, 384), (512, 384), (512, 384), (512, 384), (512, 384), (512, 384), (512, 384), (512, 384), (512, 384), (512, 384), (512, 384), (512, 384), (512, 384), (512, 384), (512, 384), (512, 384), (512, 384), (512, 384), (512, 384), (512, 384), (512, 384), (512, 384), (512, 384), (512, 384), (512, 384), (512, 384), (512, 384), (512, 384), (512, 384), (512, 384), (512, 384), (512, 384), (512, 384), (512, 384), (512, 384), (512, 384), (512, 384), (512, 384), (512, 384), (512, 384), (512, 384), (512, 384), (512, 384), (512, 384), (512, 384), (512, 384), (512, 384), (512, 384), (512, 384), (512, 384), (512, 384), (512, 384), (512, 384), (512, 384), (512, 384), (512, 384), (512, 384), (512, 384), (512, 384), (512, 384), (512, 384), (512, 384), (512, 384), (512, 384), (512, 384), (512, 384), (512, 384), (512, 384), (512, 384), (512, 384), (512, 384), (512, 384), (512, 384), (512, 384), (512, 384), (512, 384), (512, 384), (512, 384), (512, 384), (512, 384), (512, 384), (512, 384), (512, 384), (512, 384), (512, 384), (512, 384), (512, 384), (512, 384), (512, 384), (512, 384), (512, 384), (512, 384), (512, 384), (512, 384), (512, 384), (511, 384), (508, 384), (505, 386), (503, 386), (502, 386), (501, 387), (499, 388), (497, 390), (493, 392), (489, 394), (477, 399), (473, 401), (470, 402), (468, 403), (464, 405), (464, 405), (463, 406), (463, 406), (462, 407), (462, 407), (462, 407), (462, 407), (462, 407), (462, 407), (462, 407), (462, 407), (462, 407), (462, 407), (462, 407), (462, 407), (462, 407), (462, 407), (462, 407), (462, 407), (461, 408), (460, 408), (460, 409), (460, 409), (460, 409), (460, 410), (460, 412), (459, 413), (459, 416), (459, 418), (459, 420), (460, 423), (463, 427), (464, 428), (467, 430), (467, 431), (468, 432), (470, 432), (470, 432), (470, 432), (470, 432), (470, 432), (470, 432), (470, 432), (470, 432), (470, 432), (472, 432), (475, 431), (484, 420), (488, 411), (492, 404), (494, 399), (500, 387), (502, 378), (505, 370), (510, 362), (521, 340), (528, 328), (533, 316), (539, 304), (549, 285), (555, 278), (559, 270), (560, 265), (563, 260), (564, 256), (566, 254), (568, 251), (574, 244), (577, 239), (580, 234), (584, 228), (593, 217), (598, 210), (602, 206), (603, 202), (608, 194), (611, 190), (611, 190), (612, 189), (613, 186), (614, 185), (614, 185), (614, 185), (614, 185), (614, 185), (614, 185), (614, 185), (614, 185), (614, 185), (614, 185), (614, 185), (614, 185), (614, 185), (614, 185), (614, 187), (614, 190), (614, 191), (614, 191), (614, 191), (614, 191), (614, 191), (614, 191), (614, 191), (614, 191), (614, 191), (614, 192), (614, 192), (614, 192), (614, 192), (614, 192), (614, 192), (614, 192), (614, 192), (614, 192), (614, 192), (614, 192), (614, 192), (614, 192), (614, 192), (614, 192), (614, 192), (614, 192), (614, 192), (614, 192), (614, 192), (614, 192), (614, 192), (614, 192), (614, 192), (614, 192), (614, 192), (614, 192), (614, 192), (614, 192), (614, 192), (614, 192), (614, 192), (614, 192), (614, 192), (614, 192), (614, 192), (614, 192), (614, 192), (614, 192), (614, 192), (614, 192), (614, 192), (614, 192), (614, 192), (614, 192), (614, 192), (614, 192), (614, 192), (614, 192), (614, 192), (614, 192), (614, 192), (614, 192), (614, 192), (614, 192), (614, 193), (614, 193), (615, 192), (619, 190), (620, 185), (628, 178), (633, 170), (644, 158)]",300.287952990666,"[1, 9, 6, 8, 7, 5, 2, 4, 3]","(0, 0.25)",ENG009C,ENG,C,Chinese,Fri Oct 19 16:55:08 2018,Mouse
2,0,3,0,75,3,2,0,-300,100,200,134,0,500,200,8000,"[(512, 384), (512, 384), (512, 384), (512, 384), (512, 384), (512, 384), (512, 384), (512, 384), (512, 384), (510, 376), (507, 370), (501, 349), (500, 343), (498, 333), (495, 327), (490, 315), (489, 313), (489, 311), (488, 308), (486, 301), (485, 295), (484, 290), (482, 283), (479, 261), (474, 248), (471, 237), (465, 223), (455, 184), (449, 162), (446, 141)]",254.80475147318012,"[1, 9, 6, 8, 7, 5, 2, 4, 3]","(0, 0.25)",ENG009C,ENG,C,Chinese,Fri Oct 19 16:55:08 2018,Mouse
2,0,3,0,76,8,8,1,500,350,150,135,0,500,200,8000,"[(512, 384), (512, 384), (512, 384), (512, 384), (512, 384), (512, 384), (512, 384), (512, 384), (512, 384), (512, 384), (512, 384), (512, 384), (512, 384), (512, 384), (512, 384), (512, 384), (512, 384), (512, 384), (512, 384), (512, 384), (512, 384), (512, 384), (512, 384), (512, 384), (512, 384), (512, 384), (512, 384), (512, 384), (512, 384), (512, 384), (512, 384), (512, 384), (512, 384), (512, 384), (508, 387), (499, 394), (486, 410), (463, 439), (450, 452), (437, 470), (429, 479), (414, 500), (410, 505), (405, 511), (402, 516), (392, 527), (386, 534), (378, 546), (369, 556), (344, 592)]",128.92754359279232,"[1, 9, 6, 8, 7, 5, 2, 4, 3]","(0, 0.25)",ENG009C,ENG,C,Chinese,Fri Oct 19 16:55:08 2018,Mouse
2,0,3,0,77,7,7,1,380,290,90,135,0,500,200,8000,"[(512, 383), (512, 383), (512, 383), (512, 383), (512, 383), (512, 383), (512, 383), (512, 383), (512, 383), (512, 383), (512, 383), (512, 383), (512, 383), (512, 383), (512, 383), (512, 383), (512, 383), (512, 383), (512, 383), (512, 383), (512, 383), (512, 383), (512, 383), (512, 383), (512, 383), (512, 383), (512, 383), (512, 383), (512, 382), (510, 382), (505, 382), (477, 378), (454, 377), (422, 373), (390, 370), (319, 365), (284, 359), (247, 358)]",185.6035383676243,"[1, 9, 6, 8, 7, 5, 2, 4, 3]","(0, 0.25)",ENG009C,ENG,C,Chinese,Fri Oct 19 16:55:08 2018,Mouse
2,0,3,0,78,2,2,1,1178,198,980,134,0,500,200,8000,"[(512, 384), (512, 384), (512, 384), (512, 384), (512, 384), (512, 384), (512, 384), (512, 384), (512, 384), (512, 384), (512, 384), (512, 384), (512, 384), (512, 384), (512, 384), (512, 384), (512, 384), (512, 384), (512, 384), (510, 382), (510, 382), (510, 382), (510, 382), (510, 382), (508, 381), (508, 381), (508, 381), (508, 381), (508, 381), (508, 381), (508, 381), (508, 381), (508, 381), (508, 381), (508, 381), (508, 381), (508, 381), (508, 381), (508, 381), (508, 381), (508, 381), (508, 381), (508, 381), (508, 381), (508, 381), (508, 381), (508, 381), (508, 381), (508, 381), (508, 378), (508, 377), (508, 377), (508, 377), (508, 377), (509, 377), (509, 377), (509, 377), (509, 377), (509, 377), (509, 377), (509, 377), (509, 377), (509, 377), (509, 377), (509, 377), (509, 377), (509, 377), (509, 377), (509, 377), (509, 377), (509, 377), (509, 377), (510, 378), (510, 378), (510, 378), (509, 378), (509, 378), (509, 378), (509, 378), (509, 378), (509, 378), (508, 378), (508, 374), (505, 363), (500, 352), (497, 336), (494, 330), (493, 324), (493, 323), (493, 323), (493, 323), (493, 323), (493, 323), (498, 326), (504, 333), (510, 340), (515, 350), (523, 365), (525, 368), (525, 369), (525, 370), (526, 372), (526, 372), (526, 372), (526, 372), (524, 364), (522, 352), (519, 343), (516, 331), (512, 318), (508, 303), (505, 285), (500, 272), (497, 240), (497, 215), (497, 190), (497, 156), (495, 95)]",266.6335393365702,"[1, 9, 6, 8, 7, 5, 2, 4, 3]","(0, 0.25)",ENG009C,ENG,C,Chinese,Fri Oct 19 16:55:08 2018,Mouse
2,0,3,0,79,7,9,0,-2391,330,2061,133,0,500,200,8000,"[(512, 384), (512, 384), (512, 384), (512, 384), (512, 384), (512, 384), (512, 384), (512, 384), (512, 384), (512, 384), (512, 384), (512, 384), (512, 384), (512, 384), (512, 384), (512, 384), (512, 384), (512, 384), (512, 384), (512, 384), (512, 384), (512, 384), (512, 384), (512, 384), (512, 384), (512, 384), (512, 384), (512, 384), (512, 384), (512, 384), (512, 384), (512, 384), (512, 385), (518, 385), (524, 385), (533, 384), (539, 385), (544, 386), (547, 388), (549, 395), (550, 400), (551, 404), (551, 408), (546, 422), (540, 428), (536, 432), (531, 435), (517, 438), (510, 438), (500, 438), (489, 438), (469, 436), (456, 432), (444, 430), (429, 425), (421, 423), (416, 421), (416, 421), (416, 421), (416, 421), (416, 421), (416, 421), (416, 421), (416, 421), (416, 421), (416, 421), (415, 420), (415, 420), (415, 420), (415, 420), (415, 420), (415, 420), (415, 420), (415, 420), (415, 420), (415, 420), (415, 420), (415, 420), (415, 420), (415, 420), (415, 420), (415, 420), (415, 420), (415, 420), (415, 420), (415, 420), (415, 420), (415, 420), (415, 420), (415, 420), (415, 420), (415, 420), (415, 420), (415, 420), (415, 420), (415, 420), (415, 420), (415, 420), (415, 420), (415, 420), (415, 420), (415, 420), (415, 420), (415, 420), (415, 420), (415, 420), (416, 420), (430, 420), (445, 420), (457, 420), (476, 420), (515, 420), (527, 421), (539, 421), (553, 422), (559, 424), (559, 424), (559, 424), (560, 425), (561, 426), (561, 426), (561, 426), (561, 428), (561, 432), (561, 434), (561, 437), (560, 438), (558, 441), (558, 441), (557, 443), (555, 444), (553, 446), (553, 446), (553, 446), (553, 447), (553, 447), (553, 447), (553, 447), (553, 447), (553, 447), (553, 447), (553, 447), (553, 447), (553, 447), (553, 447), (553, 447), (553, 447), (553, 447), (551, 446), (550, 443), (550, 439), (546, 431), (543, 426), (542, 422), (541, 419), (532, 405), (530, 399), (525, 390), (521, 384), (516, 374), (515, 366), (515, 361), (513, 356), (513, 343), (513, 341), (513, 338), (513, 336), (515, 332), (516, 332), (517, 330), (520, 330), (529, 328), (536, 328), (543, 327), (552, 327), (563, 327), (573, 329), (578, 330), (584, 333), (590, 334), (591, 336), (591, 336), (591, 336), (592, 339), (592, 340), (592, 343), (592, 344), (590, 353), (588, 361), (585, 365), (584, 371), (580, 385), (580, 392), (580, 402), (580, 413), (595, 438), (601, 449), (611, 461), (620, 477), (646, 502), (655, 512), (664, 520), (670, 525), (676, 532), (676, 532), (676, 532), (676, 532), (676, 532), (676, 532), (676, 532), (676, 532), (676, 532), (676, 532), (676, 532), (676, 532), (676, 532), (676, 532), (676, 532), (676, 532), (676, 532), (676, 532), (676, 533), (676, 533), (674, 533), (674, 533), (673, 533), (673, 533), (672, 533), (672, 533), (671, 533), (671, 533), (669, 535), (669, 535), (668, 536), (665, 540), (660, 559), (658, 570), (655, 580), (654, 592)]",55.67894719653514,"[1, 9, 6, 8, 7, 5, 2, 4, 3]","(0, 0.25)",ENG009C,ENG,C,Chinese,Fri Oct 19 16:55:08 2018,Mouse
2,0,3,0,80,5,9,0,-480,100,380,134,0,500,200,8000,"[(512, 384), (512, 384), (512, 384), (512, 384), (512, 384), (512, 384), (512, 384), (512, 384), (512, 384), (511, 384), (511, 384), (511, 384), (511, 384), (511, 383), (510, 382), (510, 382), (510, 382), (510, 382), (510, 382), (510, 382), (509, 380), (509, 380), (509, 380), (509, 380), (509, 380), (509, 380), (509, 380), (509, 380), (509, 380), (509, 380), (509, 380), (509, 380), (509, 380), (509, 380), (509, 380), (509, 380), (509, 380), (509, 380), (509, 384), (515, 394), (535, 428), (550, 453), (561, 477), (577, 497), (610, 557), (621, 580), (632, 602), (641, 622)]",61.541562977175744,"[1, 9, 6, 8, 7, 5, 2, 4, 3]","(0, 0.25)",ENG009C,ENG,C,Chinese,Fri Oct 19 16:55:08 2018,Mouse
2,0,3,0,81,1,1,1,330,180,150,135,0,500,200,8000,"[(512, 384), (512, 384), (512, 384), (512, 384), (512, 384), (512, 384), (512, 384), (512, 384), (512, 384), (512, 384), (512, 384), (512, 384), (512, 384), (512, 384), (512, 384), (512, 384), (512, 384), (512, 383), (512, 382), (512, 380), (512, 379), (513, 379), (514, 379), (516, 379), (539, 385), (552, 389), (569, 396), (587, 407), (633, 430), (661, 438), (689, 446), (722, 455), (785, 471)]",17.676108698653465,"[1, 9, 6, 8, 7, 5, 2, 4, 3]","(0, 0.25)",ENG009C,ENG,C,Chinese,Fri Oct 19 16:55:08 2018,Mouse
2,0,3,0,82,8,8,1,480,20,460,135,0,500,200,8000,"[(512, 384), (509, 384), (502, 383), (493, 383), (489, 383), (483, 382), (476, 382), (470, 378), (469, 378), (468, 377), (468, 376), (467, 369), (465, 364), (464, 362), (463, 360), (462, 356), (462, 355), (461, 355), (461, 355), (461, 355), (461, 355), (461, 355), (461, 355), (461, 355), (461, 355), (461, 355), (457, 356), (450, 365), (446, 370), (443, 375), (439, 379), (429, 391), (425, 393), (423, 399), (421, 402), (416, 410), (411, 416), (405, 425), (401, 434), (389, 454), (382, 464), (373, 476), (365, 486), (350, 506), (342, 515), (333, 526), (325, 533), (316, 548)]",140.07960786001456,"[1, 9, 6, 8, 7, 5, 2, 4, 3]","(0, 0.25)",ENG009C,ENG,C,Chinese,Fri Oct 19 16:55:08 2018,Mouse
2,0,3,0,83,4,1,0,-738,688,50,134,0,500,200,8000,"[(512, 384), (512, 384), (512, 384), (512, 384), (512, 384), (512, 384), (512, 384), (512, 384), (512, 384), (512, 384), (512, 384), (512, 384), (512, 384), (512, 384), (512, 384), (512, 384), (512, 384), (512, 384), (512, 384), (512, 384), (512, 384), (512, 384), (512, 384), (512, 384), (512, 384), (512, 384), (512, 384), (512, 384), (512, 384), (512, 384), (512, 384), (512, 384), (512, 384), (512, 384), (512, 384), (512, 384), (512, 384), (512, 384), (512, 384), (512, 384), (512, 384), (512, 384), (512, 384), (512, 384), (512, 384), (512, 384), (512, 384), (512, 384), (512, 384), (512, 384), (512, 384), (512, 384), (512, 384), (512, 384), (512, 384), (512, 384), (512, 384), (512, 384), (512, 384), (512, 384), (512, 384), (512, 384), (512, 384), (512, 384), (512, 384), (512, 384), (512, 384), (512, 384), (522, 384), (546, 390), (585, 403), (688, 435), (738, 449), (796, 466)]",16.105142084148863,"[1, 9, 6, 8, 7, 5, 2, 4, 3]","(0, 0.25)",ENG009C,ENG,C,Chinese,Fri Oct 19 16:55:08 2018,Mouse
2,0,3,0,84,1,1,1,1520,60,1460,135,0,500,200,8000,"[(512, 384), (512, 384), (512, 384), (512, 384), (512, 384), (513, 384), (517, 385), (523, 389), (530, 393), (552, 404), (560, 410), (569, 413), (582, 422), (600, 429), (607, 435), (616, 439), (625, 443), (639, 452), (643, 454), (647, 455), (651, 456), (653, 458), (653, 458), (653, 458), (653, 458), (653, 458), (653, 458), (653, 458), (653, 458), (653, 458), (653, 458), (653, 458), (653, 458), (653, 458), (653, 458), (653, 458), (653, 458), (653, 458), (653, 458), (653, 458), (653, 458), (653, 458), (653, 458), (653, 458), (653, 458), (653, 458), (653, 458), (653, 458), (653, 458), (653, 458), (653, 458), (653, 458), (653, 458), (653, 458), (653, 458), (653, 458), (653, 458), (653, 458), (653, 458), (653, 458), (653, 458), (653, 458), (653, 458), (653, 458), (653, 458), (653, 458), (653, 458), (653, 458), (653, 458), (653, 458), (653, 458), (653, 458), (653, 458), (653, 458), (653, 458), (653, 458), (653, 458), (653, 458), (653, 458), (653, 458), (653, 458), (653, 458), (653, 458), (653, 458), (653, 458), (653, 458), (653, 458), (653, 458), (653, 458), (653, 458), (653, 458), (653, 458), (653, 458), (653, 458), (653, 458), (653, 458), (653, 458), (653, 458), (653, 458), (653, 458), (653, 458), (653, 458), (653, 458), (653, 458), (653, 458), (653, 458), (653, 458), (653, 458), (653, 458), (653, 458), (653, 458), (653, 458), (653, 458), (653, 458), (653, 458), (653, 458), (653, 458), (653, 458), (653, 458), (653, 458), (653, 458), (653, 458), (653, 458), (653, 458), (653, 458), (653, 458), (653, 458), (653, 458), (653, 458), (653, 458), (653, 458), (653, 458), (653, 458), (653, 458), (653, 458), (653, 458), (653, 458), (653, 458), (653, 458), (653, 458), (653, 458), (653, 458), (653, 458), (653, 458), (653, 458), (653, 458), (654, 458), (664, 456), (675, 456), (712, 459), (735, 465), (763, 473)]",19.52357371015634,"[1, 9, 6, 8, 7, 5, 2, 4, 3]","(0, 0.25)",ENG009C,ENG,C,Chinese,Fri Oct 19 16:55:08 2018,Mouse
2,0,3,0,85,6,6,1,911,311,600,135,0,500,200,8000,"[(512, 384), (512, 384), (512, 384), (512, 384), (512, 384), (512, 384), (512, 384), (512, 384), (512, 384), (512, 384), (512, 384), (512, 384), (512, 384), (512, 384), (512, 384), (512, 384), (512, 384), (512, 384), (512, 384), (512, 384), (512, 384), (512, 384), (512, 384), (512, 384), (512, 384), (512, 384), (512, 384), (512, 384), (512, 384), (512, 384), (512, 384), (504, 377), (494, 368), (485, 360), (470, 349), (465, 346), (463, 345), (462, 344), (462, 344), (462, 344), (462, 344), (462, 344), (462, 344), (462, 344), (462, 344), (462, 344), (462, 344), (462, 344), (462, 344), (462, 344), (461, 344), (461, 345), (461, 346), (461, 346), (462, 348), (462, 349), (462, 349), (462, 350), (462, 352), (462, 354), (462, 354), (462, 355), (462, 361), (462, 363), (462, 366), (461, 371), (460, 383), (459, 390), (458, 398), (456, 405), (456, 419), (456, 423), (456, 425), (456, 427), (456, 428), (456, 429), (456, 429), (456, 429), (456, 429), (456, 429), (456, 431), (456, 434), (456, 441), (456, 448), (456, 456), (456, 466), (456, 493), (456, 509), (456, 529), (456, 551), (449, 610), (442, 640)]",105.29298768598578,"[1, 9, 6, 8, 7, 5, 2, 4, 3]","(0, 0.25)",ENG009C,ENG,C,Chinese,Fri Oct 19 16:55:08 2018,Mouse
2,0,3,0,86,8,8,1,370,130,240,134,0,500,200,8000,"[(512, 384), (512, 384), (512, 384), (512, 384), (512, 384), (512, 384), (512, 384), (512, 384), (512, 384), (512, 384), (512, 384), (512, 384), (512, 385), (512, 385), (511, 385), (511, 386), (510, 387), (509, 387), (507, 389), (506, 389), (506, 390), (505, 392), (502, 396), (500, 399), (498, 403), (495, 406), (491, 411), (487, 417), (481, 422), (475, 427), (459, 439), (449, 447), (435, 461), (417, 478), (365, 521), (336, 544), (311, 561)]",138.63295073948822,"[1, 9, 6, 8, 7, 5, 2, 4, 3]","(0, 0.25)",ENG009C,ENG,C,Chinese,Fri Oct 19 16:55:08 2018,Mouse
2,0,3,0,87,2,7,0,-1150,1010,140,133,0,500,200,8000,"[(512, 384), (512, 384), (512, 384), (512, 384), (512, 384), (512, 384), (512, 384), (512, 384), (512, 384), (512, 384), (512, 384), (512, 384), (512, 384), (512, 384), (512, 384), (512, 384), (512, 384), (512, 384), (512, 384), (512, 384), (512, 384), (512, 384), (512, 384), (512, 384), (512, 384), (512, 384), (512, 384), (512, 384), (512, 384), (512, 384), (512, 384), (512, 384), (512, 384), (512, 384), (512, 384), (512, 384), (512, 384), (512, 384), (512, 384), (512, 384), (512, 384), (512, 384), (512, 384), (512, 384), (512, 384), (512, 384), (512, 384), (512, 384), (512, 384), (512, 384), (512, 384), (512, 384), (512, 384), (512, 384), (512, 384), (512, 384), (512, 384), (512, 384), (512, 384), (512, 384), (512, 384), (512, 384), (512, 384), (512, 384), (512, 384), (512, 384), (512, 384), (512, 384), (512, 384), (512, 384), (512, 384), (512, 384), (512, 384), (512, 384), (512, 384), (512, 384), (512, 384), (512, 384), (512, 384), (512, 384), (512, 384), (512, 384), (512, 384), (512, 384), (512, 384), (512, 384), (512, 384), (512, 384), (512, 384), (512, 384), (512, 384), (512, 384), (512, 384), (512, 384), (512, 384), (512, 384), (512, 384), (512, 384), (512, 384), (512, 384), (511, 383), (499, 383), (488, 383), (475, 383), (461, 383), (433, 383), (414, 383), (402, 383), (383, 382), (335, 381), (310, 381), (295, 381), (278, 381), (264, 378), (252, 378)]",181.32197565953697,"[1, 9, 6, 8, 7, 5, 2, 4, 3]","(0, 0.25)",ENG009C,ENG,C,Chinese,Fri Oct 19 16:55:08 2018,Mouse
2,0,3,0,88,4,6,0,-2159,720,1439,134,0,500,200,8000,"[(512, 384), (512, 384), (512, 384), (512, 384), (512, 384), (512, 384), (512, 384), (512, 384), (512, 384), (512, 384), (512, 384), (512, 384), (512, 384), (512, 384), (512, 384), (512, 384), (512, 384), (512, 384), (512, 384), (512, 384), (512, 384), (512, 384), (512, 384), (512, 384), (512, 384), (512, 384), (512, 384), (512, 384), (512, 384), (512, 384), (512, 384), (512, 384), (512, 384), (512, 384), (512, 384), (512, 384), (512, 384), (512, 384), (512, 384), (512, 384), (512, 384), (512, 384), (512, 384), (512, 384), (512, 384), (512, 384), (512, 384), (512, 384), (512, 384), (512, 384), (512, 384), (512, 384), (512, 384), (512, 384), (512, 384), (512, 384), (512, 384), (512, 384), (512, 384), (512, 384), (512, 384), (512, 384), (512, 384), (512, 384), (512, 384), (512, 384), (512, 384), (512, 384), (512, 384), (512, 384), (512, 384), (509, 384), (506, 384), (501, 386), (491, 388), (485, 388), (479, 390), (477, 390), (476, 391), (475, 391), (475, 391), (475, 391), (475, 391), (475, 391), (475, 391), (475, 391), (475, 391), (475, 391), (475, 391), (475, 391), (475, 391), (475, 391), (475, 391), (475, 391), (475, 391), (475, 391), (475, 391), (475, 391), (475, 391), (475, 391), (475, 391), (475, 391), (475, 391), (475, 391), (475, 391), (475, 391), (475, 391), (475, 391), (475, 391), (475, 391), (475, 391), (475, 391), (475, 391), (475, 391), (475, 391), (475, 391), (475, 391), (475, 391), (475, 391), (475, 391), (475, 391), (475, 391), (475, 391), (475, 391), (475, 391), (475, 391), (475, 391), (475, 391), (475, 391), (475, 391), (475, 391), (475, 391), (475, 391), (475, 391), (475, 391), (475, 391), (475, 391), (475, 391), (475, 391), (475, 391), (475, 391), (475, 391), (475, 391), (475, 391), (475, 391), (475, 391), (475, 391), (475, 391), (475, 391), (475, 391), (475, 391), (475, 391), (475, 391), (475, 391), (475, 391), (475, 391), (475, 391), (475, 391), (475, 391), (475, 391), (475, 391), (475, 391), (475, 391), (475, 391), (475, 391), (475, 391), (475, 391), (475, 391), (475, 391), (475, 391), (475, 391), (475, 391), (475, 391), (475, 391), (475, 391), (475, 391), (475, 391), (475, 391), (475, 391), (475, 391), (475, 391), (475, 391), (475, 391), (475, 391), (475, 391), (475, 391), (475, 391), (475, 391), (475, 391), (475, 391), (475, 391), (475, 391), (475, 391), (475, 391), (475, 391), (475, 391), (475, 391), (475, 391), (475, 391), (475, 391), (475, 391), (475, 391), (475, 391), (477, 396), (480, 406), (489, 421), (498, 451), (502, 472), (505, 496), (509, 515), (517, 563), (518, 578), (518, 594), (518, 605), (518, 630), (518, 639)]",88.65211271980141,"[1, 9, 6, 8, 7, 5, 2, 4, 3]","(0, 0.25)",ENG009C,ENG,C,Chinese,Fri Oct 19 16:55:08 2018,Mouse
2,0,3,0,89,3,9,0,-550,290,260,135,0,500,200,8000,"[(512, 384), (512, 384), (512, 384), (512, 384), (512, 384), (512, 384), (512, 384), (512, 384), (512, 384), (512, 384), (512, 384), (512, 384), (512, 384), (512, 384), (512, 384), (512, 384), (512, 384), (512, 384), (512, 384), (512, 384), (512, 384), (512, 384), (512, 384), (512, 384), (512, 384), (512, 384), (512, 384), (512, 384), (513, 385), (513, 388), (512, 403), (512, 410), (512, 421), (514, 432), (528, 454), (536, 463), (544, 471), (550, 476), (561, 487), (564, 491), (565, 493), (567, 496), (570, 501), (570, 504), (571, 509), (571, 513), (575, 525), (579, 534), (581, 544), (585, 555), (597, 577), (601, 587), (604, 596), (607, 604), (615, 616)]",66.06042933600474,"[1, 9, 6, 8, 7, 5, 2, 4, 3]","(0, 0.25)",ENG009C,ENG,C,Chinese,Fri Oct 19 16:55:08 2018,Mouse
2,0,3,0,90,2,7,0,-1040,450,590,136,0,500,200,8000,"[(512, 384), (512, 384), (512, 384), (512, 384), (512, 384), (512, 384), (512, 384), (512, 384), (512, 384), (512, 384), (512, 384), (512, 384), (512, 384), (512, 384), (512, 384), (512, 384), (512, 384), (512, 384), (512, 384), (512, 384), (512, 384), (512, 384), (512, 384), (512, 384), (512, 384), (512, 384), (512, 384), (512, 384), (512, 384), (512, 384), (512, 384), (512, 384), (512, 384), (512, 384), (512, 384), (512, 384), (512, 384), (512, 384), (512, 384), (512, 384), (512, 384), (512, 384), (512, 384), (512, 384), (511, 383), (511, 383), (511, 383), (510, 383), (510, 383), (508, 383), (508, 383), (508, 383), (508, 383), (508, 383), (508, 383), (508, 383), (508, 383), (508, 383), (508, 383), (508, 383), (508, 383), (508, 383), (508, 383), (508, 383), (508, 383), (508, 383), (508, 383), (508, 383), (508, 383), (508, 383), (508, 383), (508, 383), (508, 383), (508, 383), (508, 383), (508, 383), (508, 383), (508, 383), (508, 383), (508, 383), (508, 383), (508, 383), (508, 383), (508, 383), (508, 383), (508, 383), (508, 383), (508, 383), (508, 383), (508, 383), (508, 383), (508, 383), (508, 383), (507, 383), (504, 383), (496, 385), (486, 387), (472, 391), (457, 392), (397, 398), (355, 398), (313, 400), (266, 400), (177, 400)]",177.2655630978355,"[1, 9, 6, 8, 7, 5, 2, 4, 3]","(0, 0.25)",ENG009C,ENG,C,Chinese,Fri Oct 19 16:55:08 2018,Mouse
2,0,3,0,91,1,1,1,841,731,110,137,0,500,200,8000,"[(512, 384), (512, 384), (512, 384), (512, 384), (512, 384), (512, 384), (512, 384), (512, 384), (512, 384), (512, 384), (512, 384), (512, 384), (512, 384), (512, 384), (512, 384), (512, 384), (512, 384), (512, 384), (512, 384), (512, 384), (512, 384), (512, 384), (512, 384), (512, 384), (512, 384), (512, 384), (512, 384), (512, 384), (512, 384), (512, 384), (512, 384), (512, 384), (512, 384), (512, 384), (512, 384), (512, 384), (512, 384), (512, 384), (512, 384), (512, 384), (512, 384), (512, 384), (512, 384), (512, 384), (512, 384), (512, 384), (512, 384), (512, 384), (512, 384), (512, 384), (512, 384), (512, 384), (512, 384), (512, 384), (512, 384), (512, 384), (512, 384), (512, 384), (512, 384), (512, 384), (512, 384), (512, 384), (512, 384), (512, 384), (512, 384), (512, 384), (512, 384), (512, 384), (512, 384), (512, 384), (512, 384), (512, 384), (512, 384), (514, 384), (517, 384), (520, 384), (537, 388), (553, 392), (570, 396), (595, 404), (645, 417), (672, 425), (706, 434), (736, 442), (801, 454)]",13.615645790115618,"[1, 9, 6, 8, 7, 5, 2, 4, 3]","(0, 0.25)",ENG009C,ENG,C,Chinese,Fri Oct 19 16:55:08 2018,Mouse
2,0,3,0,92,8,8,1,360,90,270,137,0,500,200,8000,"[(512, 384), (512, 384), (512, 384), (512, 384), (512, 384), (512, 384), (512, 384), (512, 384), (511, 384), (510, 384), (506, 386), (504, 389), (504, 389), (503, 390), (503, 392), (500, 397), (497, 400), (497, 401), (496, 403), (495, 406), (495, 406), (493, 407), (492, 409), (490, 410), (489, 412), (486, 413), (484, 415), (471, 425), (462, 432), (450, 440), (434, 451), (395, 477), (376, 489), (356, 504), (334, 517), (306, 538)]",143.21920924889906,"[1, 9, 6, 8, 7, 5, 2, 4, 3]","(0, 0.25)",ENG009C,ENG,C,Chinese,Fri Oct 19 16:55:08 2018,Mouse
2,0,3,0,93,4,7,0,-880,750,130,136,0,500,200,8000,"[(512, 384), (512, 384), (512, 384), (512, 384), (512, 384), (512, 384), (512, 384), (512, 384), (512, 384), (512, 384), (512, 384), (512, 384), (512, 384), (512, 384), (512, 384), (512, 384), (512, 384), (512, 384), (512, 384), (512, 384), (512, 384), (512, 384), (512, 384), (512, 384), (512, 384), (512, 384), (512, 384), (512, 384), (512, 384), (512, 384), (512, 384), (512, 384), (512, 384), (512, 384), (512, 384), (512, 384), (512, 384), (512, 384), (512, 384), (512, 384), (512, 384), (512, 384), (512, 384), (512, 384), (512, 384), (512, 384), (512, 384), (512, 384), (512, 384), (512, 384), (512, 384), (512, 384), (512, 384), (512, 384), (512, 384), (512, 384), (512, 384), (512, 384), (512, 384), (512, 384), (512, 384), (512, 384), (512, 384), (512, 384), (512, 384), (512, 384), (512, 384), (512, 384), (512, 384), (512, 384), (512, 384), (512, 384), (512, 384), (512, 384), (510, 384), (490, 386), (482, 386), (475, 388), (466, 389), (450, 389), (440, 389), (428, 389), (415, 389), (383, 389), (361, 389), (333, 389), (305, 389), (257, 389)]",178.87669728592456,"[1, 9, 6, 8, 7, 5, 2, 4, 3]","(0, 0.25)",ENG009C,ENG,C,Chinese,Fri Oct 19 16:55:08 2018,Mouse
2,0,3,0,94,9,6,0,-858,688,170,137,0,500,200,8000,"[(512, 384), (512, 384), (512, 384), (512, 384), (512, 384), (512, 384), (512, 384), (512, 384), (512, 384), (512, 384), (512, 384), (512, 384), (512, 384), (512, 384), (512, 384), (512, 384), (512, 384), (512, 384), (512, 384), (512, 384), (512, 384), (512, 384), (512, 384), (512, 384), (512, 384), (512, 384), (512, 384), (512, 384), (512, 384), (512, 384), (512, 384), (512, 384), (512, 384), (512, 384), (512, 384), (512, 384), (512, 384), (512, 384), (512, 384), (512, 384), (512, 384), (512, 384), (512, 384), (512, 384), (512, 384), (512, 384), (512, 384), (512, 384), (512, 384), (512, 384), (512, 384), (512, 384), (512, 384), (512, 384), (512, 384), (512, 384), (512, 384), (512, 384), (512, 384), (512, 384), (512, 384), (512, 384), (512, 384), (512, 384), (512, 384), (512, 384), (512, 384), (512, 384), (514, 384), (514, 384), (514, 384), (514, 387), (514, 389), (514, 391), (512, 395), (511, 403), (510, 410), (510, 421), (510, 433), (510, 462), (510, 484), (510, 509), (510, 532), (505, 589), (504, 621), (501, 644)]",92.42260745812376,"[1, 9, 6, 8, 7, 5, 2, 4, 3]","(0, 0.25)",ENG009C,ENG,C,Chinese,Fri Oct 19 16:55:08 2018,Mouse
2,0,3,0,95,2,2,1,518,418,100,138,0,500,200,8000,"[(512, 384), (512, 384), (512, 384), (512, 384), (512, 384), (512, 384), (512, 384), (512, 384), (512, 384), (512, 384), (512, 384), (512, 384), (512, 384), (512, 384), (512, 384), (512, 384), (512, 384), (512, 384), (512, 384), (512, 384), (512, 384), (512, 384), (512, 384), (512, 384), (512, 384), (512, 384), (512, 384), (512, 384), (512, 384), (512, 384), (512, 384), (512, 384), (512, 384), (512, 384), (512, 384), (512, 384), (512, 384), (512, 384), (512, 384), (512, 384), (512, 384), (512, 383), (513, 377), (514, 366), (516, 352), (521, 302), (521, 266), (521, 224), (521, 199), (516, 149), (515, 135), (511, 120)]",269.7829715701199,"[1, 9, 6, 8, 7, 5, 2, 4, 3]","(0, 0.25)",ENG009C,ENG,C,Chinese,Fri Oct 19 16:55:08 2018,Mouse
2,0,3,0,96,8,8,1,311,71,240,138,0,500,200,8000,"[(512, 384), (512, 384), (512, 384), (512, 384), (512, 384), (512, 384), (512, 384), (512, 387), (512, 391), (507, 395), (497, 407), (493, 409), (488, 414), (486, 417), (482, 420), (481, 423), (480, 423), (478, 426), (475, 429), (474, 431), (472, 434), (470, 435), (461, 442), (458, 445), (451, 452), (443, 460), (424, 477), (408, 487), (393, 501), (375, 516), (336, 550), (323, 563)]",136.5565674713399,"[1, 9, 6, 8, 7, 5, 2, 4, 3]","(0, 0.25)",ENG009C,ENG,C,Chinese,Fri Oct 19 16:55:08 2018,Mouse
2,0,3,0,97,9,9,1,520,400,120,137,0,500,200,8000,"[(512, 384), (512, 384), (512, 384), (512, 384), (512, 384), (512, 384), (512, 384), (512, 384), (512, 384), (512, 384), (512, 384), (512, 384), (512, 384), (512, 384), (512, 384), (512, 384), (512, 384), (512, 384), (512, 384), (512, 384), (512, 384), (512, 384), (512, 384), (512, 384), (512, 384), (512, 384), (512, 384), (512, 384), (512, 384), (512, 384), (512, 384), (512, 384), (512, 384), (512, 384), (512, 384), (512, 384), (512, 384), (512, 384), (512, 384), (512, 385), (513, 389), (515, 393), (518, 405), (524, 416), (529, 429), (536, 447), (554, 491), (562, 510), (572, 535), (585, 562), (609, 601), (617, 616)]",65.6491484517633,"[1, 9, 6, 8, 7, 5, 2, 4, 3]","(0, 0.25)",ENG009C,ENG,C,Chinese,Fri Oct 19 16:55:08 2018,Mouse
