NativeLangNumber,LanuageNumber,SessionNumber,Block,TrialNum,ConditionNumber,Response,Accuracy,RT,MovementOnsetTime,TimeInMotion,SignalContrast,SignalContrastNumber,StimDisplayTime,MaskTime,MaxResponseTime,MousePositionXY,MouseAngle,WheelOrder,NoiseMuSigma,ParticipantID,LanuageTested,SessionTested,NativeLanuage,Date,ResponseDevice
2,0,3,0,1,8,8,1,1021,821,200,153,0,500,200,8000,"[(512, 384), (512, 384), (512, 384), (512, 384), (512, 384), (512, 384), (512, 384), (512, 384), (512, 384), (512, 384), (512, 384), (512, 384), (512, 384), (512, 384), (512, 384), (512, 384), (512, 384), (512, 384), (512, 384), (512, 384), (512, 384), (512, 384), (512, 384), (512, 384), (512, 384), (512, 384), (512, 384), (512, 384), (512, 384), (512, 384), (512, 384), (512, 384), (512, 384), (512, 384), (512, 384), (512, 384), (512, 384), (512, 384), (512, 384), (512, 384), (512, 384), (512, 384), (512, 384), (512, 384), (512, 384), (512, 384), (512, 384), (512, 384), (512, 384), (512, 384), (512, 384), (512, 384), (512, 384), (512, 384), (512, 384), (512, 384), (512, 384), (512, 384), (512, 384), (512, 384), (512, 384), (512, 384), (512, 384), (512, 384), (512, 384), (512, 384), (512, 384), (512, 384), (512, 384), (512, 384), (512, 384), (512, 384), (512, 384), (512, 384), (512, 384), (512, 384), (512, 384), (512, 384), (512, 384), (512, 384), (512, 384), (512, 384), (512, 385), (512, 385), (512, 385), (512, 385), (512, 385), (512, 385), (512, 385), (512, 385), (512, 385), (512, 385), (512, 386), (506, 394), (480, 418), (462, 435), (442, 448), (422, 466), (387, 490), (368, 504), (353, 514), (334, 526), (293, 550)]",142.83820498391938,"[7, 2, 3, 8, 6, 4, 1, 5, 9]","(0, 0.25)",ENG006C,ENG,C,Chinese,Tue Oct  9 18:31:01 2018,Mouse
2,0,3,0,2,8,8,1,333,243,90,153,0,500,200,8000,"[(512, 384), (512, 384), (512, 384), (512, 384), (512, 384), (512, 384), (512, 384), (512, 384), (512, 384), (512, 384), (512, 384), (512, 384), (512, 384), (512, 384), (512, 384), (512, 384), (512, 384), (512, 384), (512, 384), (512, 384), (512, 384), (512, 384), (512, 384), (512, 384), (506, 387), (497, 395), (485, 404), (466, 416), (431, 437), (409, 453), (386, 470), (363, 488), (317, 522), (292, 539)]",144.83356396420712,"[7, 2, 3, 8, 6, 4, 1, 5, 9]","(0, 0.25)",ENG006C,ENG,C,Chinese,Tue Oct  9 18:31:01 2018,Mouse
2,0,3,0,3,7,7,1,561,92,469,152,0,500,200,8000,"[(512, 384), (512, 384), (512, 384), (512, 384), (512, 384), (512, 384), (512, 384), (512, 384), (512, 384), (513, 384), (514, 383), (514, 382), (514, 382), (514, 382), (514, 382), (514, 382), (515, 381), (515, 381), (515, 381), (515, 381), (515, 381), (515, 381), (515, 381), (515, 381), (515, 381), (515, 381), (515, 381), (515, 381), (515, 381), (515, 381), (515, 381), (515, 381), (515, 381), (515, 381), (515, 381), (515, 381), (515, 381), (515, 381), (515, 381), (515, 381), (515, 381), (521, 384), (531, 385), (537, 385), (540, 385), (544, 385), (550, 387), (566, 390), (573, 393), (584, 395), (595, 400), (618, 410), (635, 418), (653, 426), (674, 435), (726, 456), (749, 465)]",18.86899945506142,"[7, 2, 3, 8, 6, 4, 1, 5, 9]","(0, 0.25)",ENG006C,ENG,C,Chinese,Tue Oct  9 18:31:01 2018,Mouse
2,0,3,0,4,4,4,1,492,392,100,151,0,500,200,8000,"[(512, 384), (512, 384), (512, 384), (512, 384), (512, 384), (512, 384), (512, 384), (512, 384), (512, 384), (512, 384), (512, 384), (512, 384), (512, 384), (512, 384), (512, 384), (512, 384), (512, 384), (512, 384), (512, 384), (512, 384), (512, 384), (512, 384), (512, 384), (512, 384), (512, 384), (512, 384), (512, 384), (512, 384), (512, 384), (512, 384), (512, 384), (512, 384), (512, 384), (512, 384), (512, 384), (512, 384), (512, 384), (512, 384), (512, 384), (511, 382), (506, 375), (500, 364), (491, 349), (460, 309), (444, 289), (423, 260), (406, 242), (377, 207), (365, 194), (351, 179)]",231.85511898010054,"[7, 2, 3, 8, 6, 4, 1, 5, 9]","(0, 0.25)",ENG006C,ENG,C,Chinese,Tue Oct  9 18:31:01 2018,Mouse
2,0,3,0,5,8,8,1,454,204,250,150,0,500,200,8000,"[(512, 384), (512, 384), (512, 384), (512, 384), (512, 384), (512, 384), (512, 384), (512, 384), (512, 384), (512, 384), (512, 384), (512, 384), (512, 384), (512, 384), (512, 384), (512, 384), (512, 384), (512, 384), (512, 384), (512, 384), (512, 385), (513, 387), (513, 387), (514, 389), (514, 389), (516, 391), (516, 392), (516, 392), (516, 392), (516, 394), (516, 397), (511, 404), (501, 413), (478, 432), (467, 442), (454, 454), (443, 463), (417, 484), (406, 492), (395, 501), (384, 509), (359, 526), (350, 531), (341, 537), (331, 541), (322, 548)]",139.2006222046354,"[7, 2, 3, 8, 6, 4, 1, 5, 9]","(0, 0.25)",ENG006C,ENG,C,Chinese,Tue Oct  9 18:31:01 2018,Mouse
2,0,3,0,6,2,2,1,1102,232,870,149,0,500,200,8000,"[(512, 384), (512, 384), (512, 384), (512, 384), (512, 384), (512, 384), (512, 384), (512, 384), (512, 384), (512, 384), (512, 384), (512, 384), (512, 384), (512, 384), (512, 384), (512, 384), (512, 384), (512, 384), (512, 384), (512, 384), (512, 384), (512, 384), (512, 384), (511, 384), (511, 384), (511, 384), (511, 384), (511, 384), (511, 384), (511, 384), (511, 384), (511, 384), (511, 384), (511, 384), (512, 383), (512, 383), (512, 383), (512, 383), (512, 383), (512, 383), (512, 383), (512, 383), (512, 383), (512, 383), (512, 383), (512, 383), (512, 383), (512, 383), (512, 383), (512, 383), (512, 383), (510, 382), (506, 382), (506, 382), (505, 382), (505, 382), (505, 382), (505, 382), (505, 382), (505, 382), (505, 382), (505, 382), (505, 382), (505, 382), (505, 382), (505, 382), (505, 382), (505, 382), (505, 381), (505, 381), (505, 381), (505, 381), (509, 382), (510, 383), (510, 385), (512, 389), (512, 395), (512, 397), (513, 401), (514, 406), (517, 415), (519, 423), (522, 430), (524, 438), (527, 448), (529, 453), (531, 455), (531, 456), (531, 457), (531, 457), (531, 457), (531, 457), (531, 457), (531, 457), (531, 457), (531, 457), (532, 457), (535, 457), (535, 456), (535, 456), (538, 456), (541, 456), (548, 456), (561, 462), (596, 492), (615, 511), (627, 526), (639, 540), (658, 566), (665, 579), (672, 590)]",52.16354746583237,"[7, 2, 3, 8, 6, 4, 1, 5, 9]","(0, 0.25)",ENG006C,ENG,C,Chinese,Tue Oct  9 18:31:01 2018,Mouse
2,0,3,0,7,2,2,1,271,21,250,148,0,500,200,8000,"[(512, 384), (512, 384), (511, 384), (511, 384), (511, 384), (513, 386), (520, 394), (524, 400), (528, 405), (530, 408), (536, 418), (540, 424), (544, 432), (548, 439), (554, 453), (556, 458), (559, 463), (562, 469), (570, 483), (574, 490), (578, 500), (580, 509), (591, 533), (597, 547), (604, 560), (610, 576), (620, 599), (625, 611)]",63.53599947566719,"[7, 2, 3, 8, 6, 4, 1, 5, 9]","(0, 0.25)",ENG006C,ENG,C,Chinese,Tue Oct  9 18:31:01 2018,Mouse
2,0,3,0,8,9,9,1,1173,573,600,147,0,500,200,8000,"[(512, 384), (512, 384), (512, 384), (512, 384), (512, 384), (512, 384), (512, 384), (512, 384), (512, 384), (512, 384), (512, 384), (512, 384), (512, 384), (512, 384), (512, 384), (512, 384), (512, 384), (512, 384), (512, 384), (512, 384), (512, 384), (512, 384), (512, 384), (512, 384), (512, 384), (512, 384), (512, 384), (512, 384), (512, 384), (512, 384), (512, 384), (512, 384), (512, 384), (512, 384), (512, 384), (512, 384), (512, 384), (512, 384), (512, 384), (512, 384), (512, 384), (512, 384), (512, 384), (512, 384), (512, 384), (512, 384), (512, 384), (512, 384), (512, 384), (512, 384), (512, 384), (512, 384), (512, 384), (512, 384), (512, 384), (512, 384), (512, 384), (514, 383), (515, 382), (515, 382), (515, 382), (515, 382), (515, 382), (515, 382), (515, 382), (515, 382), (515, 382), (515, 382), (515, 382), (515, 382), (515, 382), (515, 382), (515, 382), (515, 382), (515, 382), (515, 382), (515, 382), (515, 382), (515, 382), (515, 382), (515, 382), (515, 382), (515, 382), (515, 382), (515, 382), (515, 382), (515, 382), (515, 382), (515, 382), (515, 382), (515, 382), (515, 382), (515, 382), (515, 382), (515, 382), (515, 382), (515, 382), (515, 382), (515, 382), (515, 382), (515, 382), (515, 382), (515, 382), (515, 382), (515, 382), (516, 382), (519, 379), (538, 371), (546, 368), (554, 363), (564, 359), (591, 350), (613, 344), (636, 336), (661, 330), (709, 315), (732, 305), (761, 291)]",339.51964268819074,"[7, 2, 3, 8, 6, 4, 1, 5, 9]","(0, 0.25)",ENG006C,ENG,C,Chinese,Tue Oct  9 18:31:01 2018,Mouse
2,0,3,0,9,2,2,1,541,181,360,146,0,500,200,8000,"[(512, 384), (512, 384), (512, 384), (512, 384), (512, 384), (512, 384), (512, 384), (512, 384), (512, 384), (512, 384), (512, 384), (512, 384), (512, 384), (512, 384), (512, 384), (512, 384), (512, 384), (512, 384), (517, 389), (517, 389), (517, 388), (517, 388), (517, 388), (517, 388), (517, 388), (517, 388), (517, 388), (517, 388), (517, 388), (517, 391), (522, 397), (524, 401), (525, 404), (529, 407), (532, 411), (532, 411), (533, 413), (534, 414), (536, 418), (537, 419), (537, 419), (537, 419), (539, 422), (540, 425), (543, 430), (546, 436), (561, 459), (568, 474), (577, 492), (589, 514), (603, 552), (610, 569), (618, 585), (627, 601), (640, 622)]",61.72796392056729,"[7, 2, 3, 8, 6, 4, 1, 5, 9]","(0, 0.25)",ENG006C,ENG,C,Chinese,Tue Oct  9 18:31:01 2018,Mouse
2,0,3,0,10,9,9,1,582,412,170,145,0,500,200,8000,"[(512, 384), (512, 384), (512, 384), (512, 384), (512, 384), (512, 384), (512, 384), (512, 384), (512, 384), (512, 384), (512, 384), (512, 384), (512, 384), (512, 384), (512, 384), (512, 384), (512, 384), (512, 384), (512, 384), (512, 384), (512, 384), (512, 384), (512, 384), (512, 384), (512, 384), (512, 384), (512, 384), (512, 384), (512, 384), (512, 384), (512, 384), (512, 384), (512, 384), (512, 384), (512, 384), (512, 384), (512, 384), (512, 384), (512, 384), (512, 384), (512, 384), (514, 384), (519, 384), (524, 384), (530, 384), (533, 384), (537, 383), (540, 382), (552, 378), (557, 377), (569, 372), (579, 368), (597, 359), (610, 355), (628, 349), (651, 342), (707, 332), (742, 327), (774, 324)]",347.10124889583557,"[7, 2, 3, 8, 6, 4, 1, 5, 9]","(0, 0.25)",ENG006C,ENG,C,Chinese,Tue Oct  9 18:31:01 2018,Mouse
2,0,3,0,11,3,3,1,982,832,150,144,0,500,200,8000,"[(512, 384), (512, 384), (512, 384), (512, 384), (512, 384), (512, 384), (512, 384), (512, 384), (512, 384), (512, 384), (512, 384), (512, 384), (512, 384), (512, 384), (512, 384), (512, 384), (512, 384), (512, 384), (512, 384), (512, 384), (512, 384), (512, 384), (512, 384), (512, 384), (512, 384), (512, 384), (512, 384), (512, 384), (512, 384), (512, 384), (512, 384), (512, 384), (512, 384), (512, 384), (512, 384), (512, 384), (512, 384), (512, 384), (512, 384), (512, 384), (512, 384), (512, 384), (512, 384), (512, 384), (512, 384), (512, 384), (512, 384), (512, 384), (512, 384), (512, 384), (512, 384), (512, 384), (512, 384), (512, 384), (512, 384), (512, 384), (512, 384), (512, 384), (512, 384), (512, 384), (512, 384), (512, 384), (512, 384), (512, 384), (512, 384), (512, 384), (512, 384), (512, 384), (512, 384), (512, 384), (512, 384), (512, 384), (512, 384), (512, 384), (512, 384), (512, 384), (512, 384), (512, 384), (512, 384), (512, 384), (512, 384), (512, 384), (512, 384), (512, 385), (512, 389), (510, 395), (500, 416), (492, 431), (486, 448), (480, 461), (464, 497), (457, 515), (455, 530), (450, 545), (449, 571), (448, 584), (444, 600), (444, 612), (442, 638)]",105.40770364064203,"[7, 2, 3, 8, 6, 4, 1, 5, 9]","(0, 0.25)",ENG006C,ENG,C,Chinese,Tue Oct  9 18:31:01 2018,Mouse
2,0,3,0,12,7,7,1,652,512,140,143,0,500,200,8000,"[(512, 384), (512, 384), (512, 384), (512, 384), (512, 384), (512, 384), (512, 384), (512, 384), (512, 384), (512, 384), (512, 384), (512, 384), (512, 384), (512, 384), (512, 384), (512, 384), (512, 384), (512, 384), (512, 384), (512, 384), (512, 384), (512, 384), (512, 384), (512, 384), (512, 384), (512, 384), (512, 384), (512, 384), (512, 384), (512, 384), (512, 384), (512, 384), (512, 384), (512, 384), (512, 384), (512, 384), (512, 384), (512, 384), (512, 384), (512, 384), (512, 384), (512, 384), (512, 384), (512, 384), (512, 384), (512, 384), (512, 384), (512, 384), (512, 384), (512, 384), (512, 384), (513, 384), (522, 381), (522, 381), (522, 381), (523, 381), (531, 381), (540, 381), (558, 382), (573, 384), (624, 399), (652, 407), (676, 412), (702, 419), (753, 437), (773, 444)]",12.946509515636931,"[7, 2, 3, 8, 6, 4, 1, 5, 9]","(0, 0.25)",ENG006C,ENG,C,Chinese,Tue Oct  9 18:31:01 2018,Mouse
2,0,3,0,13,3,3,1,932,512,420,142,0,500,200,8000,"[(512, 384), (512, 384), (512, 384), (512, 384), (512, 384), (512, 384), (512, 384), (512, 384), (512, 384), (512, 384), (512, 384), (512, 384), (512, 384), (512, 384), (512, 384), (512, 384), (512, 384), (512, 384), (512, 384), (512, 384), (512, 384), (512, 384), (512, 384), (512, 384), (512, 384), (512, 384), (512, 384), (512, 384), (512, 384), (512, 384), (512, 384), (512, 384), (512, 384), (512, 384), (512, 384), (512, 384), (512, 384), (512, 384), (512, 384), (512, 384), (512, 384), (512, 384), (512, 384), (512, 384), (512, 384), (512, 384), (512, 384), (512, 384), (512, 384), (512, 384), (512, 384), (513, 384), (513, 384), (513, 384), (513, 384), (513, 384), (513, 384), (513, 384), (513, 384), (513, 384), (513, 384), (513, 384), (513, 384), (513, 384), (513, 384), (513, 385), (515, 387), (515, 388), (515, 390), (515, 390), (515, 390), (515, 390), (515, 390), (515, 390), (515, 390), (515, 398), (515, 405), (515, 415), (515, 428), (512, 453), (509, 465), (508, 480), (504, 496), (496, 526), (490, 537), (484, 547), (479, 558), (468, 576), (462, 585), (456, 595), (450, 603), (441, 614), (437, 620), (435, 623)]",107.85768090555759,"[7, 2, 3, 8, 6, 4, 1, 5, 9]","(0, 0.25)",ENG006C,ENG,C,Chinese,Tue Oct  9 18:31:01 2018,Mouse
2,0,3,0,14,7,7,1,683,503,180,141,0,500,200,8000,"[(512, 384), (512, 384), (512, 384), (512, 384), (512, 384), (512, 384), (512, 384), (512, 384), (512, 384), (512, 384), (512, 384), (512, 384), (512, 384), (512, 384), (512, 384), (512, 384), (512, 384), (512, 384), (512, 384), (512, 384), (512, 384), (512, 384), (512, 384), (512, 384), (512, 384), (512, 384), (512, 384), (512, 384), (512, 384), (512, 384), (512, 384), (512, 384), (512, 384), (512, 384), (512, 384), (512, 384), (512, 384), (512, 384), (512, 384), (512, 384), (512, 384), (512, 384), (512, 384), (512, 384), (512, 384), (512, 384), (512, 384), (512, 384), (512, 384), (512, 384), (515, 382), (517, 382), (517, 382), (517, 382), (517, 382), (518, 382), (521, 382), (529, 382), (550, 382), (564, 382), (580, 384), (602, 390), (644, 403), (669, 409), (685, 417), (705, 425), (738, 439), (751, 445), (761, 449)]",14.63024063551782,"[7, 2, 3, 8, 6, 4, 1, 5, 9]","(0, 0.25)",ENG006C,ENG,C,Chinese,Tue Oct  9 18:31:01 2018,Mouse
2,0,3,0,15,5,5,1,661,541,120,140,0,500,200,8000,"[(512, 384), (512, 384), (512, 384), (512, 384), (512, 384), (512, 384), (512, 384), (512, 384), (512, 384), (512, 384), (512, 384), (512, 384), (512, 384), (512, 384), (512, 384), (512, 384), (512, 384), (512, 384), (512, 384), (512, 384), (512, 384), (512, 384), (512, 384), (512, 384), (512, 384), (512, 384), (512, 384), (512, 384), (512, 384), (512, 384), (512, 384), (512, 384), (512, 384), (512, 384), (512, 384), (512, 384), (512, 384), (512, 384), (512, 384), (512, 384), (512, 384), (512, 384), (512, 384), (512, 384), (512, 384), (512, 384), (512, 384), (512, 384), (512, 384), (512, 384), (512, 384), (512, 384), (512, 384), (512, 384), (521, 376), (527, 370), (534, 360), (541, 347), (558, 317), (572, 298), (581, 281), (591, 265), (610, 232), (623, 215), (635, 200), (649, 185), (668, 157)]",304.49780949125005,"[7, 2, 3, 8, 6, 4, 1, 5, 9]","(0, 0.25)",ENG006C,ENG,C,Chinese,Tue Oct  9 18:31:01 2018,Mouse
2,0,3,0,16,5,5,1,292,142,150,139,0,500,200,8000,"[(512, 384), (512, 384), (512, 384), (512, 384), (512, 384), (512, 384), (512, 384), (512, 384), (512, 384), (512, 384), (512, 384), (512, 384), (512, 384), (512, 384), (514, 384), (517, 384), (522, 379), (523, 376), (526, 372), (529, 367), (532, 353), (536, 343), (537, 336), (543, 324), (554, 293), (562, 270), (571, 250), (585, 228), (614, 188), (631, 163)]",298.3007557660064,"[7, 2, 3, 8, 6, 4, 1, 5, 9]","(0, 0.25)",ENG006C,ENG,C,Chinese,Tue Oct  9 18:31:01 2018,Mouse
2,0,3,0,17,6,5,0,-162,12,150,138,0,500,200,8000,"[(512, 384), (513, 382), (514, 378), (520, 365), (522, 359), (525, 353), (528, 343), (535, 325), (540, 314), (546, 299), (551, 286), (560, 254), (566, 234), (574, 211), (581, 188), (598, 150), (603, 138)]",290.3003763252273,"[7, 2, 3, 8, 6, 4, 1, 5, 9]","(0, 0.25)",ENG006C,ENG,C,Chinese,Tue Oct  9 18:31:01 2018,Mouse
2,0,3,0,18,2,2,1,862,472,390,139,0,500,200,8000,"[(512, 384), (512, 384), (512, 384), (512, 384), (512, 384), (512, 384), (512, 384), (512, 384), (512, 384), (512, 384), (512, 384), (512, 384), (512, 384), (512, 384), (512, 384), (512, 384), (512, 384), (512, 384), (512, 384), (512, 384), (512, 384), (512, 384), (512, 384), (512, 384), (512, 384), (512, 384), (512, 384), (512, 384), (512, 384), (512, 384), (512, 384), (512, 384), (512, 384), (512, 384), (512, 384), (512, 384), (512, 384), (512, 384), (512, 384), (512, 384), (512, 384), (512, 384), (512, 384), (512, 384), (512, 384), (512, 384), (512, 384), (514, 385), (514, 385), (515, 386), (515, 386), (515, 386), (515, 386), (516, 386), (516, 386), (516, 386), (516, 386), (516, 386), (516, 386), (516, 386), (516, 386), (516, 386), (516, 386), (516, 386), (516, 386), (516, 386), (516, 386), (516, 386), (516, 386), (516, 386), (516, 386), (516, 386), (516, 386), (516, 386), (516, 386), (518, 404), (519, 418), (522, 431), (526, 443), (535, 469), (542, 484), (553, 505), (565, 527), (590, 568), (600, 587), (607, 600), (616, 616)]",65.85445803957835,"[7, 2, 3, 8, 6, 4, 1, 5, 9]","(0, 0.25)",ENG006C,ENG,C,Chinese,Tue Oct  9 18:31:01 2018,Mouse
2,0,3,0,19,6,8,0,-1012,662,350,139,0,500,200,8000,"[(512, 384), (512, 384), (512, 384), (512, 384), (512, 384), (512, 384), (512, 384), (512, 384), (512, 384), (512, 384), (512, 384), (512, 384), (512, 384), (512, 384), (512, 384), (512, 384), (512, 384), (512, 384), (512, 384), (512, 384), (512, 384), (512, 384), (512, 384), (512, 384), (512, 384), (512, 384), (512, 384), (512, 384), (512, 384), (512, 384), (512, 384), (512, 384), (512, 384), (512, 384), (512, 384), (512, 384), (512, 384), (512, 384), (512, 384), (512, 384), (512, 384), (512, 384), (512, 384), (512, 384), (512, 384), (512, 384), (512, 384), (512, 384), (512, 384), (512, 384), (512, 384), (512, 384), (512, 384), (512, 384), (512, 384), (512, 384), (512, 384), (512, 384), (512, 384), (512, 384), (512, 384), (512, 384), (512, 384), (512, 384), (512, 384), (512, 384), (513, 384), (513, 384), (513, 385), (513, 385), (513, 385), (513, 385), (513, 385), (513, 385), (513, 385), (513, 385), (513, 385), (513, 385), (513, 385), (513, 385), (513, 385), (513, 385), (513, 386), (512, 389), (510, 390), (504, 397), (497, 402), (489, 407), (485, 411), (462, 427), (452, 434), (442, 441), (433, 449), (410, 463), (396, 473), (384, 483), (370, 492), (344, 510), (333, 518), (324, 525), (314, 532), (299, 540)]",143.78116273438548,"[7, 2, 3, 8, 6, 4, 1, 5, 9]","(0, 0.25)",ENG006C,ENG,C,Chinese,Tue Oct  9 18:31:01 2018,Mouse
2,0,3,0,20,1,1,1,915,165,750,140,0,500,200,8000,"[(512, 384), (512, 384), (512, 384), (512, 384), (512, 384), (512, 384), (512, 384), (512, 384), (512, 384), (512, 384), (512, 384), (512, 384), (512, 384), (512, 384), (512, 384), (512, 384), (513, 384), (518, 390), (521, 390), (522, 390), (522, 390), (522, 390), (522, 390), (522, 390), (522, 390), (523, 390), (525, 390), (527, 389), (530, 389), (531, 389), (533, 389), (536, 388), (536, 388), (538, 388), (539, 388), (539, 388), (539, 388), (539, 388), (539, 388), (539, 388), (539, 388), (539, 388), (539, 388), (539, 388), (539, 388), (539, 388), (539, 388), (540, 387), (540, 387), (540, 386), (540, 384), (539, 382), (536, 378), (535, 377), (533, 375), (529, 370), (528, 368), (526, 364), (524, 361), (518, 346), (515, 339), (513, 329), (509, 319), (503, 297), (497, 286), (495, 279), (492, 273), (490, 267), (489, 266), (488, 264), (488, 264), (487, 262), (487, 262), (487, 262), (487, 262), (487, 262), (487, 262), (487, 262), (487, 262), (487, 262), (487, 262), (487, 262), (487, 262), (487, 261), (486, 254), (483, 247), (481, 237), (478, 212), (475, 195), (473, 177), (470, 158), (466, 126)]",259.8907015075048,"[7, 2, 3, 8, 6, 4, 1, 5, 9]","(0, 0.25)",ENG006C,ENG,C,Chinese,Tue Oct  9 18:31:01 2018,Mouse
2,0,3,0,21,2,2,1,809,569,240,140,0,500,200,8000,"[(512, 384), (512, 384), (512, 384), (512, 384), (512, 384), (512, 384), (512, 384), (512, 384), (512, 384), (512, 384), (512, 384), (512, 384), (512, 384), (512, 384), (512, 384), (512, 384), (512, 384), (512, 384), (512, 384), (512, 384), (512, 384), (512, 384), (512, 384), (512, 384), (512, 384), (512, 384), (512, 384), (512, 384), (512, 384), (512, 384), (512, 384), (512, 384), (512, 384), (512, 384), (512, 384), (512, 384), (512, 384), (512, 384), (512, 384), (512, 384), (512, 384), (512, 384), (512, 384), (512, 384), (512, 384), (512, 384), (512, 384), (512, 384), (512, 384), (512, 384), (512, 384), (512, 384), (512, 384), (512, 384), (512, 384), (512, 384), (513, 384), (513, 385), (514, 386), (515, 388), (515, 388), (515, 388), (516, 391), (521, 407), (524, 417), (525, 426), (526, 436), (531, 459), (537, 472), (543, 485), (549, 499), (567, 529), (573, 540), (577, 551), (583, 561), (589, 578), (591, 584), (595, 593), (596, 600), (599, 614), (599, 619)]",69.68480437326794,"[7, 2, 3, 8, 6, 4, 1, 5, 9]","(0, 0.25)",ENG006C,ENG,C,Chinese,Tue Oct  9 18:31:01 2018,Mouse
2,0,3,0,22,1,1,1,462,202,260,139,0,500,200,8000,"[(512, 384), (512, 384), (512, 384), (512, 384), (512, 384), (512, 384), (512, 384), (512, 384), (512, 384), (512, 384), (512, 384), (512, 384), (512, 384), (512, 384), (512, 384), (512, 384), (512, 384), (512, 384), (512, 384), (512, 384), (513, 386), (514, 387), (517, 387), (517, 387), (517, 387), (518, 388), (518, 388), (518, 388), (518, 388), (518, 385), (518, 379), (518, 358), (515, 344), (509, 327), (507, 311), (494, 272), (489, 255), (487, 241), (482, 227), (477, 203), (477, 192), (477, 183), (477, 176), (477, 157), (477, 151), (480, 141), (481, 134)]",262.93140488299684,"[7, 2, 3, 8, 6, 4, 1, 5, 9]","(0, 0.25)",ENG006C,ENG,C,Chinese,Tue Oct  9 18:31:01 2018,Mouse
2,0,3,0,23,9,3,0,-882,432,450,138,0,500,200,8000,"[(512, 384), (512, 384), (512, 384), (512, 384), (512, 384), (512, 384), (512, 384), (512, 384), (512, 384), (512, 384), (512, 384), (512, 384), (512, 384), (512, 384), (512, 384), (512, 384), (512, 384), (512, 384), (512, 384), (512, 384), (512, 384), (512, 384), (512, 384), (512, 384), (512, 384), (512, 384), (512, 384), (512, 384), (512, 384), (512, 384), (512, 384), (512, 384), (512, 384), (512, 384), (512, 384), (512, 384), (512, 384), (512, 384), (512, 384), (512, 384), (512, 384), (512, 384), (512, 384), (506, 381), (503, 378), (503, 378), (503, 378), (503, 378), (503, 378), (503, 378), (503, 378), (503, 378), (503, 378), (503, 378), (503, 378), (503, 378), (503, 378), (503, 378), (503, 378), (503, 378), (503, 378), (503, 378), (503, 378), (503, 378), (503, 378), (503, 378), (503, 378), (503, 378), (503, 378), (503, 378), (503, 378), (503, 378), (503, 378), (503, 383), (503, 392), (501, 402), (499, 409), (494, 430), (490, 440), (488, 453), (487, 467), (487, 501), (487, 523), (487, 546), (484, 567), (482, 599), (481, 613), (476, 627), (471, 641)]",99.06418990812514,"[7, 2, 3, 8, 6, 4, 1, 5, 9]","(0, 0.25)",ENG006C,ENG,C,Chinese,Tue Oct  9 18:31:01 2018,Mouse
2,0,3,0,24,2,2,1,1052,42,1010,139,0,500,200,8000,"[(512, 384), (512, 384), (512, 384), (512, 384), (512, 383), (512, 383), (512, 383), (512, 383), (512, 383), (512, 383), (512, 383), (512, 383), (512, 383), (512, 383), (512, 383), (512, 383), (512, 383), (512, 383), (512, 383), (512, 383), (512, 383), (512, 383), (512, 383), (512, 383), (512, 383), (512, 383), (512, 383), (512, 383), (512, 383), (512, 383), (512, 383), (512, 383), (512, 383), (512, 383), (512, 383), (512, 383), (512, 383), (512, 383), (512, 383), (512, 383), (512, 383), (512, 383), (512, 383), (512, 383), (512, 383), (512, 383), (512, 383), (512, 384), (511, 386), (511, 397), (511, 406), (511, 419), (512, 436), (518, 463), (523, 480), (528, 494), (533, 511), (543, 534), (551, 545), (559, 555), (566, 566), (579, 578), (585, 584), (592, 588), (598, 592), (608, 598), (610, 599), (614, 602), (614, 602), (614, 602), (614, 602), (614, 602), (614, 602), (614, 602), (614, 602), (614, 602), (614, 602), (614, 602), (614, 602), (614, 602), (614, 602), (610, 599), (608, 596), (605, 592), (603, 588), (594, 577), (590, 572), (588, 568), (584, 566), (576, 558), (571, 555), (564, 549), (559, 544), (552, 537), (552, 537), (552, 537), (552, 537), (552, 537), (552, 537), (553, 546), (565, 560), (582, 582), (589, 592), (594, 598), (598, 608), (612, 626)]",67.54845354399613,"[7, 2, 3, 8, 6, 4, 1, 5, 9]","(0, 0.25)",ENG006C,ENG,C,Chinese,Tue Oct  9 18:31:01 2018,Mouse
2,0,3,0,25,3,3,1,402,252,150,139,0,500,200,8000,"[(512, 384), (512, 384), (512, 384), (512, 384), (512, 384), (512, 384), (512, 384), (512, 384), (512, 384), (512, 384), (512, 384), (512, 384), (512, 384), (512, 384), (512, 384), (512, 384), (512, 384), (512, 384), (512, 384), (512, 384), (512, 384), (512, 384), (512, 384), (512, 384), (512, 384), (512, 385), (510, 397), (506, 409), (499, 430), (496, 443), (495, 458), (489, 476), (480, 512), (477, 530), (475, 544), (474, 558), (471, 581), (471, 592), (471, 604), (470, 615), (468, 632)]",100.06068979532297,"[7, 2, 3, 8, 6, 4, 1, 5, 9]","(0, 0.25)",ENG006C,ENG,C,Chinese,Tue Oct  9 18:31:01 2018,Mouse
2,0,3,0,26,8,8,1,563,393,170,138,0,500,200,8000,"[(512, 384), (512, 384), (512, 384), (512, 384), (512, 384), (512, 384), (512, 384), (512, 384), (512, 384), (512, 384), (512, 384), (512, 384), (512, 384), (512, 384), (512, 384), (512, 384), (512, 384), (512, 384), (512, 384), (512, 384), (512, 384), (512, 384), (512, 384), (512, 384), (512, 384), (512, 384), (512, 384), (512, 384), (512, 384), (512, 384), (512, 384), (512, 384), (512, 384), (512, 384), (512, 384), (512, 384), (512, 384), (512, 384), (512, 384), (512, 382), (512, 382), (510, 382), (506, 385), (483, 392), (471, 397), (458, 400), (447, 405), (424, 418), (413, 426), (401, 432), (390, 441), (363, 462), (351, 471), (336, 485), (326, 495), (303, 515), (293, 524)]",147.4104630982844,"[7, 2, 3, 8, 6, 4, 1, 5, 9]","(0, 0.25)",ENG006C,ENG,C,Chinese,Tue Oct  9 18:31:01 2018,Mouse
2,0,3,0,27,5,5,1,1100,400,700,137,0,500,200,8000,"[(512, 384), (512, 384), (512, 384), (512, 384), (512, 384), (512, 384), (512, 384), (512, 384), (512, 384), (512, 384), (512, 384), (512, 384), (512, 384), (512, 384), (512, 384), (512, 384), (512, 384), (512, 384), (512, 384), (512, 384), (512, 384), (512, 384), (512, 384), (512, 384), (512, 384), (512, 384), (512, 384), (512, 384), (512, 384), (512, 384), (512, 384), (512, 384), (512, 384), (512, 384), (512, 384), (512, 384), (512, 384), (512, 384), (512, 384), (514, 385), (515, 386), (515, 386), (515, 386), (515, 386), (515, 386), (515, 386), (515, 386), (515, 386), (515, 386), (515, 386), (515, 386), (515, 386), (515, 386), (515, 386), (515, 386), (515, 386), (515, 386), (515, 386), (515, 386), (515, 386), (515, 386), (515, 386), (515, 386), (515, 386), (515, 386), (515, 386), (517, 386), (522, 386), (526, 386), (533, 385), (536, 383), (546, 377), (552, 374), (555, 373), (559, 372), (561, 370), (561, 370), (561, 370), (562, 369), (562, 369), (562, 369), (562, 369), (562, 369), (562, 369), (562, 369), (563, 368), (563, 365), (563, 357), (563, 353), (563, 349), (563, 345), (563, 334), (563, 329), (563, 324), (563, 318), (567, 301), (569, 293), (572, 286), (574, 278), (581, 266), (584, 263), (590, 256), (594, 251), (607, 239), (615, 233), (624, 224), (634, 216), (653, 199), (662, 190), (670, 180)]",307.7581331410838,"[7, 2, 3, 8, 6, 4, 1, 5, 9]","(0, 0.25)",ENG006C,ENG,C,Chinese,Tue Oct  9 18:31:01 2018,Mouse
2,0,3,0,28,6,3,0,-1272,1112,160,136,0,500,200,8000,"[(512, 384), (512, 384), (512, 384), (512, 384), (512, 384), (512, 384), (512, 384), (512, 384), (512, 384), (512, 384), (512, 384), (512, 384), (512, 384), (512, 384), (512, 384), (512, 384), (512, 384), (512, 384), (512, 384), (512, 384), (512, 384), (512, 384), (512, 384), (512, 384), (512, 384), (512, 384), (512, 384), (512, 384), (512, 384), (512, 384), (512, 384), (512, 384), (512, 384), (512, 384), (512, 384), (512, 384), (512, 384), (512, 384), (512, 384), (512, 384), (512, 384), (512, 384), (512, 384), (512, 384), (512, 384), (512, 384), (512, 384), (512, 384), (512, 384), (512, 384), (512, 384), (512, 384), (512, 384), (512, 384), (512, 384), (512, 384), (512, 384), (512, 384), (512, 384), (512, 384), (512, 384), (512, 384), (512, 384), (512, 384), (512, 384), (512, 384), (512, 384), (512, 384), (512, 384), (512, 384), (512, 384), (512, 384), (512, 384), (512, 384), (512, 384), (512, 384), (512, 384), (512, 384), (512, 384), (512, 384), (512, 384), (512, 384), (512, 384), (512, 384), (512, 384), (512, 384), (512, 384), (512, 384), (512, 384), (512, 384), (512, 384), (512, 384), (512, 384), (512, 384), (512, 384), (512, 384), (512, 384), (512, 384), (512, 384), (512, 384), (512, 384), (512, 384), (512, 384), (512, 384), (512, 384), (512, 384), (512, 384), (512, 384), (512, 384), (512, 384), (512, 384), (514, 382), (515, 382), (515, 382), (515, 382), (515, 382), (515, 383), (515, 386), (513, 402), (508, 416), (499, 437), (490, 462), (464, 521), (453, 544), (444, 565), (437, 583), (425, 609), (423, 619)]",110.7428496143103,"[7, 2, 3, 8, 6, 4, 1, 5, 9]","(0, 0.25)",ENG006C,ENG,C,Chinese,Tue Oct  9 18:31:01 2018,Mouse
2,0,3,0,29,2,2,1,472,32,440,137,0,500,200,8000,"[(512, 384), (512, 384), (512, 384), (511, 382), (511, 382), (511, 382), (511, 382), (511, 382), (511, 382), (511, 382), (511, 382), (511, 382), (511, 382), (511, 382), (511, 382), (511, 382), (511, 382), (511, 382), (511, 382), (511, 382), (511, 382), (511, 382), (511, 382), (511, 382), (511, 382), (511, 382), (511, 382), (511, 387), (511, 390), (512, 394), (513, 400), (517, 412), (519, 420), (523, 429), (527, 438), (535, 459), (541, 470), (551, 486), (558, 497), (572, 520), (579, 533), (582, 543), (588, 555), (601, 578), (607, 589), (611, 599), (614, 608), (618, 624)]",66.17055052203517,"[7, 2, 3, 8, 6, 4, 1, 5, 9]","(0, 0.25)",ENG006C,ENG,C,Chinese,Tue Oct  9 18:31:01 2018,Mouse
2,0,3,0,30,5,5,1,631,231,400,137,0,500,200,8000,"[(512, 384), (512, 384), (512, 384), (512, 384), (512, 384), (512, 384), (512, 384), (512, 384), (512, 384), (512, 384), (512, 384), (512, 384), (512, 384), (512, 384), (512, 384), (512, 384), (512, 384), (512, 384), (512, 384), (512, 384), (512, 384), (512, 384), (512, 384), (511, 385), (509, 386), (509, 387), (508, 388), (507, 388), (507, 388), (507, 388), (507, 388), (507, 388), (507, 388), (507, 388), (507, 388), (507, 388), (507, 388), (507, 386), (507, 382), (507, 378), (507, 367), (507, 364), (507, 362), (507, 360), (506, 356), (506, 355), (506, 355), (506, 354), (506, 354), (506, 354), (506, 354), (506, 353), (507, 352), (509, 348), (511, 346), (515, 341), (526, 325), (535, 315), (548, 301), (561, 284), (599, 230), (617, 200), (633, 182), (646, 165)]",301.46130256479415,"[7, 2, 3, 8, 6, 4, 1, 5, 9]","(0, 0.25)",ENG006C,ENG,C,Chinese,Tue Oct  9 18:31:01 2018,Mouse
2,0,3,0,31,8,8,1,685,515,170,136,0,500,200,8000,"[(512, 384), (512, 384), (512, 384), (512, 384), (512, 384), (512, 384), (512, 384), (512, 384), (512, 384), (512, 384), (512, 384), (512, 384), (512, 384), (512, 384), (512, 384), (512, 384), (512, 384), (512, 384), (512, 384), (512, 384), (512, 384), (512, 384), (512, 384), (512, 384), (512, 384), (512, 384), (512, 384), (512, 384), (512, 384), (512, 384), (512, 384), (512, 384), (512, 384), (512, 384), (512, 384), (512, 384), (512, 384), (512, 384), (512, 384), (512, 384), (512, 384), (512, 384), (512, 384), (512, 384), (512, 384), (512, 384), (512, 384), (512, 384), (512, 384), (512, 384), (512, 384), (503, 392), (497, 396), (489, 397), (481, 401), (475, 404), (458, 414), (449, 420), (439, 426), (421, 441), (414, 449), (405, 459), (399, 468), (381, 491), (366, 509), (355, 521), (347, 532), (330, 550), (321, 558)]",137.66664345024518,"[7, 2, 3, 8, 6, 4, 1, 5, 9]","(0, 0.25)",ENG006C,ENG,C,Chinese,Tue Oct  9 18:31:01 2018,Mouse
2,0,3,0,32,7,2,0,-963,33,930,135,0,500,200,8000,"[(512, 384), (512, 384), (512, 384), (512, 382), (512, 381), (512, 381), (512, 381), (512, 381), (512, 381), (512, 381), (512, 381), (512, 381), (512, 381), (512, 381), (512, 381), (512, 381), (512, 381), (512, 381), (512, 381), (512, 381), (512, 381), (512, 381), (512, 381), (512, 381), (512, 381), (512, 381), (512, 381), (512, 381), (512, 381), (512, 381), (512, 381), (512, 381), (512, 381), (512, 381), (512, 381), (512, 381), (512, 381), (512, 381), (512, 381), (512, 381), (514, 381), (518, 382), (521, 383), (524, 385), (524, 385), (524, 385), (524, 385), (524, 385), (524, 385), (524, 385), (524, 385), (524, 385), (524, 385), (524, 385), (524, 385), (524, 385), (524, 385), (524, 385), (524, 385), (524, 385), (524, 385), (524, 385), (524, 385), (524, 385), (524, 385), (524, 385), (524, 385), (524, 385), (524, 385), (524, 385), (524, 385), (534, 393), (546, 403), (552, 412), (557, 419), (565, 436), (568, 445), (572, 454), (576, 464), (585, 486), (590, 497), (595, 508), (600, 516), (610, 532), (612, 537), (616, 542), (622, 550), (623, 557), (625, 563), (625, 570), (625, 576), (626, 584), (626, 586), (627, 589), (629, 591), (631, 601), (634, 606)]",61.20902492780798,"[7, 2, 3, 8, 6, 4, 1, 5, 9]","(0, 0.25)",ENG006C,ENG,C,Chinese,Tue Oct  9 18:31:01 2018,Mouse
2,0,3,0,33,1,7,0,-655,205,450,136,0,500,200,8000,"[(512, 384), (512, 384), (512, 384), (512, 384), (512, 384), (512, 384), (512, 384), (512, 384), (512, 384), (512, 384), (512, 384), (512, 384), (512, 384), (512, 384), (512, 384), (512, 384), (512, 384), (512, 384), (512, 384), (512, 384), (512, 383), (512, 383), (512, 383), (512, 383), (512, 383), (512, 383), (512, 383), (512, 383), (512, 383), (512, 383), (512, 383), (512, 383), (512, 383), (512, 383), (512, 383), (512, 383), (512, 383), (512, 383), (512, 383), (512, 383), (512, 383), (512, 383), (512, 383), (512, 383), (512, 383), (512, 383), (512, 383), (512, 383), (512, 383), (512, 383), (513, 389), (513, 390), (513, 392), (518, 393), (522, 393), (525, 393), (530, 395), (542, 397), (565, 404), (578, 409), (594, 414), (616, 420), (663, 440), (695, 454), (724, 466), (753, 482)]",22.128576691420626,"[7, 2, 3, 8, 6, 4, 1, 5, 9]","(0, 0.25)",ENG006C,ENG,C,Chinese,Tue Oct  9 18:31:01 2018,Mouse
2,0,3,0,34,2,2,1,1632,382,1250,137,0,500,200,8000,"[(512, 384), (512, 384), (512, 384), (512, 384), (512, 384), (512, 384), (512, 384), (512, 384), (512, 384), (512, 384), (512, 384), (512, 384), (512, 384), (512, 384), (512, 384), (512, 384), (512, 384), (512, 384), (512, 384), (512, 384), (512, 384), (512, 384), (512, 384), (512, 384), (512, 384), (512, 384), (512, 384), (512, 384), (512, 384), (512, 384), (512, 384), (512, 384), (512, 384), (512, 384), (512, 384), (512, 384), (512, 384), (512, 384), (513, 384), (514, 384), (514, 384), (514, 384), (514, 384), (514, 384), (514, 384), (514, 384), (517, 384), (517, 384), (517, 384), (522, 384), (525, 380), (529, 375), (533, 368), (539, 351), (542, 342), (545, 331), (548, 321), (556, 302), (560, 292), (565, 286), (570, 277), (574, 269), (576, 265), (577, 263), (578, 261), (578, 260), (578, 260), (578, 260), (578, 260), (578, 260), (578, 260), (578, 260), (578, 260), (578, 260), (578, 260), (578, 260), (578, 260), (578, 260), (578, 260), (578, 260), (578, 260), (578, 260), (578, 260), (578, 260), (578, 260), (578, 260), (578, 260), (578, 260), (578, 260), (578, 260), (578, 260), (578, 260), (578, 260), (578, 260), (578, 260), (578, 260), (578, 260), (578, 260), (578, 260), (578, 260), (578, 260), (578, 260), (578, 260), (578, 260), (578, 260), (578, 260), (578, 260), (578, 260), (578, 260), (578, 260), (578, 260), (578, 260), (578, 260), (578, 260), (578, 260), (578, 260), (578, 260), (578, 260), (578, 260), (578, 260), (578, 260), (578, 260), (578, 260), (578, 260), (578, 260), (578, 260), (578, 260), (578, 260), (578, 260), (568, 270), (562, 276), (555, 285), (549, 293), (537, 305), (532, 310), (530, 313), (529, 314), (528, 315), (528, 316), (528, 316), (528, 316), (528, 316), (528, 316), (528, 316), (528, 316), (528, 316), (528, 316), (528, 316), (528, 318), (531, 321), (536, 325), (539, 328), (544, 335), (565, 366), (581, 388), (594, 412), (610, 442), (628, 489), (637, 509), (645, 525), (650, 539), (661, 566), (667, 578), (670, 588)]",52.24186685891621,"[7, 2, 3, 8, 6, 4, 1, 5, 9]","(0, 0.25)",ENG006C,ENG,C,Chinese,Tue Oct  9 18:31:01 2018,Mouse
2,0,3,0,35,5,5,1,1492,332,1160,137,0,500,200,8000,"[(512, 384), (512, 384), (512, 384), (512, 384), (512, 384), (512, 384), (512, 384), (512, 384), (512, 384), (512, 384), (512, 384), (512, 384), (512, 384), (512, 384), (512, 384), (512, 384), (512, 384), (512, 384), (512, 384), (512, 384), (512, 384), (512, 384), (512, 384), (512, 384), (512, 384), (512, 384), (512, 384), (512, 384), (512, 384), (512, 384), (512, 384), (512, 384), (512, 384), (514, 385), (514, 385), (516, 385), (516, 385), (516, 385), (516, 385), (516, 385), (516, 385), (516, 385), (516, 385), (516, 385), (516, 385), (516, 385), (516, 385), (517, 385), (517, 385), (518, 385), (519, 385), (519, 385), (519, 385), (519, 385), (519, 384), (519, 384), (519, 384), (519, 384), (519, 384), (519, 384), (519, 384), (519, 384), (519, 384), (519, 384), (519, 384), (519, 384), (519, 384), (519, 384), (519, 384), (519, 384), (519, 384), (519, 384), (519, 384), (519, 384), (519, 384), (519, 384), (519, 384), (519, 384), (519, 384), (519, 384), (519, 384), (519, 384), (519, 384), (519, 384), (519, 384), (519, 384), (519, 384), (519, 384), (519, 384), (519, 384), (520, 382), (523, 378), (525, 376), (525, 374), (527, 372), (527, 372), (527, 372), (527, 372), (527, 372), (527, 372), (527, 372), (527, 372), (527, 372), (527, 372), (527, 372), (527, 372), (527, 372), (527, 372), (527, 372), (527, 372), (527, 372), (527, 372), (527, 372), (527, 372), (527, 372), (527, 372), (527, 372), (527, 372), (527, 372), (528, 372), (530, 372), (531, 372), (532, 372), (533, 371), (533, 371), (533, 369), (533, 363), (535, 360), (538, 355), (542, 350), (554, 335), (561, 326), (566, 317), (573, 308), (589, 288), (595, 278), (603, 267), (611, 252), (619, 227), (623, 219), (626, 209), (627, 202), (634, 188), (637, 183), (638, 182), (641, 179), (642, 175), (644, 174), (644, 173), (646, 171)]",302.17432562352377,"[7, 2, 3, 8, 6, 4, 1, 5, 9]","(0, 0.25)",ENG006C,ENG,C,Chinese,Tue Oct  9 18:31:01 2018,Mouse
2,0,3,0,36,4,2,0,-878,458,420,136,0,500,200,8000,"[(512, 384), (512, 384), (512, 384), (512, 384), (512, 384), (512, 384), (512, 384), (512, 384), (512, 384), (512, 384), (512, 384), (512, 384), (512, 384), (512, 384), (512, 384), (512, 384), (512, 384), (512, 384), (512, 384), (512, 384), (512, 384), (512, 384), (512, 384), (512, 384), (512, 384), (512, 384), (512, 384), (512, 384), (512, 384), (512, 384), (512, 384), (512, 384), (512, 384), (512, 384), (512, 384), (512, 384), (512, 384), (512, 384), (512, 384), (512, 384), (512, 384), (512, 384), (512, 384), (512, 384), (512, 384), (513, 386), (513, 386), (513, 386), (513, 386), (513, 386), (513, 386), (513, 386), (513, 386), (513, 386), (513, 386), (513, 386), (513, 386), (514, 386), (514, 389), (514, 390), (514, 390), (515, 393), (515, 394), (515, 398), (516, 403), (517, 405), (518, 409), (523, 421), (527, 429), (531, 437), (535, 443), (543, 458), (547, 466), (549, 471), (553, 480), (562, 499), (569, 510), (573, 519), (579, 529), (590, 545), (595, 554), (602, 562), (606, 568), (615, 582), (621, 590), (625, 594), (630, 600), (632, 605)]",61.498640385317415,"[7, 2, 3, 8, 6, 4, 1, 5, 9]","(0, 0.25)",ENG006C,ENG,C,Chinese,Tue Oct  9 18:31:01 2018,Mouse
2,0,3,0,37,2,2,1,1065,655,410,137,0,500,200,8000,"[(512, 384), (512, 384), (512, 384), (512, 384), (512, 384), (512, 384), (512, 384), (512, 384), (512, 384), (512, 384), (512, 384), (512, 384), (512, 384), (512, 384), (512, 384), (512, 384), (512, 384), (512, 384), (512, 384), (512, 384), (512, 384), (512, 384), (512, 384), (512, 384), (512, 384), (512, 384), (512, 384), (512, 384), (512, 384), (512, 384), (512, 384), (512, 384), (512, 384), (512, 384), (512, 384), (512, 384), (512, 384), (512, 384), (512, 384), (512, 384), (512, 384), (512, 384), (512, 384), (512, 384), (512, 384), (512, 384), (512, 384), (512, 384), (512, 384), (512, 384), (512, 384), (512, 384), (512, 384), (512, 384), (512, 384), (512, 384), (512, 384), (512, 384), (512, 384), (512, 384), (512, 384), (512, 384), (512, 384), (512, 384), (512, 384), (511, 385), (510, 386), (510, 386), (510, 386), (510, 386), (510, 386), (510, 386), (510, 386), (510, 386), (510, 386), (510, 386), (510, 386), (510, 386), (510, 386), (510, 386), (510, 388), (511, 391), (514, 395), (515, 399), (518, 403), (518, 404), (518, 405), (520, 414), (523, 422), (528, 432), (531, 440), (539, 457), (541, 467), (545, 477), (547, 487), (555, 511), (559, 522), (563, 535), (569, 546), (578, 566), (581, 572), (586, 579), (591, 587), (600, 598), (605, 606), (610, 611), (614, 616)]",66.26706019592801,"[7, 2, 3, 8, 6, 4, 1, 5, 9]","(0, 0.25)",ENG006C,ENG,C,Chinese,Tue Oct  9 18:31:01 2018,Mouse
2,0,3,0,38,5,5,1,1833,433,1400,137,0,500,200,8000,"[(512, 384), (512, 384), (512, 384), (512, 384), (512, 384), (512, 384), (512, 384), (512, 384), (512, 384), (512, 384), (512, 384), (512, 384), (512, 384), (512, 384), (512, 384), (512, 384), (512, 384), (512, 384), (512, 384), (512, 384), (512, 384), (512, 384), (512, 384), (512, 384), (512, 384), (512, 384), (512, 384), (512, 384), (512, 384), (512, 384), (512, 384), (512, 384), (512, 384), (512, 384), (512, 384), (512, 384), (512, 384), (512, 384), (512, 384), (512, 384), (512, 384), (512, 384), (512, 384), (511, 385), (511, 387), (511, 387), (511, 387), (511, 387), (511, 387), (511, 387), (511, 387), (511, 387), (511, 387), (511, 387), (511, 387), (511, 387), (511, 387), (511, 387), (511, 387), (511, 387), (511, 387), (511, 387), (511, 387), (511, 387), (511, 387), (511, 387), (511, 387), (511, 387), (511, 387), (511, 387), (511, 387), (511, 387), (511, 387), (511, 389), (511, 391), (511, 393), (511, 396), (511, 398), (511, 400), (511, 400), (511, 400), (511, 400), (511, 400), (511, 400), (511, 400), (511, 400), (511, 400), (511, 400), (511, 400), (511, 400), (511, 400), (511, 400), (511, 400), (511, 398), (511, 395), (514, 391), (516, 386), (520, 378), (521, 374), (526, 367), (530, 361), (534, 354), (536, 348), (540, 342), (542, 338), (548, 328), (548, 325), (549, 322), (552, 316), (555, 309), (556, 305), (557, 302), (557, 299), (558, 287), (558, 283), (558, 276), (558, 268), (558, 257), (557, 250), (555, 244), (552, 238), (550, 230), (550, 228), (550, 226), (550, 224), (550, 220), (550, 219), (550, 218), (550, 218), (550, 216), (550, 216), (550, 215), (550, 215), (550, 214), (550, 214), (550, 214), (550, 214), (550, 214), (550, 213), (550, 212), (550, 212), (550, 212), (550, 212), (550, 212), (550, 212), (550, 212), (550, 212), (550, 212), (550, 212), (550, 212), (550, 212), (550, 212), (550, 212), (550, 212), (550, 212), (550, 212), (550, 212), (550, 212), (550, 212), (550, 212), (550, 212), (550, 212), (550, 212), (550, 212), (550, 212), (560, 208), (565, 208), (568, 208), (575, 208), (582, 206), (585, 205), (587, 205), (590, 204), (595, 201), (598, 199), (599, 198), (601, 196), (603, 191), (607, 187), (612, 182), (617, 177), (628, 169), (631, 167), (639, 164)]",299.99666776968843,"[7, 2, 3, 8, 6, 4, 1, 5, 9]","(0, 0.25)",ENG006C,ENG,C,Chinese,Tue Oct  9 18:31:01 2018,Mouse
2,0,3,0,39,7,7,1,774,174,600,136,0,500,200,8000,"[(512, 384), (512, 384), (512, 384), (512, 384), (512, 384), (512, 384), (512, 384), (512, 384), (512, 384), (512, 384), (512, 384), (512, 384), (512, 384), (512, 384), (512, 384), (512, 384), (512, 384), (519, 383), (522, 381), (525, 380), (527, 378), (531, 374), (532, 372), (532, 371), (532, 371), (532, 371), (532, 371), (532, 371), (532, 371), (532, 371), (532, 371), (532, 371), (532, 371), (532, 371), (532, 371), (532, 371), (532, 371), (532, 371), (532, 371), (532, 371), (532, 371), (532, 371), (532, 371), (532, 371), (532, 371), (534, 373), (536, 375), (536, 376), (536, 376), (536, 376), (536, 376), (536, 376), (536, 376), (536, 376), (536, 376), (536, 376), (538, 378), (552, 389), (561, 396), (570, 401), (580, 409), (606, 422), (624, 429), (645, 438), (662, 443), (680, 450), (689, 452), (697, 454), (704, 456), (716, 460), (719, 461), (723, 461), (725, 462), (730, 463), (734, 463), (743, 464), (748, 464), (762, 464)]",17.744671625056935,"[7, 2, 3, 8, 6, 4, 1, 5, 9]","(0, 0.25)",ENG006C,ENG,C,Chinese,Tue Oct  9 18:31:01 2018,Mouse
2,0,3,0,40,3,2,0,-3924,3834,90,135,0,500,200,8000,"[(512, 384), (512, 384), (512, 384), (512, 384), (512, 384), (512, 384), (512, 384), (512, 384), (512, 384), (512, 384), (512, 384), (512, 384), (512, 384), (512, 384), (512, 384), (512, 384), (512, 384), (512, 384), (512, 384), (512, 384), (512, 384), (512, 384), (512, 384), (512, 384), (512, 384), (512, 384), (512, 384), (512, 384), (512, 384), (512, 384), (512, 384), (512, 384), (512, 384), (512, 384), (512, 384), (512, 384), (512, 384), (512, 384), (512, 384), (512, 384), (512, 384), (512, 384), (512, 384), (512, 384), (512, 384), (512, 384), (512, 384), (512, 384), (512, 384), (512, 384), (512, 384), (512, 384), (512, 384), (512, 384), (512, 384), (512, 384), (512, 384), (512, 384), (512, 384), (512, 384), (512, 384), (512, 384), (512, 384), (512, 384), (512, 384), (512, 384), (512, 384), (512, 384), (512, 384), (512, 384), (512, 384), (512, 384), (512, 384), (512, 384), (512, 384), (512, 384), (512, 384), (512, 384), (512, 384), (512, 384), (512, 384), (512, 384), (512, 384), (512, 384), (512, 384), (512, 384), (512, 384), (512, 384), (512, 384), (512, 384), (512, 384), (512, 384), (512, 384), (512, 384), (512, 384), (512, 384), (512, 384), (512, 384), (512, 384), (512, 384), (512, 384), (512, 384), (512, 384), (512, 384), (512, 384), (512, 384), (512, 384), (512, 384), (512, 384), (512, 384), (512, 384), (512, 384), (512, 384), (512, 384), (512, 384), (512, 384), (512, 384), (512, 384), (512, 384), (512, 384), (512, 384), (512, 384), (512, 384), (512, 384), (512, 384), (512, 384), (512, 384), (512, 384), (512, 384), (512, 384), (512, 384), (512, 384), (512, 384), (512, 384), (512, 384), (512, 384), (512, 384), (512, 384), (512, 384), (512, 384), (512, 384), (512, 384), (512, 384), (512, 384), (512, 384), (512, 384), (512, 384), (512, 384), (512, 384), (512, 384), (512, 384), (512, 384), (512, 384), (512, 384), (512, 384), (512, 384), (512, 384), (512, 384), (512, 384), (512, 384), (512, 384), (512, 384), (512, 384), (512, 384), (512, 384), (512, 384), (512, 384), (512, 384), (512, 384), (512, 384), (512, 384), (512, 384), (512, 384), (512, 384), (512, 384), (512, 384), (512, 384), (512, 384), (512, 384), (512, 384), (512, 384), (512, 384), (512, 384), (512, 384), (512, 384), (512, 384), (512, 384), (512, 384), (512, 384), (512, 384), (512, 384), (512, 384), (512, 384), (512, 384), (512, 384), (512, 384), (512, 384), (512, 384), (512, 384), (512, 384), (512, 384), (512, 384), (512, 384), (512, 384), (512, 384), (512, 384), (512, 384), (512, 384), (512, 384), (512, 384), (512, 384), (512, 384), (512, 384), (512, 384), (512, 384), (512, 384), (512, 384), (512, 384), (512, 384), (512, 384), (512, 384), (512, 384), (512, 384), (512, 384), (512, 384), (512, 384), (512, 384), (512, 384), (512, 384), (512, 384), (512, 384), (512, 384), (512, 384), (512, 384), (512, 384), (512, 384), (512, 384), (512, 384), (512, 384), (512, 384), (512, 384), (512, 384), (512, 384), (512, 384), (512, 384), (512, 384), (512, 384), (512, 384), (512, 384), (512, 384), (512, 384), (512, 384), (512, 384), (512, 384), (512, 384), (512, 384), (512, 384), (512, 384), (512, 384), (512, 384), (512, 384), (512, 384), (512, 384), (512, 384), (512, 384), (512, 384), (512, 384), (512, 384), (512, 384), (512, 384), (512, 384), (512, 384), (512, 384), (512, 384), (512, 384), (512, 384), (512, 384), (512, 384), (512, 384), (512, 384), (512, 384), (512, 384), (512, 384), (512, 384), (512, 384), (512, 384), (512, 384), (512, 384), (512, 384), (512, 384), (512, 384), (512, 384), (512, 384), (512, 384), (512, 384), (512, 384), (512, 384), (512, 384), (512, 384), (512, 384), (512, 384), (512, 384), (512, 384), (512, 384), (512, 384), (512, 384), (512, 384), (512, 384), (512, 384), (512, 384), (512, 384), (512, 384), (512, 384), (512, 384), (512, 384), (512, 384), (512, 384), (512, 384), (512, 384), (512, 384), (512, 384), (512, 384), (512, 384), (512, 384), (512, 384), (512, 384), (512, 384), (512, 384), (512, 384), (512, 384), (512, 384), (512, 384), (512, 384), (512, 384), (512, 384), (512, 384), (512, 384), (512, 384), (512, 384), (512, 384), (512, 384), (512, 384), (512, 384), (512, 384), (512, 384), (512, 384), (512, 384), (512, 384), (512, 384), (512, 384), (512, 384), (512, 384), (512, 384), (512, 384), (512, 384), (512, 384), (512, 384), (512, 384), (512, 384), (512, 384), (512, 384), (512, 384), (512, 384), (512, 384), (512, 384), (512, 384), (512, 384), (512, 384), (512, 384), (512, 384), (512, 384), (512, 384), (512, 384), (512, 384), (512, 384), (512, 384), (512, 384), (512, 384), (512, 384), (512, 384), (512, 384), (512, 384), (512, 384), (513, 383), (537, 397), (565, 416), (608, 452), (620, 464), (626, 474), (638, 488), (668, 522), (690, 543), (712, 567)]",42.45851346021522,"[7, 2, 3, 8, 6, 4, 1, 5, 9]","(0, 0.25)",ENG006C,ENG,C,Chinese,Tue Oct  9 18:31:01 2018,Mouse
2,0,3,0,41,8,3,0,-903,153,750,136,0,500,200,8000,"[(512, 384), (512, 384), (512, 384), (512, 384), (512, 384), (512, 384), (512, 384), (512, 384), (512, 384), (512, 384), (512, 384), (512, 384), (512, 384), (512, 384), (512, 384), (516, 385), (522, 387), (529, 390), (533, 392), (534, 392), (534, 392), (534, 392), (534, 392), (534, 392), (534, 392), (533, 392), (532, 392), (532, 392), (532, 392), (532, 392), (530, 391), (530, 391), (530, 391), (529, 391), (529, 391), (529, 391), (529, 391), (529, 391), (528, 390), (528, 390), (528, 390), (527, 390), (524, 390), (521, 391), (520, 391), (518, 393), (518, 395), (518, 395), (518, 395), (518, 397), (518, 397), (518, 397), (518, 397), (518, 397), (518, 397), (518, 397), (518, 397), (518, 397), (518, 397), (518, 397), (518, 397), (518, 397), (518, 397), (518, 397), (518, 398), (519, 399), (520, 404), (520, 409), (520, 415), (520, 424), (512, 448), (505, 460), (499, 469), (493, 477), (484, 495), (481, 505), (479, 516), (477, 526), (475, 538), (475, 544), (474, 547), (474, 549), (472, 556), (472, 560), (471, 567), (471, 575), (471, 590), (471, 600), (470, 608), (469, 618), (466, 632)]",100.50802214023243,"[7, 2, 3, 8, 6, 4, 1, 5, 9]","(0, 0.25)",ENG006C,ENG,C,Chinese,Tue Oct  9 18:31:01 2018,Mouse
2,0,3,0,42,1,7,0,-1032,393,639,137,0,500,200,8000,"[(512, 384), (512, 384), (512, 384), (512, 384), (512, 384), (512, 384), (512, 384), (512, 384), (512, 384), (512, 384), (512, 384), (512, 384), (512, 384), (512, 384), (512, 384), (512, 384), (512, 384), (512, 384), (512, 384), (512, 384), (512, 384), (512, 384), (512, 384), (512, 384), (512, 384), (512, 384), (512, 384), (512, 384), (512, 384), (512, 384), (512, 384), (512, 384), (512, 384), (512, 384), (512, 384), (512, 384), (512, 384), (512, 384), (512, 384), (515, 383), (520, 386), (525, 390), (528, 392), (529, 394), (529, 394), (529, 394), (529, 394), (529, 394), (529, 394), (529, 394), (529, 394), (529, 394), (529, 394), (529, 394), (529, 394), (529, 394), (529, 394), (529, 394), (529, 394), (529, 394), (529, 394), (529, 394), (529, 394), (529, 394), (529, 394), (529, 394), (529, 394), (529, 394), (529, 394), (529, 394), (529, 394), (529, 394), (529, 394), (529, 394), (529, 394), (529, 394), (529, 394), (529, 394), (529, 394), (529, 394), (529, 394), (529, 394), (529, 394), (529, 394), (529, 394), (530, 396), (540, 400), (553, 403), (583, 416), (592, 419), (600, 423), (612, 428), (633, 436), (642, 440), (646, 441), (655, 445), (673, 453), (681, 456), (689, 460), (701, 465), (718, 473), (730, 477), (741, 483), (750, 485)]",22.994898910333845,"[7, 2, 3, 8, 6, 4, 1, 5, 9]","(0, 0.25)",ENG006C,ENG,C,Chinese,Tue Oct  9 18:31:01 2018,Mouse
2,0,3,0,43,8,8,1,574,284,290,138,0,500,200,8000,"[(512, 384), (512, 384), (512, 384), (512, 384), (512, 384), (512, 384), (512, 384), (512, 384), (512, 384), (512, 384), (512, 384), (512, 384), (512, 384), (512, 384), (512, 384), (512, 384), (512, 384), (512, 384), (512, 384), (512, 384), (512, 384), (512, 384), (512, 384), (512, 384), (512, 384), (512, 384), (512, 384), (512, 384), (513, 385), (513, 385), (513, 385), (513, 385), (513, 385), (513, 385), (513, 385), (513, 385), (510, 392), (505, 397), (497, 402), (488, 410), (469, 426), (457, 436), (447, 443), (436, 450), (413, 468), (402, 477), (393, 485), (382, 493), (362, 508), (354, 513), (347, 519), (339, 523), (330, 528), (328, 530), (326, 531), (325, 532), (318, 538), (312, 543)]",141.51530055129598,"[7, 2, 3, 8, 6, 4, 1, 5, 9]","(0, 0.25)",ENG006C,ENG,C,Chinese,Tue Oct  9 18:31:01 2018,Mouse
2,0,3,0,44,9,5,0,-872,62,810,138,0,500,200,8000,"[(512, 384), (512, 384), (512, 384), (512, 384), (512, 384), (512, 384), (513, 384), (513, 384), (513, 384), (513, 384), (513, 384), (513, 384), (513, 384), (513, 384), (513, 384), (513, 384), (513, 384), (513, 384), (513, 384), (513, 384), (513, 384), (513, 384), (513, 384), (513, 384), (513, 384), (513, 384), (513, 384), (513, 384), (513, 384), (513, 384), (513, 384), (513, 384), (513, 384), (513, 384), (513, 384), (513, 384), (513, 384), (513, 384), (515, 385), (516, 389), (516, 390), (516, 390), (516, 390), (516, 390), (516, 390), (516, 390), (516, 390), (516, 390), (516, 390), (516, 390), (516, 390), (516, 390), (516, 390), (516, 390), (516, 390), (516, 390), (516, 390), (516, 390), (516, 390), (516, 390), (516, 390), (516, 390), (516, 389), (527, 372), (532, 361), (538, 348), (543, 337), (550, 309), (553, 298), (556, 285), (560, 277), (566, 261), (570, 253), (572, 246), (575, 240), (583, 225), (587, 218), (592, 212), (598, 202), (601, 197), (605, 192), (606, 189), (611, 181), (613, 175), (616, 170), (618, 166), (621, 161), (626, 154)]",296.3654151225536,"[7, 2, 3, 8, 6, 4, 1, 5, 9]","(0, 0.25)",ENG006C,ENG,C,Chinese,Tue Oct  9 18:31:01 2018,Mouse
2,0,3,0,45,3,3,1,1232,392,840,139,0,500,200,8000,"[(512, 384), (512, 384), (512, 384), (512, 384), (512, 384), (512, 384), (512, 384), (512, 384), (512, 384), (512, 384), (512, 384), (512, 384), (512, 384), (512, 384), (512, 384), (512, 384), (512, 384), (512, 384), (512, 384), (512, 384), (512, 384), (512, 384), (512, 384), (512, 384), (512, 384), (512, 384), (512, 384), (512, 384), (512, 384), (512, 384), (512, 384), (512, 384), (512, 384), (512, 384), (512, 384), (512, 384), (512, 384), (512, 384), (512, 384), (523, 391), (528, 392), (530, 392), (530, 392), (530, 392), (530, 392), (530, 392), (530, 392), (530, 392), (530, 392), (531, 392), (531, 392), (531, 392), (531, 392), (531, 392), (531, 392), (531, 392), (531, 392), (531, 392), (531, 392), (531, 392), (531, 392), (531, 392), (531, 392), (531, 392), (531, 392), (531, 392), (531, 392), (531, 392), (531, 392), (531, 392), (531, 392), (531, 392), (531, 392), (531, 392), (531, 392), (531, 392), (531, 392), (531, 392), (531, 392), (531, 392), (531, 392), (531, 392), (531, 392), (531, 392), (532, 392), (533, 392), (534, 392), (536, 400), (536, 400), (536, 400), (536, 400), (536, 400), (536, 400), (536, 400), (536, 400), (536, 400), (536, 400), (536, 400), (536, 400), (536, 401), (536, 403), (536, 406), (533, 410), (521, 427), (513, 436), (505, 447), (497, 459), (487, 480), (483, 489), (480, 496), (480, 501), (478, 514), (478, 521), (478, 531), (478, 540), (477, 561), (476, 568), (473, 579), (471, 585), (467, 601), (465, 608), (463, 615), (461, 622), (458, 633)]",102.23611150941635,"[7, 2, 3, 8, 6, 4, 1, 5, 9]","(0, 0.25)",ENG006C,ENG,C,Chinese,Tue Oct  9 18:31:01 2018,Mouse
2,0,3,0,46,3,3,1,401,71,330,139,0,500,200,8000,"[(512, 384), (512, 384), (512, 384), (512, 384), (512, 384), (512, 384), (512, 384), (512, 383), (512, 383), (512, 383), (512, 383), (512, 383), (512, 383), (512, 383), (512, 383), (512, 383), (512, 383), (512, 383), (512, 383), (512, 383), (508, 393), (504, 399), (501, 405), (499, 411), (495, 424), (493, 431), (490, 437), (488, 444), (483, 465), (482, 476), (480, 489), (478, 504), (474, 529), (473, 540), (473, 551), (473, 562), (473, 586), (473, 594), (473, 602), (472, 610), (471, 631)]",99.42470187232026,"[7, 2, 3, 8, 6, 4, 1, 5, 9]","(0, 0.25)",ENG006C,ENG,C,Chinese,Tue Oct  9 18:31:01 2018,Mouse
2,0,3,0,47,1,1,1,913,123,790,138,0,500,200,8000,"[(512, 384), (512, 384), (512, 384), (512, 384), (512, 384), (512, 384), (512, 384), (512, 384), (512, 384), (512, 384), (512, 384), (512, 384), (513, 386), (513, 389), (513, 390), (513, 390), (513, 390), (513, 390), (513, 390), (513, 390), (514, 391), (514, 391), (515, 391), (516, 391), (521, 391), (527, 391), (532, 391), (538, 391), (553, 390), (559, 389), (566, 388), (572, 386), (578, 385), (578, 385), (578, 385), (578, 385), (578, 385), (578, 385), (578, 385), (578, 385), (578, 385), (578, 385), (578, 385), (578, 385), (578, 385), (578, 385), (579, 384), (579, 382), (579, 372), (574, 364), (571, 357), (568, 351), (561, 333), (556, 325), (553, 319), (549, 309), (541, 293), (538, 287), (537, 284), (537, 280), (535, 276), (535, 275), (534, 273), (534, 273), (534, 272), (534, 272), (534, 272), (534, 272), (534, 272), (534, 272), (534, 272), (534, 272), (534, 272), (534, 272), (534, 272), (534, 272), (534, 272), (534, 272), (534, 272), (534, 272), (534, 271), (533, 269), (529, 263), (524, 254), (513, 239), (506, 229), (498, 215), (492, 205), (479, 173), (472, 160), (464, 144), (456, 128)]",257.6609127216738,"[7, 2, 3, 8, 6, 4, 1, 5, 9]","(0, 0.25)",ENG006C,ENG,C,Chinese,Tue Oct  9 18:31:01 2018,Mouse
2,0,3,0,48,6,6,1,531,61,470,137,0,500,200,8000,"[(512, 384), (512, 384), (512, 384), (512, 384), (512, 384), (512, 384), (519, 384), (519, 384), (519, 384), (519, 384), (519, 384), (519, 384), (519, 384), (519, 384), (519, 384), (519, 384), (519, 384), (519, 384), (519, 384), (519, 384), (519, 384), (519, 384), (519, 384), (519, 384), (519, 384), (519, 384), (519, 384), (519, 384), (519, 384), (519, 384), (519, 384), (519, 384), (519, 384), (520, 384), (520, 384), (520, 384), (520, 384), (520, 384), (520, 384), (515, 384), (511, 386), (506, 387), (491, 388), (481, 388), (468, 388), (451, 388), (419, 388), (400, 388), (380, 388), (360, 388), (310, 388), (290, 388), (275, 389), (262, 389)]",178.8542371618249,"[7, 2, 3, 8, 6, 4, 1, 5, 9]","(0, 0.25)",ENG006C,ENG,C,Chinese,Tue Oct  9 18:31:01 2018,Mouse
2,0,3,0,49,7,7,1,727,417,310,136,0,500,200,8000,"[(512, 384), (512, 384), (512, 384), (512, 384), (512, 384), (512, 384), (512, 384), (512, 384), (512, 384), (512, 384), (512, 384), (512, 384), (512, 384), (512, 384), (512, 384), (512, 384), (512, 384), (512, 384), (512, 384), (512, 384), (512, 384), (512, 384), (512, 384), (512, 384), (512, 384), (512, 384), (512, 384), (512, 384), (512, 384), (512, 384), (512, 384), (512, 384), (512, 384), (512, 384), (512, 384), (512, 384), (512, 384), (512, 384), (512, 384), (512, 384), (512, 384), (511, 384), (511, 384), (511, 385), (511, 385), (511, 385), (511, 385), (511, 385), (513, 387), (517, 387), (521, 390), (528, 392), (532, 394), (538, 396), (547, 397), (553, 400), (572, 405), (580, 407), (590, 412), (598, 415), (612, 421), (619, 423), (626, 428), (632, 431), (649, 436), (656, 437), (666, 439), (676, 442), (696, 449), (707, 454), (720, 458), (730, 461), (747, 470)]",20.10047565683416,"[7, 2, 3, 8, 6, 4, 1, 5, 9]","(0, 0.25)",ENG006C,ENG,C,Chinese,Tue Oct  9 18:31:01 2018,Mouse
2,0,3,0,50,6,7,0,-2742,1552,1190,135,0,500,200,8000,"[(512, 384), (512, 384), (512, 384), (512, 384), (512, 384), (512, 384), (512, 384), (512, 384), (512, 384), (512, 384), (512, 384), (512, 384), (512, 384), (512, 384), (512, 384), (512, 384), (512, 384), (512, 384), (512, 384), (512, 384), (512, 384), (512, 384), (512, 384), (512, 384), (512, 384), (512, 384), (512, 384), (512, 384), (512, 384), (512, 384), (512, 384), (512, 384), (512, 384), (512, 384), (512, 384), (512, 384), (512, 384), (512, 384), (512, 384), (512, 384), (512, 384), (512, 384), (512, 384), (512, 384), (512, 384), (512, 384), (512, 384), (512, 384), (512, 384), (512, 384), (512, 384), (512, 384), (512, 384), (512, 384), (512, 384), (512, 384), (512, 384), (512, 384), (512, 384), (512, 384), (512, 384), (512, 384), (512, 384), (512, 384), (512, 384), (512, 384), (512, 384), (512, 384), (512, 384), (512, 384), (512, 384), (512, 384), (512, 384), (512, 384), (512, 384), (512, 384), (512, 384), (512, 384), (512, 384), (512, 384), (512, 384), (512, 384), (512, 384), (512, 384), (512, 384), (512, 384), (512, 384), (512, 384), (512, 384), (512, 384), (512, 384), (512, 384), (512, 384), (512, 384), (512, 384), (512, 384), (512, 384), (512, 384), (512, 384), (512, 384), (512, 384), (512, 384), (512, 384), (512, 384), (512, 384), (512, 384), (512, 384), (512, 384), (512, 384), (512, 384), (512, 384), (512, 384), (512, 384), (512, 384), (512, 384), (512, 384), (512, 384), (512, 384), (512, 384), (512, 384), (512, 384), (512, 384), (512, 384), (512, 384), (512, 384), (512, 384), (512, 384), (512, 384), (512, 384), (512, 384), (512, 384), (512, 384), (512, 384), (512, 384), (512, 384), (512, 384), (512, 384), (512, 384), (512, 384), (512, 384), (512, 384), (512, 384), (512, 384), (512, 384), (512, 384), (512, 384), (512, 384), (512, 384), (512, 384), (512, 384), (512, 384), (512, 384), (512, 384), (512, 384), (512, 384), (508, 384), (504, 384), (502, 381), (499, 377), (499, 377), (499, 376), (499, 376), (499, 376), (499, 376), (499, 376), (499, 376), (499, 376), (499, 376), (499, 376), (499, 376), (499, 376), (499, 376), (499, 376), (499, 376), (499, 376), (499, 376), (499, 376), (499, 376), (499, 376), (499, 376), (499, 376), (499, 376), (499, 376), (499, 376), (499, 376), (499, 376), (499, 376), (499, 376), (499, 376), (499, 376), (499, 376), (499, 376), (499, 376), (499, 376), (499, 376), (499, 376), (499, 376), (499, 376), (499, 376), (499, 376), (499, 376), (499, 376), (499, 376), (499, 376), (499, 376), (499, 376), (499, 376), (499, 376), (499, 376), (499, 376), (499, 376), (499, 376), (499, 376), (499, 376), (499, 376), (499, 376), (499, 376), (499, 376), (499, 376), (499, 376), (499, 376), (499, 376), (499, 376), (499, 376), (499, 377), (501, 378), (503, 380), (504, 384), (505, 386), (508, 388), (509, 390), (511, 395), (512, 395), (513, 396), (513, 397), (514, 398), (515, 399), (515, 399), (515, 399), (515, 399), (515, 399), (515, 399), (515, 400), (516, 400), (516, 400), (516, 400), (516, 400), (516, 400), (516, 400), (516, 400), (516, 400), (516, 400), (516, 400), (516, 400), (516, 400), (516, 400), (516, 400), (517, 400), (521, 402), (548, 405), (560, 407), (572, 409), (586, 411), (611, 414), (623, 416), (634, 418), (651, 425), (684, 434), (694, 437), (701, 440), (711, 445), (726, 451), (734, 456), (744, 462), (752, 466)]",18.86358755562412,"[7, 2, 3, 8, 6, 4, 1, 5, 9]","(0, 0.25)",ENG006C,ENG,C,Chinese,Tue Oct  9 18:31:01 2018,Mouse
2,0,3,0,51,6,6,1,652,282,370,136,0,500,200,8000,"[(512, 384), (512, 384), (512, 384), (512, 384), (512, 384), (512, 384), (512, 384), (512, 384), (512, 384), (512, 384), (512, 384), (512, 384), (512, 384), (512, 384), (512, 384), (512, 384), (512, 384), (512, 384), (512, 384), (512, 384), (512, 384), (512, 384), (512, 384), (512, 384), (512, 384), (512, 384), (512, 384), (512, 384), (511, 384), (511, 385), (511, 387), (512, 389), (513, 392), (515, 395), (515, 395), (515, 395), (515, 395), (515, 395), (515, 395), (515, 395), (515, 395), (515, 395), (515, 395), (515, 395), (515, 395), (515, 395), (515, 395), (509, 395), (501, 395), (478, 395), (461, 395), (440, 392), (420, 392), (372, 392), (349, 391), (336, 391), (325, 391), (307, 391), (302, 391), (293, 391), (289, 391), (283, 391), (279, 391), (271, 391), (266, 391), (258, 391)]",178.4213820277019,"[7, 2, 3, 8, 6, 4, 1, 5, 9]","(0, 0.25)",ENG006C,ENG,C,Chinese,Tue Oct  9 18:31:01 2018,Mouse
2,0,3,0,52,4,4,1,653,353,300,136,0,500,200,8000,"[(512, 384), (512, 384), (512, 384), (512, 384), (512, 384), (512, 384), (512, 384), (512, 384), (512, 384), (512, 384), (512, 384), (512, 384), (512, 384), (512, 384), (512, 384), (512, 384), (512, 384), (512, 384), (512, 384), (512, 384), (512, 384), (512, 384), (512, 384), (512, 384), (512, 384), (512, 384), (512, 384), (512, 384), (512, 384), (512, 384), (512, 384), (512, 384), (512, 384), (512, 384), (512, 384), (512, 385), (512, 387), (512, 387), (512, 387), (512, 387), (512, 387), (512, 387), (512, 387), (512, 386), (503, 376), (495, 369), (488, 361), (478, 353), (459, 337), (450, 331), (441, 323), (431, 316), (406, 298), (395, 290), (385, 282), (378, 273), (364, 257), (357, 250), (352, 246), (345, 242), (339, 238), (335, 235), (332, 233), (328, 231), (323, 228), (319, 225)]",219.48286402101192,"[7, 2, 3, 8, 6, 4, 1, 5, 9]","(0, 0.25)",ENG006C,ENG,C,Chinese,Tue Oct  9 18:31:01 2018,Mouse
2,0,3,0,53,3,3,1,1099,559,540,135,0,500,200,8000,"[(512, 384), (512, 384), (512, 384), (512, 384), (512, 384), (512, 384), (512, 384), (512, 384), (512, 384), (512, 384), (512, 384), (512, 384), (512, 384), (512, 384), (512, 384), (512, 384), (512, 384), (512, 384), (512, 384), (512, 384), (512, 384), (512, 384), (512, 384), (512, 384), (512, 384), (512, 384), (512, 384), (512, 384), (512, 384), (512, 384), (512, 384), (512, 384), (512, 384), (512, 384), (512, 384), (512, 384), (512, 384), (512, 384), (512, 384), (512, 384), (512, 384), (512, 384), (512, 384), (512, 384), (512, 384), (512, 384), (512, 384), (512, 384), (512, 384), (512, 384), (512, 384), (512, 384), (512, 384), (512, 384), (512, 384), (514, 385), (514, 385), (514, 385), (514, 385), (514, 385), (514, 385), (514, 385), (515, 385), (515, 385), (515, 385), (516, 386), (516, 386), (516, 386), (516, 386), (516, 386), (516, 386), (516, 386), (516, 386), (516, 386), (516, 386), (516, 386), (516, 386), (516, 386), (516, 386), (516, 386), (516, 386), (516, 386), (516, 386), (516, 386), (516, 391), (516, 397), (516, 402), (516, 416), (514, 427), (510, 438), (508, 449), (500, 472), (498, 480), (495, 490), (493, 503), (487, 528), (482, 539), (480, 550), (477, 559), (472, 576), (467, 583), (466, 586), (463, 591), (459, 597), (458, 598), (457, 601), (457, 604), (453, 616), (452, 623), (448, 633)]",104.41460632315281,"[7, 2, 3, 8, 6, 4, 1, 5, 9]","(0, 0.25)",ENG006C,ENG,C,Chinese,Tue Oct  9 18:31:01 2018,Mouse
2,0,3,0,54,2,2,1,942,72,870,134,0,500,200,8000,"[(512, 384), (512, 384), (512, 384), (512, 384), (512, 384), (512, 384), (512, 384), (514, 383), (514, 383), (514, 383), (514, 383), (514, 383), (514, 383), (514, 383), (514, 383), (514, 383), (514, 383), (514, 383), (514, 383), (514, 383), (514, 383), (514, 383), (514, 383), (514, 383), (514, 383), (514, 383), (514, 383), (514, 383), (514, 383), (514, 383), (514, 383), (514, 383), (514, 383), (514, 383), (514, 383), (514, 383), (514, 383), (514, 383), (514, 383), (514, 383), (514, 383), (514, 383), (514, 383), (514, 383), (514, 383), (514, 383), (514, 383), (515, 384), (515, 385), (517, 387), (517, 387), (517, 389), (517, 390), (518, 390), (518, 390), (518, 392), (518, 392), (518, 392), (518, 392), (518, 392), (518, 392), (518, 392), (518, 392), (518, 392), (519, 393), (519, 393), (520, 394), (524, 397), (530, 402), (545, 415), (554, 424), (565, 435), (571, 442), (584, 459), (589, 464), (592, 468), (596, 471), (599, 479), (601, 482), (603, 486), (605, 491), (609, 504), (614, 511), (616, 518), (619, 524), (625, 539), (627, 545), (629, 551), (630, 555), (632, 560), (636, 569), (640, 575), (644, 581), (649, 592), (653, 599)]",56.74257846503954,"[7, 2, 3, 8, 6, 4, 1, 5, 9]","(0, 0.25)",ENG006C,ENG,C,Chinese,Tue Oct  9 18:31:01 2018,Mouse
2,0,3,0,55,6,7,0,-772,412,360,133,0,500,200,8000,"[(512, 384), (512, 384), (512, 384), (512, 384), (512, 384), (512, 384), (512, 384), (512, 384), (512, 384), (512, 384), (512, 384), (512, 384), (512, 384), (512, 384), (512, 384), (512, 384), (512, 384), (512, 384), (512, 384), (512, 384), (512, 384), (512, 384), (512, 384), (512, 384), (512, 384), (512, 384), (512, 384), (512, 384), (512, 384), (512, 384), (512, 384), (512, 384), (512, 384), (512, 384), (512, 384), (512, 384), (512, 384), (512, 384), (512, 384), (512, 384), (512, 384), (511, 384), (511, 386), (510, 390), (510, 390), (510, 390), (510, 390), (510, 392), (510, 392), (510, 393), (510, 393), (510, 393), (510, 393), (511, 394), (511, 394), (516, 397), (520, 398), (528, 399), (536, 403), (551, 406), (560, 409), (567, 411), (575, 414), (595, 420), (606, 422), (617, 425), (626, 427), (638, 431), (644, 434), (650, 436), (658, 441), (681, 447), (691, 452), (698, 456), (704, 458), (721, 467), (732, 472), (744, 478)]",22.056433527039353,"[7, 2, 3, 8, 6, 4, 1, 5, 9]","(0, 0.25)",ENG006C,ENG,C,Chinese,Tue Oct  9 18:31:01 2018,Mouse
2,0,3,0,56,4,6,0,-4923,4853,70,134,0,500,200,8000,"[(512, 384), (512, 384), (512, 384), (512, 384), (512, 384), (512, 384), (512, 384), (512, 384), (512, 384), (512, 384), (512, 384), (512, 384), (512, 384), (512, 384), (512, 384), (512, 384), (512, 384), (512, 384), (512, 384), (512, 384), (512, 384), (512, 384), (512, 384), (512, 384), (512, 384), (512, 384), (512, 384), (512, 384), (512, 384), (512, 384), (512, 384), (512, 384), (512, 384), (512, 384), (512, 384), (512, 384), (512, 384), (512, 384), (512, 384), (512, 384), (512, 384), (512, 384), (512, 384), (512, 384), (512, 384), (512, 384), (512, 384), (512, 384), (512, 384), (512, 384), (512, 384), (512, 384), (512, 384), (512, 384), (512, 384), (512, 384), (512, 384), (512, 384), (512, 384), (512, 384), (512, 384), (512, 384), (512, 384), (512, 384), (512, 384), (512, 384), (512, 384), (512, 384), (512, 384), (512, 384), (512, 384), (512, 384), (512, 384), (512, 384), (512, 384), (512, 384), (512, 384), (512, 384), (512, 384), (512, 384), (512, 384), (512, 384), (512, 384), (512, 384), (512, 384), (512, 384), (512, 384), (512, 384), (512, 384), (512, 384), (512, 384), (512, 384), (512, 384), (512, 384), (512, 384), (512, 384), (512, 384), (512, 384), (512, 384), (512, 384), (512, 384), (512, 384), (512, 384), (512, 384), (512, 384), (512, 384), (512, 384), (512, 384), (512, 384), (512, 384), (512, 384), (512, 384), (512, 384), (512, 384), (512, 384), (512, 384), (512, 384), (512, 384), (512, 384), (512, 384), (512, 384), (512, 384), (512, 384), (512, 384), (512, 384), (512, 384), (512, 384), (512, 384), (512, 384), (512, 384), (512, 384), (512, 384), (512, 384), (512, 384), (512, 384), (512, 384), (512, 384), (512, 384), (512, 384), (512, 384), (512, 384), (512, 384), (512, 384), (512, 384), (512, 384), (512, 384), (512, 384), (512, 384), (512, 384), (512, 384), (512, 384), (512, 384), (512, 384), (512, 384), (512, 384), (512, 384), (512, 384), (512, 384), (512, 384), (512, 384), (512, 384), (512, 384), (512, 384), (512, 384), (512, 384), (512, 384), (512, 384), (512, 384), (512, 384), (512, 384), (512, 384), (512, 384), (512, 384), (512, 384), (512, 384), (512, 384), (512, 384), (512, 384), (512, 384), (512, 384), (512, 384), (512, 384), (512, 384), (512, 384), (512, 384), (512, 384), (512, 384), (512, 384), (512, 384), (512, 384), (512, 384), (512, 384), (512, 384), (512, 384), (512, 384), (512, 384), (512, 384), (512, 384), (512, 384), (512, 384), (512, 384), (512, 384), (512, 384), (512, 384), (512, 384), (512, 384), (512, 384), (512, 384), (512, 384), (512, 384), (512, 384), (512, 384), (512, 384), (512, 384), (512, 384), (512, 384), (512, 384), (512, 384), (512, 384), (512, 384), (512, 384), (512, 384), (512, 384), (512, 384), (512, 384), (512, 384), (512, 384), (512, 384), (512, 384), (512, 384), (512, 384), (512, 384), (512, 384), (512, 384), (512, 384), (512, 384), (512, 384), (512, 384), (512, 384), (512, 384), (512, 384), (512, 384), (512, 384), (512, 384), (512, 384), (512, 384), (512, 384), (512, 384), (512, 384), (512, 384), (512, 384), (512, 384), (512, 384), (512, 384), (512, 384), (512, 384), (512, 384), (512, 384), (512, 384), (512, 384), (512, 384), (512, 384), (512, 384), (512, 384), (512, 384), (512, 384), (512, 384), (512, 384), (512, 384), (512, 384), (512, 384), (512, 384), (512, 384), (512, 384), (512, 384), (512, 384), (512, 384), (512, 384), (512, 384), (512, 384), (512, 384), (512, 384), (512, 384), (512, 384), (512, 384), (512, 384), (512, 384), (512, 384), (512, 384), (512, 384), (512, 384), (512, 384), (512, 384), (512, 384), (512, 384), (512, 384), (512, 384), (512, 384), (512, 384), (512, 384), (512, 384), (512, 384), (512, 384), (512, 384), (512, 384), (512, 384), (512, 384), (512, 384), (512, 384), (512, 384), (512, 384), (512, 384), (512, 384), (512, 384), (512, 384), (512, 384), (512, 384), (512, 384), (512, 384), (512, 384), (512, 384), (512, 384), (512, 384), (512, 384), (512, 384), (512, 384), (512, 384), (512, 384), (512, 384), (512, 384), (512, 384), (512, 384), (512, 384), (512, 384), (512, 384), (512, 384), (512, 384), (512, 384), (512, 384), (512, 384), (512, 384), (512, 384), (512, 384), (512, 384), (512, 384), (512, 384), (512, 384), (512, 384), (512, 384), (512, 384), (512, 384), (512, 384), (512, 384), (512, 384), (512, 384), (512, 384), (512, 384), (512, 384), (512, 384), (512, 384), (512, 384), (512, 384), (512, 384), (512, 384), (512, 384), (512, 384), (512, 384), (512, 384), (512, 384), (512, 384), (512, 384), (512, 384), (512, 384), (512, 384), (512, 384), (512, 384), (512, 384), (512, 384), (512, 384), (512, 384), (512, 384), (512, 384), (512, 384), (512, 384), (512, 384), (512, 384), (512, 384), (512, 384), (512, 384), (512, 384), (512, 384), (512, 384), (512, 384), (512, 384), (512, 384), (512, 384), (512, 384), (512, 384), (512, 384), (512, 384), (512, 384), (512, 384), (512, 384), (512, 384), (512, 384), (512, 384), (512, 384), (512, 384), (512, 384), (512, 384), (512, 384), (512, 384), (512, 384), (512, 384), (512, 384), (512, 384), (512, 384), (512, 384), (512, 384), (512, 384), (512, 384), (512, 384), (512, 384), (512, 384), (512, 384), (512, 384), (512, 384), (512, 384), (512, 384), (512, 384), (512, 384), (512, 384), (512, 384), (512, 384), (512, 384), (512, 384), (512, 384), (512, 384), (512, 384), (512, 384), (512, 384), (512, 384), (512, 384), (512, 384), (512, 384), (512, 384), (512, 384), (512, 384), (512, 384), (512, 384), (512, 384), (512, 384), (512, 384), (512, 384), (512, 384), (512, 384), (512, 384), (512, 384), (512, 384), (512, 384), (512, 384), (512, 384), (512, 384), (512, 384), (512, 384), (512, 384), (512, 384), (512, 384), (512, 384), (512, 384), (512, 384), (512, 384), (512, 384), (512, 384), (512, 384), (512, 384), (512, 384), (512, 384), (512, 384), (512, 384), (512, 384), (512, 384), (512, 384), (512, 384), (512, 384), (504, 381), (470, 374), (441, 371), (414, 366), (385, 365), (316, 365), (276, 366), (231, 371)]",182.6488057594586,"[7, 2, 3, 8, 6, 4, 1, 5, 9]","(0, 0.25)",ENG006C,ENG,C,Chinese,Tue Oct  9 18:31:01 2018,Mouse
2,0,3,0,57,3,2,0,-896,106,790,135,0,500,200,8000,"[(512, 384), (512, 384), (512, 384), (512, 384), (512, 384), (512, 384), (512, 384), (512, 384), (512, 384), (512, 384), (513, 384), (513, 384), (514, 384), (516, 384), (517, 386), (518, 386), (518, 387), (520, 388), (520, 388), (520, 388), (520, 388), (523, 390), (525, 391), (525, 391), (527, 391), (529, 391), (530, 391), (530, 391), (530, 391), (530, 391), (530, 391), (530, 391), (530, 391), (530, 391), (530, 391), (530, 391), (530, 391), (532, 391), (532, 391), (532, 391), (532, 391), (532, 391), (532, 391), (532, 391), (533, 391), (534, 391), (535, 391), (536, 391), (537, 391), (538, 391), (538, 391), (538, 391), (538, 391), (538, 391), (538, 391), (538, 391), (538, 391), (538, 391), (538, 391), (540, 391), (545, 391), (557, 391), (567, 396), (577, 404), (583, 412), (593, 436), (600, 451), (606, 466), (611, 477), (621, 499), (629, 512), (636, 521), (641, 528), (648, 538), (651, 541), (651, 543), (652, 544), (652, 548), (655, 550), (656, 553), (656, 558), (658, 565), (660, 570), (663, 573), (663, 576), (665, 579), (665, 580), (665, 581), (665, 581), (665, 582)]",52.30575953331083,"[7, 2, 3, 8, 6, 4, 1, 5, 9]","(0, 0.25)",ENG006C,ENG,C,Chinese,Tue Oct  9 18:31:01 2018,Mouse
2,0,3,0,58,8,5,0,-1301,21,1280,136,0,500,200,8000,"[(512, 384), (512, 384), (514, 384), (526, 384), (550, 384), (560, 384), (566, 386), (569, 386), (570, 387), (570, 387), (570, 387), (570, 387), (570, 387), (570, 387), (570, 387), (570, 387), (570, 387), (570, 387), (570, 387), (570, 387), (570, 387), (570, 387), (570, 387), (570, 387), (570, 387), (570, 387), (570, 387), (570, 387), (570, 387), (570, 387), (570, 387), (570, 387), (570, 387), (570, 387), (570, 387), (570, 387), (570, 387), (570, 387), (570, 387), (570, 387), (570, 387), (570, 387), (570, 387), (570, 387), (570, 387), (570, 387), (570, 387), (570, 387), (570, 387), (570, 388), (570, 390), (570, 390), (570, 390), (571, 391), (573, 391), (575, 393), (576, 394), (576, 394), (576, 394), (576, 394), (576, 394), (576, 394), (576, 394), (576, 394), (576, 394), (576, 394), (576, 394), (576, 394), (576, 394), (576, 394), (576, 394), (576, 394), (576, 394), (576, 394), (576, 394), (576, 394), (576, 394), (576, 394), (576, 394), (576, 394), (576, 394), (576, 394), (576, 394), (576, 394), (576, 394), (576, 394), (576, 394), (576, 394), (576, 394), (576, 394), (576, 394), (576, 394), (576, 394), (576, 394), (576, 394), (576, 394), (576, 394), (576, 394), (576, 394), (576, 394), (576, 394), (576, 394), (576, 394), (576, 394), (576, 394), (576, 394), (576, 393), (576, 386), (576, 378), (576, 374), (576, 365), (576, 356), (576, 337), (576, 326), (572, 313), (567, 297), (562, 272), (561, 261), (561, 251), (561, 241), (562, 220), (564, 212), (568, 202), (572, 194), (578, 186), (583, 180), (587, 174), (589, 171), (597, 161), (602, 156), (609, 150)]",292.5154694738066,"[7, 2, 3, 8, 6, 4, 1, 5, 9]","(0, 0.25)",ENG006C,ENG,C,Chinese,Tue Oct  9 18:31:01 2018,Mouse
2,0,3,0,59,1,1,1,782,12,770,137,0,500,200,8000,"[(512, 384), (507, 381), (507, 381), (507, 381), (507, 381), (507, 381), (507, 381), (507, 381), (507, 381), (507, 381), (507, 381), (507, 381), (507, 381), (507, 381), (507, 381), (507, 381), (507, 381), (507, 381), (507, 381), (507, 381), (506, 381), (506, 381), (508, 383), (514, 387), (517, 391), (518, 391), (518, 391), (518, 391), (518, 391), (518, 391), (518, 391), (519, 391), (519, 391), (519, 391), (519, 391), (519, 391), (519, 391), (519, 391), (519, 391), (519, 391), (519, 391), (519, 391), (521, 382), (521, 376), (521, 368), (519, 362), (512, 346), (510, 339), (506, 330), (502, 324), (496, 313), (493, 306), (491, 300), (487, 293), (482, 273), (480, 260), (476, 251), (474, 245), (471, 232), (471, 230), (471, 227), (471, 226), (471, 223), (471, 219), (471, 216), (471, 213), (471, 204), (471, 197), (472, 190), (472, 183), (472, 170), (472, 166), (472, 162), (472, 160), (472, 152), (472, 148), (472, 144), (471, 140), (470, 128)]",260.6829139308738,"[7, 2, 3, 8, 6, 4, 1, 5, 9]","(0, 0.25)",ENG006C,ENG,C,Chinese,Tue Oct  9 18:31:01 2018,Mouse
2,0,3,0,60,7,7,1,917,357,560,137,0,500,200,8000,"[(512, 384), (512, 384), (512, 384), (512, 384), (512, 384), (512, 384), (512, 384), (512, 384), (512, 384), (512, 384), (512, 384), (512, 384), (512, 384), (512, 384), (512, 384), (512, 384), (512, 384), (512, 384), (512, 384), (512, 384), (512, 384), (512, 384), (512, 384), (512, 384), (512, 384), (512, 384), (512, 384), (512, 384), (512, 384), (512, 384), (512, 384), (512, 384), (512, 384), (512, 384), (512, 384), (513, 386), (513, 386), (513, 386), (513, 386), (513, 386), (513, 386), (513, 386), (513, 386), (513, 386), (513, 386), (513, 386), (513, 386), (518, 390), (522, 396), (523, 399), (525, 402), (526, 404), (526, 404), (527, 405), (527, 406), (527, 406), (527, 406), (527, 406), (527, 406), (527, 406), (527, 406), (527, 406), (527, 406), (527, 406), (527, 406), (527, 406), (527, 406), (527, 406), (527, 406), (527, 406), (527, 406), (527, 406), (527, 406), (527, 406), (530, 406), (551, 412), (567, 417), (578, 419), (591, 424), (626, 437), (639, 444), (650, 451), (660, 458), (677, 470), (683, 475), (689, 480), (696, 486), (709, 495), (713, 497), (719, 500), (723, 501), (732, 503)]",28.409358521561682,"[7, 2, 3, 8, 6, 4, 1, 5, 9]","(0, 0.25)",ENG006C,ENG,C,Chinese,Tue Oct  9 18:31:01 2018,Mouse
2,0,3,0,61,2,2,1,1531,241,1290,136,0,500,200,8000,"[(512, 384), (512, 384), (512, 384), (512, 384), (512, 384), (512, 384), (512, 384), (512, 384), (512, 384), (512, 384), (512, 384), (512, 384), (512, 384), (512, 384), (512, 384), (512, 384), (512, 384), (512, 384), (512, 384), (512, 384), (512, 384), (512, 384), (512, 384), (512, 384), (522, 383), (523, 382), (523, 378), (523, 378), (523, 378), (523, 378), (523, 378), (523, 378), (523, 378), (523, 378), (523, 378), (523, 378), (523, 378), (523, 378), (523, 378), (523, 378), (523, 378), (523, 378), (523, 378), (523, 378), (523, 378), (523, 378), (523, 378), (523, 378), (523, 378), (523, 378), (523, 378), (523, 378), (523, 378), (523, 378), (523, 378), (523, 378), (523, 378), (523, 378), (523, 378), (523, 378), (523, 378), (523, 378), (523, 378), (523, 378), (523, 378), (523, 378), (523, 378), (523, 378), (523, 378), (523, 378), (523, 378), (523, 378), (523, 378), (523, 378), (523, 378), (523, 378), (523, 378), (523, 378), (523, 378), (523, 378), (523, 378), (523, 378), (523, 378), (523, 380), (523, 382), (523, 384), (523, 384), (523, 384), (525, 385), (526, 385), (526, 385), (528, 385), (528, 385), (528, 385), (528, 385), (528, 385), (528, 385), (528, 385), (528, 385), (528, 385), (529, 385), (529, 385), (530, 385), (530, 385), (531, 384), (531, 384), (532, 383), (532, 383), (532, 382), (532, 382), (532, 382), (532, 382), (532, 382), (532, 382), (532, 382), (532, 382), (532, 382), (532, 382), (532, 382), (534, 381), (547, 389), (552, 397), (556, 403), (558, 408), (562, 423), (565, 433), (567, 442), (571, 453), (579, 474), (583, 487), (589, 498), (592, 508), (595, 524), (600, 534), (601, 541), (602, 545), (604, 555), (604, 557), (604, 563), (606, 566), (610, 575), (613, 581), (614, 584), (617, 589), (620, 592), (622, 594), (623, 597), (623, 597), (625, 600), (625, 600), (625, 600), (625, 600), (626, 602), (628, 606)]",62.41191863425418,"[7, 2, 3, 8, 6, 4, 1, 5, 9]","(0, 0.25)",ENG006C,ENG,C,Chinese,Tue Oct  9 18:31:01 2018,Mouse
2,0,3,0,62,4,2,0,-395,165,230,135,0,500,200,8000,"[(512, 384), (512, 384), (512, 384), (512, 384), (512, 384), (512, 384), (512, 384), (512, 384), (512, 384), (512, 384), (512, 384), (512, 384), (512, 384), (512, 384), (512, 384), (512, 384), (513, 384), (523, 396), (543, 419), (549, 429), (555, 438), (563, 448), (570, 463), (573, 470), (575, 477), (580, 487), (587, 505), (592, 516), (597, 526), (603, 536), (612, 552), (615, 560), (617, 563), (619, 568), (620, 572), (621, 575), (621, 577), (622, 581), (628, 597), (632, 607)]",61.71456805805005,"[7, 2, 3, 8, 6, 4, 1, 5, 9]","(0, 0.25)",ENG006C,ENG,C,Chinese,Tue Oct  9 18:31:01 2018,Mouse
2,0,3,0,63,4,9,0,-2341,961,1380,136,0,500,200,8000,"[(512, 384), (512, 384), (512, 384), (512, 384), (512, 384), (512, 384), (512, 384), (512, 384), (512, 384), (512, 384), (512, 384), (512, 384), (512, 384), (512, 384), (512, 384), (512, 384), (512, 384), (512, 384), (512, 384), (512, 384), (512, 384), (512, 384), (512, 384), (512, 384), (512, 384), (512, 384), (512, 384), (512, 384), (512, 384), (512, 384), (512, 384), (512, 384), (512, 384), (512, 384), (512, 384), (512, 384), (512, 384), (512, 384), (512, 384), (512, 384), (512, 384), (512, 384), (512, 384), (512, 384), (512, 384), (512, 384), (512, 384), (512, 384), (512, 384), (512, 384), (512, 384), (512, 384), (512, 384), (512, 384), (512, 384), (512, 384), (512, 384), (512, 384), (512, 384), (512, 384), (512, 384), (512, 384), (512, 384), (512, 384), (512, 384), (512, 384), (512, 384), (512, 384), (512, 384), (512, 384), (512, 384), (512, 384), (512, 384), (512, 384), (512, 384), (512, 384), (512, 384), (512, 384), (512, 384), (512, 384), (512, 384), (512, 384), (512, 384), (512, 384), (512, 384), (512, 384), (512, 384), (512, 384), (512, 384), (512, 384), (512, 384), (512, 384), (512, 384), (512, 384), (512, 384), (512, 384), (513, 383), (513, 382), (513, 382), (514, 382), (514, 382), (514, 380), (514, 380), (514, 380), (514, 380), (514, 380), (514, 380), (514, 380), (514, 380), (514, 380), (514, 380), (514, 380), (514, 380), (514, 380), (514, 380), (514, 380), (514, 380), (514, 380), (514, 379), (514, 378), (514, 378), (514, 378), (514, 378), (514, 378), (514, 378), (514, 378), (514, 378), (514, 378), (514, 378), (514, 378), (514, 378), (514, 378), (514, 378), (514, 378), (514, 378), (514, 378), (514, 378), (514, 378), (514, 378), (514, 378), (514, 378), (514, 378), (514, 378), (514, 378), (514, 378), (514, 378), (514, 378), (514, 378), (514, 378), (514, 378), (514, 378), (514, 378), (514, 378), (514, 378), (514, 378), (514, 378), (514, 378), (514, 378), (514, 378), (514, 378), (514, 378), (514, 378), (514, 378), (514, 378), (514, 378), (514, 378), (514, 378), (514, 378), (514, 378), (514, 378), (514, 378), (514, 378), (514, 378), (514, 378), (514, 378), (514, 378), (514, 378), (514, 378), (514, 378), (514, 378), (514, 378), (514, 378), (514, 378), (514, 378), (514, 378), (514, 378), (514, 378), (514, 378), (514, 378), (514, 378), (514, 378), (514, 378), (514, 378), (514, 378), (514, 378), (514, 378), (514, 378), (514, 378), (514, 378), (514, 378), (514, 378), (514, 378), (514, 378), (514, 378), (514, 378), (514, 378), (514, 378), (514, 378), (514, 378), (514, 378), (514, 378), (514, 378), (514, 378), (514, 378), (514, 378), (549, 378), (561, 378), (571, 378), (580, 377), (593, 371), (600, 367), (603, 366), (610, 362), (621, 356), (627, 352), (634, 349), (642, 345), (659, 337), (672, 333), (683, 327), (694, 322), (717, 312), (730, 308), (741, 305), (755, 302)]",341.3531072134129,"[7, 2, 3, 8, 6, 4, 1, 5, 9]","(0, 0.25)",ENG006C,ENG,C,Chinese,Tue Oct  9 18:31:01 2018,Mouse
2,0,3,0,64,6,3,0,-574,204,370,137,0,500,200,8000,"[(512, 384), (512, 384), (512, 384), (512, 384), (512, 384), (512, 384), (512, 384), (512, 384), (512, 384), (512, 384), (512, 384), (512, 384), (512, 384), (512, 384), (512, 384), (512, 384), (512, 384), (512, 384), (512, 384), (512, 384), (512, 385), (512, 386), (512, 386), (512, 386), (512, 386), (512, 387), (512, 387), (512, 387), (512, 387), (512, 387), (512, 387), (512, 387), (512, 387), (512, 387), (512, 387), (512, 387), (512, 387), (512, 387), (512, 387), (512, 387), (512, 387), (512, 387), (512, 387), (512, 387), (512, 387), (512, 387), (513, 388), (513, 391), (513, 406), (506, 419), (492, 439), (477, 469), (448, 523), (439, 546), (432, 566), (429, 580), (427, 607), (424, 621)]",110.37036510267009,"[7, 2, 3, 8, 6, 4, 1, 5, 9]","(0, 0.25)",ENG006C,ENG,C,Chinese,Tue Oct  9 18:31:01 2018,Mouse
2,0,3,0,65,2,2,1,506,246,260,138,0,500,200,8000,"[(512, 384), (512, 384), (512, 384), (512, 384), (512, 384), (512, 384), (512, 384), (512, 384), (512, 384), (512, 384), (512, 384), (512, 384), (512, 384), (512, 384), (512, 384), (512, 384), (512, 384), (512, 384), (512, 384), (512, 384), (512, 384), (512, 384), (512, 384), (512, 384), (512, 385), (512, 387), (515, 389), (516, 391), (516, 392), (516, 392), (516, 393), (519, 397), (524, 402), (532, 408), (547, 424), (555, 434), (560, 441), (566, 449), (582, 469), (591, 478), (600, 490), (608, 500), (622, 516), (628, 523), (632, 528), (635, 532), (644, 540), (649, 543), (656, 550), (664, 555), (684, 570)]",47.23947593795188,"[7, 2, 3, 8, 6, 4, 1, 5, 9]","(0, 0.25)",ENG006C,ENG,C,Chinese,Tue Oct  9 18:31:01 2018,Mouse
2,0,3,0,66,9,9,1,797,47,750,138,0,500,200,8000,"[(512, 384), (512, 384), (512, 384), (512, 384), (511, 384), (511, 384), (511, 384), (511, 384), (511, 384), (511, 384), (511, 384), (511, 384), (511, 384), (511, 384), (511, 384), (511, 384), (511, 384), (511, 384), (511, 384), (511, 384), (511, 384), (511, 384), (511, 384), (511, 384), (511, 384), (511, 384), (511, 384), (511, 384), (511, 384), (511, 384), (511, 384), (511, 384), (511, 384), (511, 384), (510, 384), (509, 388), (509, 390), (509, 391), (510, 393), (510, 393), (510, 393), (510, 393), (510, 393), (510, 393), (510, 393), (510, 393), (510, 393), (510, 393), (510, 393), (510, 393), (510, 393), (510, 393), (510, 393), (510, 393), (510, 393), (513, 393), (518, 390), (524, 387), (529, 383), (545, 371), (555, 365), (564, 358), (574, 351), (597, 337), (612, 331), (630, 324), (645, 318), (672, 307), (687, 301), (699, 297), (709, 292), (717, 290), (721, 288), (723, 288), (725, 288), (727, 288), (729, 287), (730, 287), (733, 287), (745, 287)]",337.39759795282487,"[7, 2, 3, 8, 6, 4, 1, 5, 9]","(0, 0.25)",ENG006C,ENG,C,Chinese,Tue Oct  9 18:31:01 2018,Mouse
2,0,3,0,67,7,2,0,-1563,363,1200,137,0,500,200,8000,"[(512, 384), (512, 384), (512, 384), (512, 384), (512, 384), (512, 384), (512, 384), (512, 384), (512, 384), (512, 384), (512, 384), (512, 384), (512, 384), (512, 384), (512, 384), (512, 384), (512, 384), (512, 384), (512, 384), (512, 384), (512, 384), (512, 384), (512, 384), (512, 384), (512, 384), (512, 384), (512, 384), (512, 384), (512, 384), (512, 384), (512, 384), (512, 384), (512, 384), (512, 384), (512, 384), (512, 384), (508, 389), (507, 391), (505, 392), (505, 392), (505, 392), (505, 392), (505, 392), (505, 392), (505, 392), (505, 392), (505, 392), (505, 392), (505, 392), (505, 392), (505, 392), (505, 392), (505, 392), (505, 392), (505, 392), (505, 392), (505, 392), (505, 392), (505, 392), (505, 392), (505, 392), (505, 392), (505, 392), (505, 392), (505, 392), (505, 392), (507, 392), (511, 391), (513, 387), (513, 387), (513, 387), (513, 387), (513, 387), (513, 387), (513, 387), (513, 387), (513, 387), (513, 387), (513, 387), (513, 387), (513, 387), (513, 387), (513, 387), (513, 387), (513, 387), (513, 387), (513, 387), (513, 387), (513, 387), (513, 387), (513, 387), (513, 387), (513, 387), (513, 387), (513, 387), (513, 387), (513, 387), (513, 387), (513, 387), (513, 387), (513, 387), (515, 387), (518, 388), (521, 390), (522, 390), (522, 390), (522, 390), (522, 390), (522, 390), (523, 390), (528, 394), (533, 402), (539, 415), (544, 426), (546, 435), (549, 445), (556, 467), (560, 478), (564, 491), (569, 502), (575, 519), (577, 526), (579, 534), (580, 541), (585, 554), (587, 561), (588, 567), (590, 573), (595, 586), (598, 591), (599, 595), (599, 596), (602, 600), (602, 602), (602, 604), (603, 604), (604, 607), (604, 607), (605, 608), (605, 608), (605, 608), (605, 608), (605, 608), (605, 608), (605, 608), (605, 608), (605, 608), (605, 608), (605, 608), (605, 608), (605, 608), (605, 608), (605, 608), (605, 608), (606, 608), (608, 608), (616, 612)]",65.48035731180924,"[7, 2, 3, 8, 6, 4, 1, 5, 9]","(0, 0.25)",ENG006C,ENG,C,Chinese,Tue Oct  9 18:31:01 2018,Mouse
2,0,3,0,68,2,2,1,401,11,390,138,0,500,200,8000,"[(512, 384), (514, 384), (515, 384), (519, 385), (525, 386), (527, 386), (529, 386), (530, 386), (534, 388), (537, 389), (540, 391), (543, 393), (550, 403), (554, 408), (557, 412), (562, 418), (570, 429), (575, 436), (579, 442), (582, 447), (590, 460), (591, 464), (591, 467), (592, 472), (595, 481), (596, 488), (599, 493), (600, 498), (605, 514), (606, 521), (609, 530), (610, 534), (612, 548), (615, 554), (617, 562), (619, 569), (627, 581), (630, 588), (630, 591), (632, 596), (637, 605)]",60.5070281768928,"[7, 2, 3, 8, 6, 4, 1, 5, 9]","(0, 0.25)",ENG006C,ENG,C,Chinese,Tue Oct  9 18:31:01 2018,Mouse
2,0,3,0,69,1,1,1,691,41,650,138,0,500,200,8000,"[(512, 384), (512, 384), (512, 384), (512, 384), (512, 382), (512, 379), (512, 379), (512, 379), (512, 379), (512, 379), (512, 379), (512, 379), (512, 379), (512, 379), (512, 379), (512, 379), (512, 379), (512, 379), (512, 379), (512, 379), (512, 379), (512, 379), (512, 379), (512, 379), (512, 379), (512, 379), (512, 379), (512, 379), (512, 379), (512, 379), (512, 379), (512, 379), (513, 383), (513, 384), (514, 386), (514, 387), (514, 390), (515, 391), (515, 391), (515, 391), (515, 391), (515, 391), (515, 391), (515, 391), (515, 391), (515, 388), (512, 381), (508, 375), (497, 359), (493, 353), (490, 348), (488, 343), (484, 330), (482, 319), (481, 308), (480, 299), (479, 278), (479, 264), (479, 252), (479, 240), (477, 218), (475, 207), (474, 197), (473, 188), (470, 172), (470, 167), (470, 162), (470, 155), (470, 142), (470, 133)]",260.5006650196597,"[7, 2, 3, 8, 6, 4, 1, 5, 9]","(0, 0.25)",ENG006C,ENG,C,Chinese,Tue Oct  9 18:31:01 2018,Mouse
2,0,3,0,70,1,1,1,412,112,300,137,0,500,200,8000,"[(512, 384), (512, 384), (512, 384), (512, 384), (512, 384), (512, 384), (512, 384), (512, 384), (512, 384), (512, 384), (512, 384), (513, 386), (515, 389), (520, 393), (522, 395), (523, 395), (523, 395), (523, 395), (523, 395), (524, 393), (519, 383), (516, 377), (511, 367), (495, 342), (489, 330), (482, 315), (477, 303), (467, 279), (461, 266), (458, 252), (452, 241), (446, 221), (444, 214), (442, 207), (441, 200), (439, 186), (439, 179), (439, 175), (439, 168), (439, 154), (439, 150), (439, 143)]",253.1481998478623,"[7, 2, 3, 8, 6, 4, 1, 5, 9]","(0, 0.25)",ENG006C,ENG,C,Chinese,Tue Oct  9 18:31:01 2018,Mouse
2,0,3,0,71,4,7,0,-1662,102,1560,136,0,500,200,8000,"[(512, 384), (512, 384), (512, 384), (512, 384), (512, 384), (512, 384), (512, 384), (512, 384), (512, 384), (512, 384), (512, 381), (512, 381), (512, 381), (512, 381), (512, 381), (512, 381), (512, 381), (512, 381), (512, 381), (512, 381), (512, 381), (512, 381), (512, 381), (512, 381), (512, 381), (512, 381), (512, 381), (512, 381), (512, 381), (512, 381), (512, 381), (512, 381), (512, 381), (512, 381), (512, 381), (512, 381), (512, 381), (512, 381), (512, 381), (512, 381), (512, 381), (512, 381), (513, 381), (513, 382), (515, 383), (515, 384), (515, 387), (515, 388), (515, 390), (515, 390), (515, 390), (515, 390), (515, 390), (515, 390), (516, 390), (516, 390), (516, 390), (516, 390), (516, 390), (516, 390), (516, 390), (516, 390), (516, 390), (516, 390), (516, 390), (516, 393), (521, 397), (523, 398), (523, 398), (523, 398), (523, 398), (523, 398), (523, 398), (523, 398), (524, 398), (524, 398), (524, 398), (524, 398), (524, 398), (524, 398), (524, 398), (524, 398), (524, 398), (524, 398), (524, 398), (524, 398), (524, 398), (524, 398), (523, 401), (525, 410), (537, 429), (542, 438), (546, 444), (548, 450), (556, 466), (562, 474), (567, 481), (574, 489), (589, 503), (596, 509), (603, 514), (608, 519), (612, 523), (613, 523), (613, 524), (613, 524), (615, 524), (615, 524), (616, 525), (616, 525), (617, 522), (617, 521), (617, 521), (617, 521), (617, 521), (617, 521), (617, 521), (617, 521), (617, 521), (617, 521), (617, 521), (617, 521), (617, 521), (617, 521), (617, 521), (617, 521), (617, 521), (617, 521), (617, 521), (617, 521), (617, 521), (617, 521), (617, 521), (617, 521), (617, 521), (617, 521), (617, 521), (617, 521), (617, 521), (617, 521), (617, 521), (617, 521), (617, 521), (617, 521), (617, 521), (617, 521), (617, 521), (617, 521), (617, 520), (617, 519), (617, 516), (617, 515), (617, 513), (620, 510), (621, 505), (623, 501), (625, 499), (629, 495), (639, 489), (645, 487), (653, 485), (663, 484), (686, 480), (699, 480), (713, 480), (726, 480), (749, 480)]",22.05106271907673,"[7, 2, 3, 8, 6, 4, 1, 5, 9]","(0, 0.25)",ENG006C,ENG,C,Chinese,Tue Oct  9 18:31:01 2018,Mouse
2,0,3,0,72,7,7,1,402,232,170,137,0,500,200,8000,"[(512, 384), (512, 384), (512, 384), (512, 384), (512, 384), (512, 384), (512, 384), (512, 384), (512, 384), (512, 384), (512, 384), (512, 384), (512, 384), (512, 384), (512, 384), (512, 384), (512, 384), (512, 384), (512, 384), (512, 384), (512, 384), (512, 384), (512, 384), (514, 385), (517, 388), (519, 389), (521, 391), (525, 394), (543, 406), (552, 413), (563, 420), (576, 426), (609, 440), (635, 452), (656, 460), (677, 469), (699, 481), (709, 486), (721, 493), (730, 499), (745, 507)]",27.82943864806184,"[7, 2, 3, 8, 6, 4, 1, 5, 9]","(0, 0.25)",ENG006C,ENG,C,Chinese,Tue Oct  9 18:31:01 2018,Mouse
2,0,3,0,73,9,9,1,433,243,190,137,0,500,200,8000,"[(512, 384), (512, 384), (512, 384), (512, 384), (512, 384), (512, 384), (512, 384), (512, 384), (512, 384), (512, 384), (512, 384), (512, 384), (512, 384), (512, 384), (512, 384), (512, 384), (512, 384), (512, 384), (512, 384), (512, 384), (512, 384), (512, 384), (512, 384), (512, 384), (516, 384), (520, 386), (523, 388), (524, 388), (528, 386), (532, 384), (535, 384), (541, 381), (556, 373), (563, 369), (573, 363), (586, 359), (613, 351), (627, 346), (644, 341), (660, 338), (705, 331), (725, 325), (747, 319), (763, 316)]",344.8415014068944,"[7, 2, 3, 8, 6, 4, 1, 5, 9]","(0, 0.25)",ENG006C,ENG,C,Chinese,Tue Oct  9 18:31:01 2018,Mouse
2,0,3,0,74,1,1,1,671,101,570,136,0,500,200,8000,"[(512, 384), (512, 384), (512, 384), (512, 384), (512, 384), (512, 384), (512, 384), (512, 384), (512, 384), (512, 384), (513, 381), (523, 378), (523, 378), (523, 378), (523, 378), (523, 378), (523, 378), (523, 378), (523, 378), (523, 378), (523, 378), (523, 378), (523, 378), (523, 378), (523, 378), (523, 378), (528, 380), (534, 391), (539, 399), (541, 405), (541, 405), (541, 405), (541, 405), (541, 405), (542, 406), (542, 406), (542, 406), (542, 403), (542, 398), (542, 393), (542, 389), (539, 379), (537, 375), (534, 367), (532, 363), (531, 350), (529, 343), (529, 337), (527, 329), (525, 312), (524, 301), (522, 290), (519, 279), (516, 258), (514, 248), (511, 241), (509, 231), (504, 216), (502, 206), (499, 200), (498, 190), (493, 174), (490, 166), (489, 160), (487, 155), (482, 145), (479, 139), (478, 136)]",262.19359917076423,"[7, 2, 3, 8, 6, 4, 1, 5, 9]","(0, 0.25)",ENG006C,ENG,C,Chinese,Tue Oct  9 18:31:01 2018,Mouse
2,0,3,0,75,4,7,0,-672,62,610,135,0,500,200,8000,"[(512, 384), (512, 384), (512, 384), (512, 384), (512, 384), (512, 384), (512, 385), (512, 385), (512, 385), (512, 385), (512, 385), (512, 385), (512, 385), (512, 385), (512, 385), (512, 385), (512, 385), (512, 385), (512, 385), (512, 385), (512, 385), (512, 385), (512, 385), (512, 385), (512, 385), (512, 385), (512, 385), (512, 385), (512, 385), (512, 385), (512, 385), (512, 385), (512, 385), (512, 385), (512, 385), (512, 385), (512, 385), (512, 385), (512, 385), (512, 387), (512, 387), (514, 388), (516, 388), (518, 388), (519, 388), (522, 387), (530, 387), (535, 387), (539, 387), (543, 387), (557, 387), (565, 387), (576, 387), (587, 387), (615, 387), (626, 389), (638, 393), (647, 395), (663, 400), (674, 404), (687, 410), (698, 415), (720, 426), (726, 431), (731, 434), (737, 439), (748, 447), (753, 451)]",15.536372023640302,"[7, 2, 3, 8, 6, 4, 1, 5, 9]","(0, 0.25)",ENG006C,ENG,C,Chinese,Tue Oct  9 18:31:01 2018,Mouse
2,0,3,0,76,4,6,0,-632,392,240,136,0,500,200,8000,"[(512, 384), (512, 384), (512, 384), (512, 384), (512, 384), (512, 384), (512, 384), (512, 384), (512, 384), (512, 384), (512, 384), (512, 384), (512, 384), (512, 384), (512, 384), (512, 384), (512, 384), (512, 384), (512, 384), (512, 384), (512, 384), (512, 384), (512, 384), (512, 384), (512, 384), (512, 384), (512, 384), (512, 384), (512, 384), (512, 384), (512, 384), (512, 384), (512, 384), (512, 384), (512, 384), (512, 384), (512, 384), (512, 384), (512, 384), (509, 384), (505, 385), (502, 386), (499, 387), (494, 389), (491, 389), (490, 390), (489, 390), (488, 390), (488, 390), (487, 390), (486, 390), (483, 390), (479, 392), (470, 393), (463, 394), (435, 398), (421, 399), (404, 401), (382, 406), (340, 411), (311, 415), (291, 416), (266, 416), (225, 419)]",173.0470425318261,"[7, 2, 3, 8, 6, 4, 1, 5, 9]","(0, 0.25)",ENG006C,ENG,C,Chinese,Tue Oct  9 18:31:01 2018,Mouse
