NativeLangNumber,LanuageNumber,SessionNumber,Block,TrialNum,ConditionNumber,Response,Accuracy,RT,MovementOnsetTime,TimeInMotion,SignalContrast,SignalContrastNumber,StimDisplayTime,MaskTime,MaxResponseTime,MousePositionXY,MouseAngle,WheelOrder,NoiseMuSigma,ParticipantID,LanuageTested,SessionTested,NativeLanuage,Date,ResponseDevice
2,0,1,0,1,6,6,1,869,579,290,153,0,500,200,8000,"[(512, 384), (512, 384), (512, 384), (512, 384), (512, 384), (512, 384), (512, 384), (512, 384), (512, 384), (512, 384), (512, 384), (512, 384), (512, 384), (512, 384), (512, 384), (512, 384), (512, 384), (512, 384), (512, 384), (512, 384), (512, 384), (512, 384), (512, 384), (512, 384), (512, 384), (512, 384), (512, 384), (512, 384), (512, 384), (512, 384), (512, 384), (512, 384), (512, 384), (512, 384), (512, 384), (512, 384), (512, 384), (512, 384), (512, 384), (512, 384), (512, 384), (512, 384), (512, 384), (512, 384), (512, 384), (512, 384), (512, 384), (512, 384), (512, 384), (512, 384), (512, 384), (512, 384), (512, 384), (512, 384), (512, 384), (512, 384), (512, 384), (512, 382), (514, 372), (520, 362), (524, 355), (532, 337), (535, 330), (537, 322), (542, 313), (547, 301), (550, 296), (552, 291), (555, 285), (557, 279), (561, 274), (564, 269), (566, 265), (576, 253), (577, 249), (581, 245), (587, 238), (595, 225), (599, 219), (601, 214), (605, 208), (611, 196), (614, 189), (616, 184), (619, 176), (625, 165), (627, 159)]",297.0720802,"[5, 9, 1, 7, 4, 2, 8, 6, 3]","(0, 0.25)",ENG005A,ENG,A,Chinese,Wed Aug 15 10:55:52 2018,Mouse
2,0,1,0,2,8,8,1,1351,752,599,153,0,500,200,8000,"[(512, 384), (512, 384), (512, 384), (512, 384), (512, 384), (512, 384), (512, 384), (512, 384), (512, 384), (512, 384), (512, 384), (512, 384), (512, 384), (512, 384), (512, 384), (512, 384), (512, 384), (512, 384), (512, 384), (512, 384), (512, 384), (512, 384), (512, 384), (512, 384), (512, 384), (512, 384), (512, 384), (512, 384), (512, 384), (512, 384), (512, 384), (512, 384), (512, 384), (512, 384), (512, 384), (512, 384), (512, 384), (512, 384), (512, 384), (512, 384), (512, 384), (512, 384), (512, 384), (512, 384), (512, 384), (512, 384), (512, 384), (512, 384), (512, 384), (512, 384), (512, 384), (512, 384), (512, 384), (512, 384), (512, 384), (512, 384), (512, 384), (512, 384), (512, 384), (512, 384), (512, 384), (512, 384), (512, 384), (512, 384), (512, 384), (512, 384), (512, 384), (512, 384), (512, 384), (512, 384), (512, 384), (512, 384), (512, 384), (512, 384), (512, 384), (512, 378), (514, 374), (514, 370), (515, 363), (515, 350), (515, 344), (515, 337), (515, 328), (515, 316), (515, 309), (515, 304), (515, 298), (515, 288), (514, 284), (514, 277), (513, 274), (512, 267), (512, 263), (511, 261), (511, 259), (509, 253), (509, 251), (506, 246), (506, 242), (504, 236), (502, 233), (500, 228), (500, 226), (496, 219), (492, 213), (492, 210), (491, 207), (487, 201), (484, 197), (482, 193), (481, 190), (478, 187), (477, 184), (476, 183), (476, 181), (475, 177), (473, 175), (473, 173), (472, 170), (472, 166), (472, 166), (471, 163), (471, 163), (471, 160), (471, 158), (470, 156), (470, 156), (470, 154), (470, 153), (470, 153), (470, 151), (470, 147), (470, 146), (470, 143), (470, 139), (470, 133)]",260.500665,"[5, 9, 1, 7, 4, 2, 8, 6, 3]","(0, 0.25)",ENG005A,ENG,A,Chinese,Wed Aug 15 10:55:52 2018,Mouse
2,0,1,0,3,5,5,1,1374,114,1260,152,0,500,200,8000,"[(512, 384), (512, 384), (512, 384), (512, 384), (512, 384), (512, 384), (512, 384), (512, 384), (512, 384), (512, 384), (512, 384), (511, 386), (511, 386), (510, 386), (510, 386), (510, 386), (509, 386), (509, 386), (509, 386), (509, 386), (509, 386), (509, 386), (509, 386), (509, 386), (509, 386), (509, 386), (509, 386), (509, 386), (509, 386), (509, 386), (509, 386), (509, 386), (509, 386), (509, 386), (509, 386), (509, 386), (509, 386), (509, 386), (509, 386), (509, 386), (509, 386), (509, 386), (509, 386), (509, 386), (509, 386), (509, 386), (509, 386), (509, 386), (509, 386), (509, 386), (509, 386), (509, 386), (509, 386), (509, 386), (509, 386), (509, 386), (509, 386), (509, 386), (509, 386), (509, 386), (509, 386), (509, 386), (509, 386), (509, 386), (509, 386), (509, 386), (509, 386), (509, 386), (509, 386), (509, 386), (509, 386), (509, 386), (509, 386), (509, 386), (509, 386), (508, 386), (508, 384), (508, 382), (508, 378), (511, 366), (512, 360), (514, 353), (516, 349), (518, 336), (518, 333), (520, 330), (520, 328), (520, 326), (521, 325), (521, 325), (521, 325), (521, 325), (521, 325), (521, 325), (521, 325), (521, 325), (521, 325), (521, 325), (521, 325), (521, 325), (521, 325), (521, 325), (521, 325), (521, 325), (522, 325), (522, 325), (522, 327), (523, 332), (524, 337), (526, 343), (528, 350), (533, 366), (535, 371), (539, 379), (543, 383), (548, 392), (550, 397), (551, 399), (552, 402), (558, 412), (564, 419), (568, 425), (573, 431), (585, 443), (593, 448), (599, 452), (606, 455), (617, 462), (623, 464), (629, 468), (637, 471), (651, 478), (663, 483), (675, 486), (686, 490), (714, 497), (726, 500), (741, 501)]",27.06326279,"[5, 9, 1, 7, 4, 2, 8, 6, 3]","(0, 0.25)",ENG005A,ENG,A,Chinese,Wed Aug 15 10:55:52 2018,Mouse
2,0,1,0,4,2,2,1,1002,732,270,151,0,500,200,8000,"[(512, 384), (512, 384), (512, 384), (512, 384), (512, 384), (512, 384), (512, 384), (512, 384), (512, 384), (512, 384), (512, 384), (512, 384), (512, 384), (512, 384), (512, 384), (512, 384), (512, 384), (512, 384), (512, 384), (512, 384), (512, 384), (512, 384), (512, 384), (512, 384), (512, 384), (512, 384), (512, 384), (512, 384), (512, 384), (512, 384), (512, 384), (512, 384), (512, 384), (512, 384), (512, 384), (512, 384), (512, 384), (512, 384), (512, 384), (512, 384), (512, 384), (512, 384), (512, 384), (512, 384), (512, 384), (512, 384), (512, 384), (512, 384), (512, 384), (512, 384), (512, 384), (512, 384), (512, 384), (512, 384), (512, 384), (512, 384), (512, 384), (512, 384), (512, 384), (512, 384), (512, 384), (512, 384), (512, 384), (512, 384), (512, 384), (512, 384), (512, 384), (512, 384), (512, 384), (512, 384), (512, 384), (512, 384), (512, 384), (512, 381), (511, 372), (511, 370), (510, 363), (509, 359), (508, 350), (508, 346), (507, 340), (506, 336), (504, 328), (504, 324), (503, 321), (502, 316), (502, 311), (500, 309), (500, 307), (499, 304), (495, 299), (491, 292), (486, 286), (477, 278), (455, 263), (440, 255), (424, 247), (411, 238), (374, 211), (362, 203), (346, 191)]",229.3010561,"[5, 9, 1, 7, 4, 2, 8, 6, 3]","(0, 0.25)",ENG005A,ENG,A,Chinese,Wed Aug 15 10:55:52 2018,Mouse
2,0,1,0,5,1,1,1,833,543,290,150,0,500,200,8000,"[(512, 384), (512, 384), (512, 384), (512, 384), (512, 384), (512, 384), (512, 384), (512, 384), (512, 384), (512, 384), (512, 384), (512, 384), (512, 384), (512, 384), (512, 384), (512, 384), (512, 384), (512, 384), (512, 384), (512, 384), (512, 384), (512, 384), (512, 384), (512, 384), (512, 384), (512, 384), (512, 384), (512, 384), (512, 384), (512, 384), (512, 384), (512, 384), (512, 384), (512, 384), (512, 384), (512, 384), (512, 384), (512, 384), (512, 384), (512, 384), (512, 384), (512, 384), (512, 384), (512, 384), (512, 384), (512, 384), (512, 384), (512, 384), (512, 384), (512, 384), (512, 384), (512, 384), (512, 384), (512, 384), (512, 389), (511, 391), (510, 396), (509, 399), (507, 406), (507, 409), (506, 413), (506, 417), (504, 429), (504, 436), (502, 444), (501, 453), (499, 469), (497, 477), (496, 485), (496, 493), (494, 511), (494, 518), (494, 526), (494, 533), (494, 547), (492, 555), (491, 563), (490, 571), (486, 589), (485, 597), (484, 604), (484, 610), (481, 627), (480, 635)]",97.2654469,"[5, 9, 1, 7, 4, 2, 8, 6, 3]","(0, 0.25)",ENG005A,ENG,A,Chinese,Wed Aug 15 10:55:52 2018,Mouse
2,0,1,0,6,4,4,1,1276,1106,170,149,0,500,200,8000,"[(512, 384), (512, 384), (512, 384), (512, 384), (512, 384), (512, 384), (512, 384), (512, 384), (512, 384), (512, 384), (512, 384), (512, 384), (512, 384), (512, 384), (512, 384), (512, 384), (512, 384), (512, 384), (512, 384), (512, 384), (512, 384), (512, 384), (512, 384), (512, 384), (512, 384), (512, 384), (512, 384), (512, 384), (512, 384), (512, 384), (512, 384), (512, 384), (512, 384), (512, 384), (512, 384), (512, 384), (512, 384), (512, 384), (512, 384), (512, 384), (512, 384), (512, 384), (512, 384), (512, 384), (512, 384), (512, 384), (512, 384), (512, 384), (512, 384), (512, 384), (512, 384), (512, 384), (512, 384), (512, 384), (512, 384), (512, 384), (512, 384), (512, 384), (512, 384), (512, 384), (512, 384), (512, 384), (512, 384), (512, 384), (512, 384), (512, 384), (512, 384), (512, 384), (512, 384), (512, 384), (512, 384), (512, 384), (512, 384), (512, 384), (512, 384), (512, 384), (512, 384), (512, 384), (512, 384), (512, 384), (512, 384), (512, 384), (512, 384), (512, 384), (512, 384), (512, 384), (512, 384), (512, 384), (512, 384), (512, 384), (512, 384), (512, 384), (512, 384), (512, 384), (512, 384), (512, 384), (512, 384), (512, 384), (512, 384), (512, 384), (512, 384), (512, 384), (512, 384), (512, 384), (512, 384), (512, 384), (512, 384), (512, 384), (512, 384), (512, 384), (509, 383), (508, 383), (505, 383), (502, 383), (485, 383), (471, 383), (455, 383), (435, 383), (403, 383), (390, 383), (377, 383), (365, 383), (341, 383), (328, 383), (318, 383), (304, 383), (274, 383), (262, 383)]",180.2291819,"[5, 9, 1, 7, 4, 2, 8, 6, 3]","(0, 0.25)",ENG005A,ENG,A,Chinese,Wed Aug 15 10:55:52 2018,Mouse
2,0,1,0,7,7,7,1,971,671,300,148,0,500,200,8000,"[(512, 384), (512, 384), (512, 384), (512, 384), (512, 384), (512, 384), (512, 384), (512, 384), (512, 384), (512, 384), (512, 384), (512, 384), (512, 384), (512, 384), (512, 384), (512, 384), (512, 384), (512, 384), (512, 384), (512, 384), (512, 384), (512, 384), (512, 384), (512, 384), (512, 384), (512, 384), (512, 384), (512, 384), (512, 384), (512, 384), (512, 384), (512, 384), (512, 384), (512, 384), (512, 384), (512, 384), (512, 384), (512, 384), (512, 384), (512, 384), (512, 384), (512, 384), (512, 384), (512, 384), (512, 384), (512, 384), (512, 384), (512, 384), (512, 384), (512, 384), (512, 384), (512, 384), (512, 384), (512, 384), (512, 384), (512, 384), (512, 384), (512, 384), (512, 384), (512, 384), (512, 384), (512, 384), (512, 384), (512, 384), (512, 384), (512, 384), (512, 384), (512, 386), (512, 387), (511, 389), (510, 391), (509, 393), (507, 394), (507, 395), (507, 396), (504, 398), (503, 399), (500, 401), (498, 402), (490, 409), (484, 412), (476, 416), (470, 420), (451, 430), (441, 436), (434, 439), (424, 443), (407, 452), (398, 458), (387, 463), (375, 470), (355, 484), (344, 493), (337, 501), (326, 510), (314, 522), (309, 528), (304, 534)]",144.202597,"[5, 9, 1, 7, 4, 2, 8, 6, 3]","(0, 0.25)",ENG005A,ENG,A,Chinese,Wed Aug 15 10:55:52 2018,Mouse
2,0,1,0,8,5,5,1,818,618,200,147,0,500,200,8000,"[(512, 384), (512, 384), (512, 384), (512, 384), (512, 384), (512, 384), (512, 384), (512, 384), (512, 384), (512, 384), (512, 384), (512, 384), (512, 384), (512, 384), (512, 384), (512, 384), (512, 384), (512, 384), (512, 384), (512, 384), (512, 384), (512, 384), (512, 384), (512, 384), (512, 384), (512, 384), (512, 384), (512, 384), (512, 384), (512, 384), (512, 384), (512, 384), (512, 384), (512, 384), (512, 384), (512, 384), (512, 384), (512, 384), (512, 384), (512, 384), (512, 384), (512, 384), (512, 384), (512, 384), (512, 384), (512, 384), (512, 384), (512, 384), (512, 384), (512, 384), (512, 384), (512, 384), (512, 384), (512, 384), (512, 384), (512, 384), (512, 384), (512, 384), (512, 384), (512, 384), (512, 384), (521, 384), (536, 384), (551, 385), (581, 392), (595, 396), (607, 397), (616, 400), (631, 405), (635, 406), (639, 407), (642, 408), (649, 410), (655, 413), (663, 416), (670, 419), (694, 427), (708, 432), (719, 434), (733, 439), (751, 449), (759, 451)]",15.17657759,"[5, 9, 1, 7, 4, 2, 8, 6, 3]","(0, 0.25)",ENG005A,ENG,A,Chinese,Wed Aug 15 10:55:52 2018,Mouse
2,0,1,0,9,4,4,1,1042,802,240,146,0,500,200,8000,"[(512, 384), (512, 384), (512, 384), (512, 384), (512, 384), (512, 384), (512, 384), (512, 384), (512, 384), (512, 384), (512, 384), (512, 384), (512, 384), (512, 384), (512, 384), (512, 384), (512, 384), (512, 384), (512, 384), (512, 384), (512, 384), (512, 384), (512, 384), (512, 384), (512, 384), (512, 384), (512, 384), (512, 384), (512, 384), (512, 384), (512, 384), (512, 384), (512, 384), (512, 384), (512, 384), (512, 384), (512, 384), (512, 384), (512, 384), (512, 384), (512, 384), (512, 384), (512, 384), (512, 384), (512, 384), (512, 384), (512, 384), (512, 384), (512, 384), (512, 384), (512, 384), (512, 384), (512, 384), (512, 384), (512, 384), (512, 384), (512, 384), (512, 384), (512, 384), (512, 384), (512, 384), (512, 384), (512, 384), (512, 384), (512, 384), (512, 384), (512, 384), (512, 384), (512, 384), (512, 384), (512, 384), (512, 384), (512, 384), (512, 384), (512, 384), (512, 384), (512, 384), (512, 384), (512, 384), (512, 384), (511, 385), (511, 385), (511, 385), (508, 386), (507, 386), (504, 387), (500, 388), (491, 390), (485, 392), (477, 394), (468, 396), (444, 400), (431, 401), (420, 404), (408, 404), (389, 404), (379, 404), (370, 404), (360, 404), (338, 404), (326, 404), (311, 404), (298, 404), (271, 404), (256, 404)]",175.5328409,"[5, 9, 1, 7, 4, 2, 8, 6, 3]","(0, 0.25)",ENG005A,ENG,A,Chinese,Wed Aug 15 10:55:52 2018,Mouse
2,0,1,0,10,3,3,1,1107,317,790,145,0,500,200,8000,"[(512, 384), (512, 384), (512, 384), (512, 384), (512, 384), (512, 384), (512, 384), (512, 384), (512, 384), (512, 384), (512, 384), (512, 384), (512, 384), (512, 384), (512, 384), (512, 384), (512, 384), (512, 384), (512, 384), (512, 384), (512, 384), (512, 384), (512, 384), (512, 384), (512, 384), (512, 384), (512, 384), (512, 384), (512, 384), (512, 384), (512, 384), (512, 385), (512, 386), (512, 387), (512, 388), (512, 388), (512, 388), (512, 388), (512, 388), (512, 388), (512, 388), (512, 388), (512, 390), (512, 390), (512, 390), (512, 390), (512, 391), (512, 391), (512, 391), (512, 391), (512, 391), (512, 391), (512, 391), (512, 391), (512, 391), (512, 391), (512, 391), (512, 391), (512, 391), (512, 391), (512, 391), (512, 391), (512, 391), (512, 391), (512, 391), (512, 391), (512, 391), (512, 391), (512, 391), (512, 391), (512, 391), (512, 391), (512, 391), (512, 391), (512, 391), (512, 391), (512, 391), (512, 391), (519, 391), (526, 391), (529, 390), (535, 389), (546, 386), (552, 385), (558, 384), (564, 381), (575, 376), (579, 374), (585, 371), (591, 369), (599, 365), (603, 364), (607, 361), (613, 359), (624, 354), (630, 350), (637, 347), (645, 344), (658, 336), (666, 331), (674, 328), (682, 325), (696, 321), (702, 320), (708, 318), (715, 316), (724, 313), (729, 311), (733, 310), (739, 309), (751, 305)]",341.7090101,"[5, 9, 1, 7, 4, 2, 8, 6, 3]","(0, 0.25)",ENG005A,ENG,A,Chinese,Wed Aug 15 10:55:52 2018,Mouse
2,0,1,0,11,6,6,1,1753,1483,270,144,0,500,200,8000,"[(512, 384), (512, 384), (512, 384), (512, 384), (512, 384), (512, 384), (512, 384), (512, 384), (512, 384), (512, 384), (512, 384), (512, 384), (512, 384), (512, 384), (512, 384), (512, 384), (512, 384), (512, 384), (512, 384), (512, 384), (512, 384), (512, 384), (512, 384), (512, 384), (512, 384), (512, 384), (512, 384), (512, 384), (512, 384), (512, 384), (512, 384), (512, 384), (512, 384), (512, 384), (512, 384), (512, 384), (512, 384), (512, 384), (512, 384), (512, 384), (512, 384), (512, 384), (512, 384), (512, 384), (512, 384), (512, 384), (512, 384), (512, 384), (512, 384), (512, 384), (512, 384), (512, 384), (512, 384), (512, 384), (512, 384), (512, 384), (512, 384), (512, 384), (512, 384), (512, 384), (512, 384), (512, 384), (512, 384), (512, 384), (512, 384), (512, 384), (512, 384), (512, 384), (512, 384), (512, 384), (512, 384), (512, 384), (512, 384), (512, 384), (512, 384), (512, 384), (512, 384), (512, 384), (512, 384), (512, 384), (512, 384), (512, 384), (512, 384), (512, 384), (512, 384), (512, 384), (512, 384), (512, 384), (512, 384), (512, 384), (512, 384), (512, 384), (512, 384), (512, 384), (512, 384), (512, 384), (512, 384), (512, 384), (512, 384), (512, 384), (512, 384), (512, 384), (512, 384), (512, 384), (512, 384), (512, 384), (512, 384), (512, 384), (512, 384), (512, 384), (512, 384), (512, 384), (512, 384), (512, 384), (512, 384), (512, 384), (512, 384), (512, 384), (512, 384), (512, 384), (512, 384), (512, 384), (512, 384), (512, 384), (512, 384), (512, 384), (512, 384), (512, 384), (512, 384), (512, 384), (512, 384), (512, 384), (512, 384), (512, 384), (512, 384), (512, 384), (512, 384), (512, 384), (512, 384), (512, 384), (512, 384), (512, 384), (512, 384), (512, 384), (512, 384), (512, 384), (512, 384), (512, 384), (510, 384), (506, 379), (503, 374), (501, 371), (499, 368), (497, 364), (496, 363), (495, 362), (495, 361), (495, 359), (495, 355), (495, 351), (495, 338), (495, 330), (495, 322), (496, 311), (498, 294), (500, 284), (501, 273), (504, 262), (512, 234), (518, 221), (529, 204), (536, 191), (553, 166), (558, 156), (567, 144), (575, 134)]",284.1440435,"[5, 9, 1, 7, 4, 2, 8, 6, 3]","(0, 0.25)",ENG005A,ENG,A,Chinese,Wed Aug 15 10:55:52 2018,Mouse
2,0,1,0,12,4,4,1,551,461,90,143,0,500,200,8000,"[(512, 384), (512, 384), (512, 384), (512, 384), (512, 384), (512, 384), (512, 384), (512, 384), (512, 384), (512, 384), (512, 384), (512, 384), (512, 384), (512, 384), (512, 384), (512, 384), (512, 384), (512, 384), (512, 384), (512, 384), (512, 384), (512, 384), (512, 384), (512, 384), (512, 384), (512, 384), (512, 384), (512, 384), (512, 384), (512, 384), (512, 384), (512, 384), (512, 384), (512, 384), (512, 384), (512, 384), (512, 384), (512, 384), (512, 384), (512, 384), (512, 384), (512, 384), (512, 384), (512, 384), (512, 384), (512, 384), (509, 386), (504, 386), (493, 387), (461, 392), (436, 392), (408, 392), (383, 392), (310, 392), (274, 392), (244, 392)]",178.290186,"[5, 9, 1, 7, 4, 2, 8, 6, 3]","(0, 0.25)",ENG005A,ENG,A,Chinese,Wed Aug 15 10:55:52 2018,Mouse
2,0,1,0,13,4,4,1,746,486,260,142,0,500,200,8000,"[(512, 384), (512, 384), (512, 384), (512, 384), (512, 384), (512, 384), (512, 384), (512, 384), (512, 384), (512, 384), (512, 384), (512, 384), (512, 384), (512, 384), (512, 384), (512, 384), (512, 384), (512, 384), (512, 384), (512, 384), (512, 384), (512, 384), (512, 384), (512, 384), (512, 384), (512, 384), (512, 384), (512, 384), (512, 384), (512, 384), (512, 384), (512, 384), (512, 384), (512, 384), (512, 384), (512, 384), (512, 384), (512, 384), (512, 384), (512, 384), (512, 384), (512, 384), (512, 384), (512, 384), (512, 384), (512, 384), (512, 384), (512, 384), (513, 384), (513, 384), (506, 383), (497, 383), (484, 381), (457, 381), (446, 381), (438, 380), (431, 380), (417, 380), (410, 380), (405, 380), (397, 380), (385, 380), (377, 380), (370, 379), (363, 379), (347, 379), (339, 379), (329, 379), (321, 379), (304, 379), (298, 379), (289, 379), (281, 379), (269, 379), (259, 379)]",181.1321803,"[5, 9, 1, 7, 4, 2, 8, 6, 3]","(0, 0.25)",ENG005A,ENG,A,Chinese,Wed Aug 15 10:55:52 2018,Mouse
2,0,1,0,14,8,8,1,1292,1022,270,141,0,500,200,8000,"[(512, 384), (512, 384), (512, 384), (512, 384), (512, 384), (512, 384), (512, 384), (512, 384), (512, 384), (512, 384), (512, 384), (512, 384), (512, 384), (512, 384), (512, 384), (512, 384), (512, 384), (512, 384), (512, 384), (512, 384), (512, 384), (512, 384), (512, 384), (512, 384), (512, 384), (512, 384), (512, 384), (512, 384), (512, 384), (512, 384), (512, 384), (512, 384), (512, 384), (512, 384), (512, 384), (512, 384), (512, 384), (512, 384), (512, 384), (512, 384), (512, 384), (512, 384), (512, 384), (512, 384), (512, 384), (512, 384), (512, 384), (512, 384), (512, 384), (512, 384), (512, 384), (512, 384), (512, 384), (512, 384), (512, 384), (512, 384), (512, 384), (512, 384), (512, 384), (512, 384), (512, 384), (512, 384), (512, 384), (512, 384), (512, 384), (512, 384), (512, 384), (512, 384), (512, 384), (512, 384), (512, 384), (512, 384), (512, 384), (512, 384), (512, 384), (512, 384), (512, 384), (512, 384), (512, 384), (512, 384), (512, 384), (512, 384), (512, 384), (512, 384), (512, 384), (512, 384), (512, 384), (512, 384), (512, 384), (512, 384), (512, 384), (512, 384), (512, 384), (512, 384), (512, 384), (512, 384), (512, 384), (512, 384), (512, 384), (512, 384), (512, 384), (512, 384), (513, 380), (513, 365), (513, 357), (513, 348), (513, 338), (513, 323), (513, 315), (513, 309), (513, 300), (513, 287), (513, 278), (513, 269), (513, 262), (511, 247), (510, 240), (508, 232), (508, 226), (505, 212), (505, 208), (503, 200), (502, 193), (499, 184), (497, 177), (494, 169), (492, 161), (485, 147), (483, 142), (480, 136)]",262.6476206,"[5, 9, 1, 7, 4, 2, 8, 6, 3]","(0, 0.25)",ENG005A,ENG,A,Chinese,Wed Aug 15 10:55:52 2018,Mouse
2,0,1,0,15,1,1,1,871,491,380,140,0,500,200,8000,"[(512, 384), (512, 384), (512, 384), (512, 384), (512, 384), (512, 384), (512, 384), (512, 384), (512, 384), (512, 384), (512, 384), (512, 384), (512, 384), (512, 384), (512, 384), (512, 384), (512, 384), (512, 384), (512, 384), (512, 384), (512, 384), (512, 384), (512, 384), (512, 384), (512, 384), (512, 384), (512, 384), (512, 384), (512, 384), (512, 384), (512, 384), (512, 384), (512, 384), (512, 384), (512, 384), (512, 384), (512, 384), (512, 384), (512, 384), (512, 384), (512, 384), (512, 384), (512, 384), (512, 384), (512, 384), (512, 384), (512, 384), (512, 384), (512, 384), (512, 385), (511, 388), (511, 390), (510, 392), (509, 393), (508, 397), (507, 398), (505, 400), (505, 401), (503, 404), (502, 407), (500, 409), (500, 411), (494, 418), (490, 423), (488, 427), (486, 431), (482, 439), (481, 445), (479, 449), (478, 454), (477, 467), (475, 474), (474, 482), (474, 491), (474, 507), (474, 513), (474, 520), (474, 525), (474, 539), (474, 548), (474, 555), (474, 565), (474, 583), (474, 592), (474, 602), (474, 609), (469, 628), (467, 637)]",100.0854763,"[5, 9, 1, 7, 4, 2, 8, 6, 3]","(0, 0.25)",ENG005A,ENG,A,Chinese,Wed Aug 15 10:55:52 2018,Mouse
2,0,1,0,16,1,1,1,653,433,220,139,0,500,200,8000,"[(512, 384), (512, 384), (512, 384), (512, 384), (512, 384), (512, 384), (512, 384), (512, 384), (512, 384), (512, 384), (512, 384), (512, 384), (512, 384), (512, 384), (512, 384), (512, 384), (512, 384), (512, 384), (512, 384), (512, 384), (512, 384), (512, 384), (512, 384), (512, 384), (512, 384), (512, 384), (512, 384), (512, 384), (512, 384), (512, 384), (512, 384), (512, 384), (512, 384), (512, 384), (512, 384), (512, 384), (512, 384), (512, 384), (512, 384), (512, 384), (512, 384), (512, 384), (512, 384), (512, 391), (509, 401), (507, 411), (504, 421), (502, 439), (502, 448), (502, 458), (502, 469), (499, 493), (499, 503), (499, 513), (499, 523), (497, 540), (496, 549), (494, 556), (493, 564), (489, 580), (488, 588), (488, 598), (485, 608), (480, 623), (477, 629), (475, 638)]",98.28794157,"[5, 9, 1, 7, 4, 2, 8, 6, 3]","(0, 0.25)",ENG005A,ENG,A,Chinese,Wed Aug 15 10:55:52 2018,Mouse
2,0,1,0,17,7,7,1,835,465,370,138,0,500,200,8000,"[(512, 384), (512, 384), (512, 384), (512, 384), (512, 384), (512, 384), (512, 384), (512, 384), (512, 384), (512, 384), (512, 384), (512, 384), (512, 384), (512, 384), (512, 384), (512, 384), (512, 384), (512, 384), (512, 384), (512, 384), (512, 384), (512, 384), (512, 384), (512, 384), (512, 384), (512, 384), (512, 384), (512, 384), (512, 384), (512, 384), (512, 384), (512, 384), (512, 384), (512, 384), (512, 384), (512, 384), (512, 384), (512, 384), (512, 384), (512, 384), (512, 384), (512, 384), (512, 384), (512, 384), (512, 384), (512, 384), (512, 385), (511, 387), (510, 388), (509, 390), (509, 393), (509, 393), (508, 393), (507, 394), (505, 395), (503, 396), (501, 400), (497, 407), (495, 411), (491, 416), (487, 421), (477, 430), (471, 433), (466, 437), (460, 443), (446, 451), (440, 457), (431, 462), (425, 466), (412, 475), (408, 478), (404, 481), (400, 487), (387, 498), (379, 503), (371, 509), (362, 513), (350, 522), (346, 524), (342, 528), (335, 532), (325, 538), (320, 540), (312, 544)]",141.3401917,"[5, 9, 1, 7, 4, 2, 8, 6, 3]","(0, 0.25)",ENG005A,ENG,A,Chinese,Wed Aug 15 10:55:52 2018,Mouse
2,0,1,0,18,5,4,0,-1433,1234,199,137,0,500,200,8000,"[(512, 384), (512, 384), (512, 384), (512, 384), (512, 384), (512, 384), (512, 384), (512, 384), (512, 384), (512, 384), (512, 384), (512, 384), (512, 384), (512, 384), (512, 384), (512, 384), (512, 384), (512, 384), (512, 384), (512, 384), (512, 384), (512, 384), (512, 384), (512, 384), (512, 384), (512, 384), (512, 384), (512, 384), (512, 384), (512, 384), (512, 384), (512, 384), (512, 384), (512, 384), (512, 384), (512, 384), (512, 384), (512, 384), (512, 384), (512, 384), (512, 384), (512, 384), (512, 384), (512, 384), (512, 384), (512, 384), (512, 384), (512, 384), (512, 384), (512, 384), (512, 384), (512, 384), (512, 384), (512, 384), (512, 384), (512, 384), (512, 384), (512, 384), (512, 384), (512, 384), (512, 384), (512, 384), (512, 384), (512, 384), (512, 384), (512, 384), (512, 384), (512, 384), (512, 384), (512, 384), (512, 384), (512, 384), (512, 384), (512, 384), (512, 384), (512, 384), (512, 384), (512, 384), (512, 384), (512, 384), (512, 384), (512, 384), (512, 384), (512, 384), (512, 384), (512, 384), (512, 384), (512, 384), (512, 384), (512, 384), (512, 384), (512, 384), (512, 384), (512, 384), (512, 384), (512, 384), (512, 384), (512, 384), (512, 384), (512, 384), (512, 384), (512, 384), (512, 384), (512, 384), (512, 384), (512, 384), (512, 384), (512, 384), (512, 384), (512, 384), (512, 384), (512, 384), (512, 384), (512, 384), (512, 384), (512, 384), (512, 384), (512, 384), (512, 384), (512, 384), (512, 384), (512, 384), (512, 384), (509, 384), (501, 384), (484, 384), (473, 384), (462, 384), (449, 384), (424, 384), (416, 384), (405, 384), (393, 384), (369, 384), (356, 384), (346, 384), (333, 384), (313, 384), (303, 384), (296, 384), (288, 384), (273, 384), (265, 384), (257, 384)]",180,"[5, 9, 1, 7, 4, 2, 8, 6, 3]","(0, 0.25)",ENG005A,ENG,A,Chinese,Wed Aug 15 10:55:52 2018,Mouse
2,0,1,0,19,5,5,1,745,475,270,138,0,500,200,8000,"[(512, 384), (512, 384), (512, 384), (512, 384), (512, 384), (512, 384), (512, 384), (512, 384), (512, 384), (512, 384), (512, 384), (512, 384), (512, 384), (512, 384), (512, 384), (512, 384), (512, 384), (512, 384), (512, 384), (512, 384), (512, 384), (512, 384), (512, 384), (512, 384), (512, 384), (512, 384), (512, 384), (512, 384), (512, 384), (512, 384), (512, 384), (512, 384), (512, 384), (512, 384), (512, 384), (512, 384), (512, 384), (512, 384), (512, 384), (512, 384), (512, 384), (512, 384), (512, 384), (512, 384), (512, 384), (512, 384), (512, 384), (514, 384), (517, 384), (524, 383), (527, 383), (531, 383), (534, 383), (545, 386), (555, 389), (568, 394), (578, 396), (597, 401), (606, 406), (616, 410), (625, 413), (638, 422), (646, 423), (651, 424), (657, 427), (665, 428), (669, 430), (674, 431), (678, 433), (691, 437), (700, 438), (708, 441), (718, 443), (742, 451), (753, 453)]",15.97679085,"[5, 9, 1, 7, 4, 2, 8, 6, 3]","(0, 0.25)",ENG005A,ENG,A,Chinese,Wed Aug 15 10:55:52 2018,Mouse
2,0,1,0,20,2,2,1,954,714,240,138,0,500,200,8000,"[(512, 384), (512, 384), (512, 384), (512, 384), (512, 384), (512, 384), (512, 384), (512, 384), (512, 384), (512, 384), (512, 384), (512, 384), (512, 384), (512, 384), (512, 384), (512, 384), (512, 384), (512, 384), (512, 384), (512, 384), (512, 384), (512, 384), (512, 384), (512, 384), (512, 384), (512, 384), (512, 384), (512, 384), (512, 384), (512, 384), (512, 384), (512, 384), (512, 384), (512, 384), (512, 384), (512, 384), (512, 384), (512, 384), (512, 384), (512, 384), (512, 384), (512, 384), (512, 384), (512, 384), (512, 384), (512, 384), (512, 384), (512, 384), (512, 384), (512, 384), (512, 384), (512, 384), (512, 384), (512, 384), (512, 384), (512, 384), (512, 384), (512, 384), (512, 384), (512, 384), (512, 384), (512, 384), (512, 384), (512, 384), (512, 384), (512, 384), (512, 384), (512, 384), (512, 384), (512, 384), (512, 384), (507, 380), (502, 375), (493, 367), (467, 351), (455, 344), (444, 340), (432, 332), (413, 321), (406, 315), (398, 309), (392, 304), (378, 294), (374, 291), (369, 288), (366, 287), (361, 284), (357, 281), (356, 280), (355, 277), (349, 269), (344, 263), (337, 258), (331, 252), (316, 238), (310, 231)]",217.1412253,"[5, 9, 1, 7, 4, 2, 8, 6, 3]","(0, 0.25)",ENG005A,ENG,A,Chinese,Wed Aug 15 10:55:52 2018,Mouse
2,0,1,0,21,4,4,1,958,427,531,137,0,500,200,8000,"[(512, 384), (512, 384), (512, 384), (512, 384), (512, 384), (512, 384), (512, 384), (512, 384), (512, 384), (512, 384), (512, 384), (512, 384), (512, 384), (512, 384), (512, 384), (512, 384), (512, 384), (512, 384), (512, 384), (512, 384), (512, 384), (512, 384), (512, 384), (512, 384), (512, 384), (512, 384), (512, 384), (512, 384), (512, 384), (512, 384), (512, 384), (512, 384), (512, 384), (512, 384), (512, 384), (512, 384), (512, 384), (512, 384), (512, 384), (512, 384), (512, 384), (512, 384), (512, 387), (512, 389), (513, 391), (514, 393), (514, 396), (514, 396), (515, 397), (516, 399), (516, 399), (516, 400), (516, 400), (516, 400), (516, 400), (516, 401), (516, 401), (516, 401), (516, 401), (516, 401), (516, 402), (516, 402), (516, 403), (516, 403), (516, 403), (516, 403), (516, 403), (516, 403), (516, 403), (516, 403), (516, 403), (516, 404), (516, 404), (516, 406), (514, 407), (513, 407), (511, 407), (508, 409), (502, 410), (498, 411), (495, 413), (488, 414), (468, 415), (457, 415), (445, 415), (429, 415), (392, 415), (377, 415), (364, 415), (350, 415), (328, 415), (319, 415), (308, 415), (297, 415), (269, 415), (257, 415)]",173.0686432,"[5, 9, 1, 7, 4, 2, 8, 6, 3]","(0, 0.25)",ENG005A,ENG,A,Chinese,Wed Aug 15 10:55:52 2018,Mouse
2,0,1,0,22,3,3,1,711,391,320,136,0,500,200,8000,"[(512, 384), (512, 384), (512, 384), (512, 384), (512, 384), (512, 384), (512, 384), (512, 384), (512, 384), (512, 384), (512, 384), (512, 384), (512, 384), (512, 384), (512, 384), (512, 384), (512, 384), (512, 384), (512, 384), (512, 384), (512, 384), (512, 384), (512, 384), (512, 384), (512, 384), (512, 384), (512, 384), (512, 384), (512, 384), (512, 384), (512, 384), (512, 384), (512, 384), (512, 384), (512, 384), (512, 384), (512, 384), (512, 384), (512, 384), (513, 384), (513, 384), (513, 384), (513, 384), (514, 384), (514, 384), (514, 384), (516, 384), (518, 384), (519, 384), (521, 384), (523, 383), (525, 382), (525, 382), (527, 381), (530, 380), (537, 379), (542, 379), (547, 378), (556, 377), (574, 373), (586, 372), (596, 371), (608, 369), (632, 366), (644, 363), (657, 362), (672, 360), (701, 355), (716, 354), (731, 352), (750, 349), (782, 348)]",352.4053566,"[5, 9, 1, 7, 4, 2, 8, 6, 3]","(0, 0.25)",ENG005A,ENG,A,Chinese,Wed Aug 15 10:55:52 2018,Mouse
2,0,1,0,23,3,9,0,-741,461,280,135,0,500,200,8000,"[(512, 384), (512, 384), (512, 384), (512, 384), (512, 384), (512, 384), (512, 384), (512, 384), (512, 384), (512, 384), (512, 384), (512, 384), (512, 384), (512, 384), (512, 384), (512, 384), (512, 384), (512, 384), (512, 384), (512, 384), (512, 384), (512, 384), (512, 384), (512, 384), (512, 384), (512, 384), (512, 384), (512, 384), (512, 384), (512, 384), (512, 384), (512, 384), (512, 384), (512, 384), (512, 384), (512, 384), (512, 384), (512, 384), (512, 384), (512, 384), (512, 384), (512, 384), (512, 384), (512, 384), (512, 384), (512, 384), (511, 385), (511, 386), (511, 391), (511, 394), (511, 398), (511, 404), (519, 417), (525, 424), (529, 431), (534, 440), (544, 455), (547, 463), (551, 467), (556, 474), (566, 487), (571, 495), (577, 504), (582, 511), (589, 531), (592, 541), (595, 552), (598, 561), (605, 575), (608, 580), (609, 584), (611, 588), (615, 599), (619, 605), (623, 615)]",64.33480854,"[5, 9, 1, 7, 4, 2, 8, 6, 3]","(0, 0.25)",ENG005A,ENG,A,Chinese,Wed Aug 15 10:55:52 2018,Mouse
2,0,1,0,24,8,2,0,-884,414,470,136,0,500,200,8000,"[(512, 384), (512, 384), (512, 384), (512, 384), (512, 384), (512, 384), (512, 384), (512, 384), (512, 384), (512, 384), (512, 384), (512, 384), (512, 384), (512, 384), (512, 384), (512, 384), (512, 384), (512, 384), (512, 384), (512, 384), (512, 384), (512, 384), (512, 384), (512, 384), (512, 384), (512, 384), (512, 384), (512, 384), (512, 384), (512, 384), (512, 384), (512, 384), (512, 384), (512, 384), (512, 384), (512, 384), (512, 384), (512, 384), (512, 384), (512, 384), (512, 384), (515, 384), (516, 384), (517, 384), (517, 384), (517, 384), (517, 384), (517, 384), (517, 384), (517, 384), (517, 384), (517, 384), (517, 384), (517, 384), (517, 384), (517, 384), (517, 384), (517, 384), (517, 384), (517, 384), (517, 384), (517, 384), (517, 384), (517, 384), (518, 383), (517, 380), (516, 378), (515, 376), (513, 373), (509, 367), (504, 362), (500, 359), (496, 353), (484, 344), (477, 340), (470, 336), (463, 333), (446, 323), (438, 319), (425, 312), (415, 307), (389, 296), (378, 290), (366, 283), (356, 277), (331, 262), (321, 256), (312, 250), (302, 243)]",213.8785398,"[5, 9, 1, 7, 4, 2, 8, 6, 3]","(0, 0.25)",ENG005A,ENG,A,Chinese,Wed Aug 15 10:55:52 2018,Mouse
2,0,1,0,25,9,2,0,-812,632,180,137,0,500,200,8000,"[(512, 384), (512, 384), (512, 384), (512, 384), (512, 384), (512, 384), (512, 384), (512, 384), (512, 384), (512, 384), (512, 384), (512, 384), (512, 384), (512, 384), (512, 384), (512, 384), (512, 384), (512, 384), (512, 384), (512, 384), (512, 384), (512, 384), (512, 384), (512, 384), (512, 384), (512, 384), (512, 384), (512, 384), (512, 384), (512, 384), (512, 384), (512, 384), (512, 384), (512, 384), (512, 384), (512, 384), (512, 384), (512, 384), (512, 384), (512, 384), (512, 384), (512, 384), (512, 384), (512, 384), (512, 384), (512, 384), (512, 384), (512, 384), (512, 384), (512, 384), (512, 384), (512, 384), (512, 384), (512, 384), (512, 384), (512, 384), (512, 384), (512, 384), (512, 384), (512, 384), (512, 384), (512, 384), (512, 384), (510, 384), (506, 383), (503, 381), (499, 378), (492, 372), (484, 368), (471, 357), (463, 352), (453, 346), (444, 341), (424, 329), (412, 319), (403, 312), (394, 306), (374, 290), (361, 281), (338, 265), (321, 252), (285, 229)]",214.3260188,"[5, 9, 1, 7, 4, 2, 8, 6, 3]","(0, 0.25)",ENG005A,ENG,A,Chinese,Wed Aug 15 10:55:52 2018,Mouse
2,0,1,0,26,8,8,1,1706,566,1140,138,0,500,200,8000,"[(512, 384), (512, 384), (512, 384), (512, 384), (512, 384), (512, 384), (512, 384), (512, 384), (512, 384), (512, 384), (512, 384), (512, 384), (512, 384), (512, 384), (512, 384), (512, 384), (512, 384), (512, 384), (512, 384), (512, 384), (512, 384), (512, 384), (512, 384), (512, 384), (512, 384), (512, 384), (512, 384), (512, 384), (512, 384), (512, 384), (512, 384), (512, 384), (512, 384), (512, 384), (512, 384), (512, 384), (512, 384), (512, 384), (512, 384), (512, 384), (512, 384), (512, 384), (512, 384), (512, 384), (512, 384), (512, 384), (512, 384), (512, 384), (512, 384), (512, 384), (512, 384), (512, 384), (512, 384), (512, 384), (512, 384), (512, 384), (511, 385), (511, 385), (511, 385), (511, 385), (511, 385), (511, 385), (511, 385), (511, 385), (511, 385), (511, 385), (511, 385), (511, 385), (511, 385), (511, 387), (511, 387), (511, 389), (511, 390), (511, 391), (513, 394), (515, 400), (517, 402), (520, 408), (522, 411), (529, 422), (531, 426), (535, 431), (536, 434), (539, 443), (541, 448), (544, 452), (549, 459), (556, 467), (559, 470), (562, 473), (563, 474), (563, 475), (563, 475), (563, 475), (563, 475), (563, 475), (563, 475), (563, 475), (563, 475), (563, 475), (563, 475), (563, 475), (563, 475), (563, 475), (563, 475), (563, 475), (563, 475), (565, 475), (565, 475), (566, 474), (566, 474), (568, 470), (569, 470), (570, 467), (572, 464), (576, 459), (576, 459), (577, 457), (577, 456), (578, 454), (579, 453), (579, 452), (579, 452), (579, 451), (579, 451), (579, 451), (579, 450), (580, 450), (580, 450), (580, 449), (580, 448), (580, 445), (579, 443), (579, 443), (579, 440), (577, 434), (577, 431), (576, 427), (576, 423), (576, 417), (576, 415), (575, 411), (573, 408), (572, 403), (571, 399), (569, 396), (566, 390), (559, 378), (553, 367), (548, 357), (541, 346), (526, 320), (519, 308), (510, 291), (502, 273), (489, 245), (484, 232), (478, 222), (474, 211), (466, 195), (464, 191), (463, 187), (463, 181), (462, 172), (462, 168), (462, 164), (462, 161), (460, 151), (460, 145), (460, 140), (460, 134)]",258.2500164,"[5, 9, 1, 7, 4, 2, 8, 6, 3]","(0, 0.25)",ENG005A,ENG,A,Chinese,Wed Aug 15 10:55:52 2018,Mouse
2,0,1,0,27,6,8,0,-1133,913,220,138,0,500,200,8000,"[(512, 384), (512, 384), (512, 384), (512, 384), (512, 384), (512, 384), (512, 384), (512, 384), (512, 384), (512, 384), (512, 384), (512, 384), (512, 384), (512, 384), (512, 384), (512, 384), (512, 384), (512, 384), (512, 384), (512, 384), (512, 384), (512, 384), (512, 384), (512, 384), (512, 384), (512, 384), (512, 384), (512, 384), (512, 384), (512, 384), (512, 384), (512, 384), (512, 384), (512, 384), (512, 384), (512, 384), (512, 384), (512, 384), (512, 384), (512, 384), (512, 384), (512, 384), (512, 384), (512, 384), (512, 384), (512, 384), (512, 384), (512, 384), (512, 384), (512, 384), (512, 384), (512, 384), (512, 384), (512, 384), (512, 384), (512, 384), (512, 384), (512, 384), (512, 384), (512, 384), (512, 384), (512, 384), (512, 384), (512, 384), (512, 384), (512, 384), (512, 384), (512, 384), (512, 384), (512, 384), (512, 384), (512, 384), (512, 384), (512, 384), (512, 384), (512, 384), (512, 384), (512, 384), (512, 384), (512, 384), (512, 384), (512, 384), (512, 384), (512, 384), (512, 384), (512, 384), (512, 384), (512, 384), (512, 384), (512, 384), (512, 384), (510, 377), (507, 369), (503, 354), (501, 340), (498, 326), (496, 314), (494, 285), (491, 270), (489, 251), (488, 238), (484, 216), (483, 205), (483, 194), (483, 186), (482, 170), (482, 163), (480, 156), (480, 152), (480, 144), (480, 141), (480, 138), (480, 137), (480, 132)]",262.763078,"[5, 9, 1, 7, 4, 2, 8, 6, 3]","(0, 0.25)",ENG005A,ENG,A,Chinese,Wed Aug 15 10:55:52 2018,Mouse
2,0,1,0,28,1,1,1,732,352,380,139,0,500,200,8000,"[(512, 384), (512, 384), (512, 384), (512, 384), (512, 384), (512, 384), (512, 384), (512, 384), (512, 384), (512, 384), (512, 384), (512, 384), (512, 384), (512, 384), (512, 384), (512, 384), (512, 384), (512, 384), (512, 384), (512, 384), (512, 384), (512, 384), (512, 384), (512, 384), (512, 384), (512, 384), (512, 384), (512, 384), (512, 384), (512, 384), (512, 384), (512, 384), (512, 384), (512, 384), (512, 384), (512, 385), (508, 389), (504, 390), (503, 392), (501, 393), (497, 397), (494, 400), (491, 402), (487, 405), (479, 412), (475, 414), (472, 418), (467, 423), (459, 429), (457, 433), (456, 436), (455, 439), (454, 445), (454, 451), (453, 454), (453, 458), (453, 471), (453, 480), (453, 493), (455, 504), (460, 521), (462, 528), (464, 535), (465, 540), (467, 554), (468, 559), (468, 566), (468, 572), (468, 588), (468, 594), (468, 603), (468, 612), (469, 624), (469, 632)]",99.83655451,"[5, 9, 1, 7, 4, 2, 8, 6, 3]","(0, 0.25)",ENG005A,ENG,A,Chinese,Wed Aug 15 10:55:52 2018,Mouse
2,0,1,0,29,4,4,1,551,131,420,139,0,500,200,8000,"[(512, 384), (512, 384), (512, 384), (512, 384), (512, 384), (512, 384), (512, 384), (512, 384), (512, 384), (512, 384), (512, 384), (512, 384), (512, 384), (512, 383), (512, 383), (512, 383), (512, 383), (512, 383), (512, 383), (512, 383), (512, 383), (512, 383), (512, 383), (512, 383), (512, 383), (512, 383), (512, 383), (512, 383), (512, 383), (512, 383), (512, 383), (512, 383), (512, 383), (512, 383), (512, 382), (510, 382), (508, 382), (504, 383), (499, 384), (488, 386), (474, 387), (466, 388), (455, 388), (429, 388), (415, 388), (400, 389), (382, 389), (348, 389), (333, 389), (318, 389), (306, 389), (290, 389), (280, 389), (273, 389), (266, 389), (254, 389)]",178.8897557,"[5, 9, 1, 7, 4, 2, 8, 6, 3]","(0, 0.25)",ENG005A,ENG,A,Chinese,Wed Aug 15 10:55:52 2018,Mouse
2,0,1,0,30,6,5,0,-721,551,170,138,0,500,200,8000,"[(512, 384), (512, 384), (512, 384), (512, 384), (512, 384), (512, 384), (512, 384), (512, 384), (512, 384), (512, 384), (512, 384), (512, 384), (512, 384), (512, 384), (512, 384), (512, 384), (512, 384), (512, 384), (512, 384), (512, 384), (512, 384), (512, 384), (512, 384), (512, 384), (512, 384), (512, 384), (512, 384), (512, 384), (512, 384), (512, 384), (512, 384), (512, 384), (512, 384), (512, 384), (512, 384), (512, 384), (512, 384), (512, 384), (512, 384), (512, 384), (512, 384), (512, 384), (512, 384), (512, 384), (512, 384), (512, 384), (512, 384), (512, 384), (512, 384), (512, 384), (512, 384), (512, 384), (512, 384), (512, 384), (512, 384), (513, 385), (531, 390), (541, 392), (555, 398), (567, 403), (598, 414), (617, 418), (636, 424), (656, 429), (680, 437), (690, 442), (697, 445), (703, 448), (716, 453), (724, 456), (734, 461), (744, 464), (773, 470)]",18.2371506,"[5, 9, 1, 7, 4, 2, 8, 6, 3]","(0, 0.25)",ENG005A,ENG,A,Chinese,Wed Aug 15 10:55:52 2018,Mouse
2,0,1,0,31,2,2,1,802,442,360,139,0,500,200,8000,"[(512, 384), (512, 384), (512, 384), (512, 384), (512, 384), (512, 384), (512, 384), (512, 384), (512, 384), (512, 384), (512, 384), (512, 384), (512, 384), (512, 384), (512, 384), (512, 384), (512, 384), (512, 384), (512, 384), (512, 384), (512, 384), (512, 384), (512, 384), (512, 384), (512, 384), (512, 384), (512, 384), (512, 384), (512, 384), (512, 384), (512, 384), (512, 384), (512, 384), (512, 384), (512, 384), (512, 384), (512, 384), (512, 384), (512, 384), (512, 384), (512, 384), (512, 384), (512, 384), (512, 384), (513, 384), (513, 384), (513, 384), (513, 384), (513, 384), (513, 384), (513, 384), (513, 385), (512, 385), (510, 385), (509, 385), (507, 385), (497, 385), (487, 382), (480, 379), (468, 374), (447, 363), (436, 357), (427, 351), (418, 346), (407, 337), (403, 334), (399, 329), (395, 323), (384, 308), (382, 303), (376, 296), (371, 288), (360, 276), (355, 269), (351, 262), (347, 256), (341, 240), (340, 230), (337, 224), (335, 214), (329, 200)]",225.1561189,"[5, 9, 1, 7, 4, 2, 8, 6, 3]","(0, 0.25)",ENG005A,ENG,A,Chinese,Wed Aug 15 10:55:52 2018,Mouse
2,0,1,0,32,2,2,1,522,272,250,139,0,500,200,8000,"[(512, 384), (512, 384), (512, 384), (512, 384), (512, 384), (512, 384), (512, 384), (512, 384), (512, 384), (512, 384), (512, 384), (512, 384), (512, 384), (512, 384), (512, 384), (512, 384), (512, 384), (512, 384), (512, 384), (512, 384), (512, 384), (512, 384), (512, 384), (512, 384), (512, 384), (512, 384), (512, 384), (508, 383), (496, 376), (490, 372), (482, 368), (470, 362), (446, 352), (434, 348), (424, 344), (416, 338), (399, 329), (392, 324), (386, 320), (382, 317), (372, 310), (370, 307), (365, 303), (360, 300), (352, 293), (347, 289), (340, 284), (337, 280), (324, 267), (320, 261), (315, 255), (311, 249), (305, 238)]",215.195853,"[5, 9, 1, 7, 4, 2, 8, 6, 3]","(0, 0.25)",ENG005A,ENG,A,Chinese,Wed Aug 15 10:55:52 2018,Mouse
2,0,1,0,33,3,3,1,877,637,240,138,0,500,200,8000,"[(512, 384), (512, 384), (512, 384), (512, 384), (512, 384), (512, 384), (512, 384), (512, 384), (512, 384), (512, 384), (512, 384), (512, 384), (512, 384), (512, 384), (512, 384), (512, 384), (512, 384), (512, 384), (512, 384), (512, 384), (512, 384), (512, 384), (512, 384), (512, 384), (512, 384), (512, 384), (512, 384), (512, 384), (512, 384), (512, 384), (512, 384), (512, 384), (512, 384), (512, 384), (512, 384), (512, 384), (512, 384), (512, 384), (512, 384), (512, 384), (512, 384), (512, 384), (512, 384), (512, 384), (512, 384), (512, 384), (512, 384), (512, 384), (512, 384), (512, 384), (512, 384), (512, 384), (512, 384), (512, 384), (512, 384), (512, 384), (512, 384), (512, 384), (512, 384), (512, 384), (512, 384), (512, 384), (512, 384), (516, 384), (522, 383), (528, 382), (535, 380), (550, 378), (560, 377), (571, 376), (581, 374), (598, 371), (607, 370), (616, 367), (626, 365), (645, 358), (654, 356), (662, 354), (671, 351), (687, 347), (697, 343), (705, 340), (712, 338), (726, 332), (732, 329), (738, 327), (746, 322), (762, 314)]",344.3577535,"[5, 9, 1, 7, 4, 2, 8, 6, 3]","(0, 0.25)",ENG005A,ENG,A,Chinese,Wed Aug 15 10:55:52 2018,Mouse
2,0,1,0,34,4,5,0,-708,528,180,137,0,500,200,8000,"[(512, 384), (512, 384), (512, 384), (512, 384), (512, 384), (512, 384), (512, 384), (512, 384), (512, 384), (512, 384), (512, 384), (512, 384), (512, 384), (512, 384), (512, 384), (512, 384), (512, 384), (512, 384), (512, 384), (512, 384), (512, 384), (512, 384), (512, 384), (512, 384), (512, 384), (512, 384), (512, 384), (512, 384), (512, 384), (512, 384), (512, 384), (512, 384), (512, 384), (512, 384), (512, 384), (512, 384), (512, 384), (512, 384), (512, 384), (512, 384), (512, 384), (512, 384), (512, 384), (512, 384), (512, 384), (512, 384), (512, 384), (512, 384), (512, 384), (512, 384), (512, 384), (512, 384), (511, 385), (511, 385), (511, 385), (519, 397), (527, 404), (536, 409), (545, 414), (567, 424), (579, 430), (589, 434), (597, 440), (619, 452), (626, 459), (639, 466), (657, 472), (693, 488), (711, 496), (729, 503), (741, 509)]",28.62798667,"[5, 9, 1, 7, 4, 2, 8, 6, 3]","(0, 0.25)",ENG005A,ENG,A,Chinese,Wed Aug 15 10:55:52 2018,Mouse
2,0,1,0,35,3,3,1,502,392,110,138,0,500,200,8000,"[(512, 384), (512, 384), (512, 384), (512, 384), (512, 384), (512, 384), (512, 384), (512, 384), (512, 384), (512, 384), (512, 384), (512, 384), (512, 384), (512, 384), (512, 384), (512, 384), (512, 384), (512, 384), (512, 384), (512, 384), (512, 384), (512, 384), (512, 384), (512, 384), (512, 384), (512, 384), (512, 384), (512, 384), (512, 384), (512, 384), (512, 384), (512, 384), (512, 384), (512, 384), (512, 384), (512, 384), (512, 384), (512, 384), (512, 384), (514, 384), (522, 384), (555, 383), (579, 380), (613, 377), (648, 372), (691, 365), (713, 359), (730, 354), (740, 351), (757, 343), (766, 338)]",349.7348595,"[5, 9, 1, 7, 4, 2, 8, 6, 3]","(0, 0.25)",ENG005A,ENG,A,Chinese,Wed Aug 15 10:55:52 2018,Mouse
2,0,1,0,36,9,9,1,666,446,220,138,0,500,200,8000,"[(512, 384), (512, 384), (512, 384), (512, 384), (512, 384), (512, 384), (512, 384), (512, 384), (512, 384), (512, 384), (512, 384), (512, 384), (512, 384), (512, 384), (512, 384), (512, 384), (512, 384), (512, 384), (512, 384), (512, 384), (512, 384), (512, 384), (512, 384), (512, 384), (512, 384), (512, 384), (512, 384), (512, 384), (512, 384), (512, 384), (512, 384), (512, 384), (512, 384), (512, 384), (512, 384), (512, 384), (512, 384), (512, 384), (512, 384), (512, 384), (512, 384), (512, 384), (512, 384), (512, 384), (513, 384), (514, 386), (517, 391), (518, 394), (521, 401), (522, 408), (529, 426), (532, 434), (539, 444), (545, 453), (562, 476), (566, 486), (572, 496), (574, 509), (579, 534), (583, 547), (589, 560), (593, 570), (601, 589), (605, 595), (612, 605), (616, 611), (623, 623)]",65.08818807,"[5, 9, 1, 7, 4, 2, 8, 6, 3]","(0, 0.25)",ENG005A,ENG,A,Chinese,Wed Aug 15 10:55:52 2018,Mouse
2,0,1,0,37,6,7,0,-812,482,330,137,0,500,200,8000,"[(512, 384), (512, 384), (512, 384), (512, 384), (512, 384), (512, 384), (512, 384), (512, 384), (512, 384), (512, 384), (512, 384), (512, 384), (512, 384), (512, 384), (512, 384), (512, 384), (512, 384), (512, 384), (512, 384), (512, 384), (512, 384), (512, 384), (512, 384), (512, 384), (512, 384), (512, 384), (512, 384), (512, 384), (512, 384), (512, 384), (512, 384), (512, 384), (512, 384), (512, 384), (512, 384), (512, 384), (512, 384), (512, 384), (512, 384), (512, 384), (512, 384), (512, 384), (512, 384), (512, 384), (512, 384), (512, 384), (512, 384), (512, 384), (512, 385), (512, 385), (512, 385), (512, 385), (510, 388), (509, 389), (508, 391), (507, 392), (505, 395), (505, 395), (504, 397), (501, 400), (494, 406), (492, 408), (488, 411), (484, 414), (475, 420), (469, 424), (461, 430), (455, 434), (441, 441), (434, 447), (427, 451), (420, 455), (404, 466), (397, 470), (388, 476), (379, 483), (360, 499), (351, 507), (340, 515), (332, 523), (318, 535), (310, 540)]",142.3219083,"[5, 9, 1, 7, 4, 2, 8, 6, 3]","(0, 0.25)",ENG005A,ENG,A,Chinese,Wed Aug 15 10:55:52 2018,Mouse
2,0,1,0,38,7,7,1,504,234,270,138,0,500,200,8000,"[(512, 384), (512, 384), (512, 384), (512, 384), (512, 384), (512, 384), (512, 384), (512, 384), (512, 384), (512, 384), (512, 384), (512, 384), (512, 384), (512, 384), (512, 384), (512, 384), (512, 384), (512, 384), (512, 384), (512, 384), (512, 384), (512, 384), (512, 384), (513, 384), (513, 384), (513, 385), (512, 388), (509, 391), (507, 393), (502, 396), (489, 405), (478, 413), (471, 417), (461, 424), (442, 437), (431, 445), (421, 452), (412, 458), (396, 470), (390, 475), (384, 480), (376, 484), (362, 494), (359, 496), (353, 500), (345, 506), (330, 515), (324, 519), (317, 525), (312, 528), (306, 534)]",143.939565,"[5, 9, 1, 7, 4, 2, 8, 6, 3]","(0, 0.25)",ENG005A,ENG,A,Chinese,Wed Aug 15 10:55:52 2018,Mouse
2,0,1,0,39,8,8,1,1133,533,600,138,0,500,200,8000,"[(512, 384), (512, 384), (512, 384), (512, 384), (512, 384), (512, 384), (512, 384), (512, 384), (512, 384), (512, 384), (512, 384), (512, 384), (512, 384), (512, 384), (512, 384), (512, 384), (512, 384), (512, 384), (512, 384), (512, 384), (512, 384), (512, 384), (512, 384), (512, 384), (512, 384), (512, 384), (512, 384), (512, 384), (512, 384), (512, 384), (512, 384), (512, 384), (512, 384), (512, 384), (512, 384), (512, 384), (512, 384), (512, 384), (512, 384), (512, 384), (512, 384), (512, 384), (512, 384), (512, 384), (512, 384), (512, 384), (512, 384), (512, 384), (512, 384), (512, 384), (512, 384), (512, 384), (512, 384), (512, 385), (509, 385), (505, 385), (500, 385), (499, 385), (498, 385), (497, 385), (496, 385), (496, 385), (496, 385), (496, 385), (496, 385), (496, 385), (496, 385), (496, 385), (496, 385), (496, 385), (496, 385), (496, 385), (496, 385), (496, 385), (496, 385), (496, 385), (496, 385), (496, 382), (496, 380), (496, 378), (496, 375), (496, 372), (496, 369), (496, 365), (496, 355), (496, 349), (496, 343), (496, 339), (493, 325), (492, 319), (491, 313), (491, 306), (485, 287), (484, 278), (482, 270), (482, 261), (480, 246), (479, 239), (477, 232), (477, 225), (475, 215), (475, 208), (475, 202), (475, 198), (475, 188), (475, 183), (475, 179), (475, 174), (474, 166), (474, 161), (474, 157), (474, 153), (474, 140), (474, 136)]",261.2885624,"[5, 9, 1, 7, 4, 2, 8, 6, 3]","(0, 0.25)",ENG005A,ENG,A,Chinese,Wed Aug 15 10:55:52 2018,Mouse
2,0,1,0,40,1,3,0,-912,442,470,137,0,500,200,8000,"[(512, 384), (512, 384), (512, 384), (512, 384), (512, 384), (512, 384), (512, 384), (512, 384), (512, 384), (512, 384), (512, 384), (512, 384), (512, 384), (512, 384), (512, 384), (512, 384), (512, 384), (512, 384), (512, 384), (512, 384), (512, 384), (512, 384), (512, 384), (512, 384), (512, 384), (512, 384), (512, 384), (512, 384), (512, 384), (512, 384), (512, 384), (512, 384), (512, 384), (512, 384), (512, 384), (512, 384), (512, 384), (512, 384), (512, 384), (512, 384), (512, 384), (512, 384), (512, 384), (512, 384), (511, 385), (511, 385), (511, 385), (511, 385), (511, 385), (511, 385), (511, 385), (511, 385), (511, 385), (511, 385), (511, 385), (511, 385), (511, 385), (511, 385), (511, 385), (511, 385), (511, 384), (511, 383), (511, 381), (518, 375), (525, 372), (537, 369), (548, 368), (572, 363), (582, 362), (593, 361), (601, 361), (613, 358), (617, 357), (621, 357), (625, 355), (633, 352), (638, 348), (644, 345), (647, 343), (654, 340), (655, 340), (657, 339), (659, 338), (667, 335), (672, 333), (677, 331), (684, 329), (704, 324), (711, 321), (722, 318), (734, 315), (753, 310)]",342.9306894,"[5, 9, 1, 7, 4, 2, 8, 6, 3]","(0, 0.25)",ENG005A,ENG,A,Chinese,Wed Aug 15 10:55:52 2018,Mouse
2,0,1,0,41,2,2,1,599,399,200,138,0,500,200,8000,"[(512, 384), (512, 384), (512, 384), (512, 384), (512, 384), (512, 384), (512, 384), (512, 384), (512, 384), (512, 384), (512, 384), (512, 384), (512, 384), (512, 384), (512, 384), (512, 384), (512, 384), (512, 384), (512, 384), (512, 384), (512, 384), (512, 384), (512, 384), (512, 384), (512, 384), (512, 384), (512, 384), (512, 384), (512, 384), (512, 384), (512, 384), (512, 384), (512, 384), (512, 384), (512, 384), (512, 384), (512, 384), (512, 384), (512, 384), (505, 382), (496, 376), (486, 369), (475, 361), (445, 343), (432, 336), (422, 328), (413, 320), (390, 301), (380, 293), (371, 285), (362, 277), (344, 262), (339, 257), (334, 253), (329, 248), (323, 243), (320, 239), (317, 237), (313, 234), (305, 229)]",216.8255854,"[5, 9, 1, 7, 4, 2, 8, 6, 3]","(0, 0.25)",ENG005A,ENG,A,Chinese,Wed Aug 15 10:55:52 2018,Mouse
2,0,1,0,42,3,9,0,-1072,682,390,138,0,500,200,8000,"[(512, 384), (512, 384), (512, 384), (512, 384), (512, 384), (512, 384), (512, 384), (512, 384), (512, 384), (512, 384), (512, 384), (512, 384), (512, 384), (512, 384), (512, 384), (512, 384), (512, 384), (512, 384), (512, 384), (512, 384), (512, 384), (512, 384), (512, 384), (512, 384), (512, 384), (512, 384), (512, 384), (512, 384), (512, 384), (512, 384), (512, 384), (512, 384), (512, 384), (512, 384), (512, 384), (512, 384), (512, 384), (512, 384), (512, 384), (512, 384), (512, 384), (512, 384), (512, 384), (512, 384), (512, 384), (512, 384), (512, 384), (512, 384), (512, 384), (512, 384), (512, 384), (512, 384), (512, 384), (512, 384), (512, 384), (512, 384), (512, 384), (512, 384), (512, 384), (512, 384), (512, 384), (512, 384), (512, 384), (512, 384), (512, 384), (512, 384), (512, 384), (512, 384), (513, 386), (513, 386), (513, 387), (513, 388), (513, 390), (513, 391), (513, 392), (513, 392), (513, 393), (513, 393), (513, 393), (513, 393), (514, 394), (514, 395), (514, 396), (514, 396), (514, 399), (514, 399), (514, 402), (514, 403), (514, 406), (514, 409), (514, 412), (515, 414), (518, 423), (519, 428), (522, 435), (523, 442), (528, 454), (530, 462), (534, 470), (538, 478), (545, 498), (551, 508), (556, 521), (562, 535), (576, 569), (583, 594), (596, 616), (608, 635)]",69.06964099,"[5, 9, 1, 7, 4, 2, 8, 6, 3]","(0, 0.25)",ENG005A,ENG,A,Chinese,Wed Aug 15 10:55:52 2018,Mouse
2,0,1,0,43,2,2,1,742,532,210,139,0,500,200,8000,"[(512, 384), (512, 384), (512, 384), (512, 384), (512, 384), (512, 384), (512, 384), (512, 384), (512, 384), (512, 384), (512, 384), (512, 384), (512, 384), (512, 384), (512, 384), (512, 384), (512, 384), (512, 384), (512, 384), (512, 384), (512, 384), (512, 384), (512, 384), (512, 384), (512, 384), (512, 384), (512, 384), (512, 384), (512, 384), (512, 384), (512, 384), (512, 384), (512, 384), (512, 384), (512, 384), (512, 384), (512, 384), (512, 384), (512, 384), (512, 384), (512, 384), (512, 384), (512, 384), (512, 384), (512, 384), (512, 384), (512, 384), (512, 384), (512, 384), (512, 384), (512, 384), (512, 384), (512, 384), (500, 379), (494, 376), (487, 373), (478, 370), (458, 359), (444, 349), (433, 343), (421, 335), (400, 322), (391, 316), (382, 309), (376, 304), (364, 291), (359, 285), (354, 279), (348, 272), (340, 261), (335, 256), (331, 249), (325, 243), (317, 233), (312, 226)]",218.3087356,"[5, 9, 1, 7, 4, 2, 8, 6, 3]","(0, 0.25)",ENG005A,ENG,A,Chinese,Wed Aug 15 10:55:52 2018,Mouse
2,0,1,0,44,1,1,1,813,402,411,139,0,500,200,8000,"[(512, 384), (512, 384), (512, 384), (512, 384), (512, 384), (512, 384), (512, 384), (512, 384), (512, 384), (512, 384), (512, 384), (512, 384), (512, 384), (512, 384), (512, 384), (512, 384), (512, 384), (512, 384), (512, 384), (512, 384), (512, 384), (512, 384), (512, 384), (512, 384), (512, 384), (512, 384), (512, 384), (512, 384), (512, 384), (512, 384), (512, 384), (512, 384), (512, 384), (512, 384), (512, 384), (512, 384), (512, 384), (512, 384), (512, 384), (512, 384), (512, 385), (509, 386), (506, 386), (504, 387), (504, 387), (504, 387), (504, 387), (503, 387), (502, 387), (501, 389), (501, 390), (500, 392), (499, 393), (499, 396), (498, 397), (497, 402), (497, 404), (497, 406), (497, 407), (495, 411), (495, 412), (495, 414), (495, 416), (495, 420), (495, 422), (495, 424), (495, 428), (495, 438), (495, 446), (495, 452), (495, 458), (496, 472), (496, 479), (496, 489), (496, 500), (496, 526), (496, 538), (496, 555), (495, 569), (492, 608), (488, 629), (488, 640)]",95.35582504,"[5, 9, 1, 7, 4, 2, 8, 6, 3]","(0, 0.25)",ENG005A,ENG,A,Chinese,Wed Aug 15 10:55:52 2018,Mouse
2,0,1,0,45,8,8,1,935,755,180,138,0,500,200,8000,"[(512, 384), (512, 384), (512, 384), (512, 384), (512, 384), (512, 384), (512, 384), (512, 384), (512, 384), (512, 384), (512, 384), (512, 384), (512, 384), (512, 384), (512, 384), (512, 384), (512, 384), (512, 384), (512, 384), (512, 384), (512, 384), (512, 384), (512, 384), (512, 384), (512, 384), (512, 384), (512, 384), (512, 384), (512, 384), (512, 384), (512, 384), (512, 384), (512, 384), (512, 384), (512, 384), (512, 384), (512, 384), (512, 384), (512, 384), (512, 384), (512, 384), (512, 384), (512, 384), (512, 384), (512, 384), (512, 384), (512, 384), (512, 384), (512, 384), (512, 384), (512, 384), (512, 384), (512, 384), (512, 384), (512, 384), (512, 384), (512, 384), (512, 384), (512, 384), (512, 384), (512, 384), (512, 384), (512, 384), (512, 384), (512, 384), (512, 384), (512, 384), (512, 384), (512, 384), (512, 384), (512, 384), (512, 384), (512, 384), (512, 384), (512, 384), (510, 381), (509, 373), (508, 358), (505, 347), (504, 330), (500, 314), (493, 279), (491, 267), (488, 254), (486, 244), (479, 219), (475, 207), (474, 196), (474, 189), (474, 167), (474, 159), (474, 152), (473, 146), (471, 135)]",260.6496564,"[5, 9, 1, 7, 4, 2, 8, 6, 3]","(0, 0.25)",ENG005A,ENG,A,Chinese,Wed Aug 15 10:55:52 2018,Mouse
2,0,1,0,46,9,2,0,-475,355,120,137,0,500,200,8000,"[(512, 384), (512, 384), (512, 384), (512, 384), (512, 384), (512, 384), (512, 384), (512, 384), (512, 384), (512, 384), (512, 384), (512, 384), (512, 384), (512, 384), (512, 384), (512, 384), (512, 384), (512, 384), (512, 384), (512, 384), (512, 384), (512, 384), (512, 384), (512, 384), (512, 384), (512, 384), (512, 384), (512, 384), (512, 384), (512, 384), (512, 384), (512, 384), (512, 384), (512, 384), (512, 384), (512, 383), (508, 376), (498, 368), (483, 359), (444, 333), (425, 322), (403, 309), (381, 293), (353, 269), (340, 258), (330, 248), (322, 239), (303, 218)]",218.4586536,"[5, 9, 1, 7, 4, 2, 8, 6, 3]","(0, 0.25)",ENG005A,ENG,A,Chinese,Wed Aug 15 10:55:52 2018,Mouse
2,0,1,0,47,6,3,0,-721,541,180,138,0,500,200,8000,"[(512, 384), (512, 384), (512, 384), (512, 384), (512, 384), (512, 384), (512, 384), (512, 384), (512, 384), (512, 384), (512, 384), (512, 384), (512, 384), (512, 384), (512, 384), (512, 384), (512, 384), (512, 384), (512, 384), (512, 384), (512, 384), (512, 384), (512, 384), (512, 384), (512, 384), (512, 384), (512, 384), (512, 384), (512, 384), (512, 384), (512, 384), (512, 384), (512, 384), (512, 384), (512, 384), (512, 384), (512, 384), (512, 384), (512, 384), (512, 384), (512, 384), (512, 384), (512, 384), (512, 384), (512, 384), (512, 384), (512, 384), (512, 384), (512, 384), (512, 384), (512, 384), (512, 384), (512, 384), (512, 384), (515, 384), (521, 384), (546, 377), (559, 374), (568, 372), (581, 371), (603, 367), (613, 365), (622, 363), (630, 361), (649, 355), (662, 352), (674, 349), (684, 344), (713, 333), (725, 329), (737, 325), (748, 321), (772, 312)]",344.5213618,"[5, 9, 1, 7, 4, 2, 8, 6, 3]","(0, 0.25)",ENG005A,ENG,A,Chinese,Wed Aug 15 10:55:52 2018,Mouse
2,0,1,0,48,8,8,1,636,316,320,139,0,500,200,8000,"[(512, 384), (512, 384), (512, 384), (512, 384), (512, 384), (512, 384), (512, 384), (512, 384), (512, 384), (512, 384), (512, 384), (512, 384), (512, 384), (512, 384), (512, 384), (512, 384), (512, 384), (512, 384), (512, 384), (512, 384), (512, 384), (512, 384), (512, 384), (512, 384), (512, 384), (512, 384), (512, 384), (512, 384), (512, 384), (512, 384), (512, 384), (510, 384), (506, 384), (500, 384), (495, 384), (482, 384), (475, 384), (471, 384), (467, 384), (463, 384), (460, 384), (460, 384), (460, 384), (460, 381), (460, 377), (458, 369), (455, 362), (448, 340), (444, 328), (442, 317), (441, 306), (438, 282), (437, 270), (437, 258), (437, 246), (437, 221), (437, 206), (438, 197), (439, 190), (439, 172), (439, 165), (439, 161), (439, 155), (440, 144)]",253.3007558,"[5, 9, 1, 7, 4, 2, 8, 6, 3]","(0, 0.25)",ENG005A,ENG,A,Chinese,Wed Aug 15 10:55:52 2018,Mouse
2,0,1,0,49,1,1,1,641,321,320,139,0,500,200,8000,"[(512, 384), (512, 384), (512, 384), (512, 384), (512, 384), (512, 384), (512, 384), (512, 384), (512, 384), (512, 384), (512, 384), (512, 384), (512, 384), (512, 384), (512, 384), (512, 384), (512, 384), (512, 384), (512, 384), (512, 384), (512, 384), (512, 384), (512, 384), (512, 384), (512, 384), (512, 384), (512, 384), (512, 384), (512, 384), (512, 384), (512, 384), (512, 384), (503, 385), (493, 387), (489, 387), (485, 387), (472, 390), (467, 392), (465, 393), (464, 393), (461, 395), (458, 398), (454, 405), (453, 408), (450, 418), (450, 424), (450, 430), (450, 436), (450, 449), (450, 456), (450, 464), (450, 471), (450, 490), (450, 500), (450, 510), (452, 519), (455, 542), (456, 550), (456, 555), (456, 564), (455, 578), (454, 586), (451, 596), (450, 607), (449, 629)]",104.4207731,"[5, 9, 1, 7, 4, 2, 8, 6, 3]","(0, 0.25)",ENG005A,ENG,A,Chinese,Wed Aug 15 10:55:52 2018,Mouse
2,0,1,0,50,3,3,1,601,351,250,138,0,500,200,8000,"[(512, 384), (512, 384), (512, 384), (512, 384), (512, 384), (512, 384), (512, 384), (512, 384), (512, 384), (512, 384), (512, 384), (512, 384), (512, 384), (512, 384), (512, 384), (512, 384), (512, 384), (512, 384), (512, 384), (512, 384), (512, 384), (512, 384), (512, 384), (512, 384), (512, 384), (512, 384), (512, 384), (512, 384), (512, 384), (512, 384), (512, 384), (512, 384), (512, 384), (512, 384), (513, 384), (518, 384), (522, 384), (529, 385), (536, 387), (553, 387), (560, 387), (564, 387), (568, 387), (573, 387), (574, 387), (574, 387), (575, 387), (584, 386), (590, 383), (601, 377), (612, 373), (646, 362), (661, 356), (672, 350), (687, 344), (712, 333), (722, 327), (734, 321), (743, 315), (766, 300)]",341.7005019,"[5, 9, 1, 7, 4, 2, 8, 6, 3]","(0, 0.25)",ENG005A,ENG,A,Chinese,Wed Aug 15 10:55:52 2018,Mouse
2,0,1,0,51,9,2,0,-833,583,250,137,0,500,200,8000,"[(512, 384), (512, 384), (512, 384), (512, 384), (512, 384), (512, 384), (512, 384), (512, 384), (512, 384), (512, 384), (512, 384), (512, 384), (512, 384), (512, 384), (512, 384), (512, 384), (512, 384), (512, 384), (512, 384), (512, 384), (512, 384), (512, 384), (512, 384), (512, 384), (512, 384), (512, 384), (512, 384), (512, 384), (512, 384), (512, 384), (512, 384), (512, 384), (512, 384), (512, 384), (512, 384), (512, 384), (512, 384), (512, 384), (512, 384), (512, 384), (512, 384), (512, 384), (512, 384), (512, 384), (512, 384), (512, 384), (512, 384), (512, 384), (512, 384), (512, 384), (512, 384), (512, 384), (512, 384), (512, 384), (512, 384), (512, 384), (512, 384), (512, 384), (511, 384), (510, 382), (510, 380), (507, 376), (506, 375), (501, 367), (498, 363), (494, 359), (487, 352), (476, 340), (468, 333), (461, 326), (456, 321), (440, 306), (435, 300), (425, 293), (416, 285), (400, 272), (390, 264), (385, 259), (382, 256), (372, 246), (364, 240), (354, 233), (344, 226), (322, 218)]",221.143199,"[5, 9, 1, 7, 4, 2, 8, 6, 3]","(0, 0.25)",ENG005A,ENG,A,Chinese,Wed Aug 15 10:55:52 2018,Mouse
2,0,1,0,52,2,2,1,472,192,280,138,0,500,200,8000,"[(512, 384), (512, 384), (512, 384), (512, 384), (512, 384), (512, 384), (512, 384), (512, 384), (512, 384), (512, 384), (512, 384), (512, 384), (512, 384), (512, 384), (512, 384), (512, 384), (512, 384), (512, 384), (512, 384), (507, 383), (500, 380), (493, 376), (487, 373), (478, 365), (474, 362), (472, 359), (468, 354), (458, 342), (452, 336), (446, 328), (440, 320), (429, 310), (423, 305), (418, 300), (412, 295), (395, 284), (390, 280), (384, 276), (382, 273), (372, 266), (367, 261), (362, 255), (354, 250), (341, 241), (332, 236), (324, 232), (317, 228), (300, 219)]",217.8936894,"[5, 9, 1, 7, 4, 2, 8, 6, 3]","(0, 0.25)",ENG005A,ENG,A,Chinese,Wed Aug 15 10:55:52 2018,Mouse
2,0,1,0,53,1,1,1,740,280,460,138,0,500,200,8000,"[(512, 384), (512, 384), (512, 384), (512, 384), (512, 384), (512, 384), (512, 384), (512, 384), (512, 384), (512, 384), (512, 384), (512, 384), (512, 384), (512, 384), (512, 384), (512, 384), (512, 384), (512, 384), (512, 384), (512, 384), (512, 384), (512, 384), (512, 384), (512, 384), (512, 384), (512, 384), (512, 384), (512, 385), (510, 385), (508, 385), (506, 386), (503, 387), (488, 395), (478, 401), (468, 411), (457, 423), (435, 445), (426, 456), (416, 465), (406, 475), (387, 496), (383, 501), (381, 508), (381, 512), (381, 523), (381, 526), (381, 529), (381, 530), (381, 530), (381, 530), (381, 530), (381, 530), (381, 530), (381, 530), (381, 531), (381, 533), (382, 535), (382, 535), (382, 535), (382, 535), (382, 535), (384, 537), (384, 537), (385, 538), (388, 541), (391, 542), (393, 545), (399, 550), (416, 563), (428, 574), (443, 588), (461, 601), (496, 629), (509, 642)]",90.66619997,"[5, 9, 1, 7, 4, 2, 8, 6, 3]","(0, 0.25)",ENG005A,ENG,A,Chinese,Wed Aug 15 10:55:52 2018,Mouse
2,0,1,0,54,3,2,0,-632,502,130,137,0,500,200,8000,"[(512, 384), (512, 384), (512, 384), (512, 384), (512, 384), (512, 384), (512, 384), (512, 384), (512, 384), (512, 384), (512, 384), (512, 384), (512, 384), (512, 384), (512, 384), (512, 384), (512, 384), (512, 384), (512, 384), (512, 384), (512, 384), (512, 384), (512, 384), (512, 384), (512, 384), (512, 384), (512, 384), (512, 384), (512, 384), (512, 384), (512, 384), (512, 384), (512, 384), (512, 384), (512, 384), (512, 384), (512, 384), (512, 384), (512, 384), (512, 384), (512, 384), (512, 384), (512, 384), (512, 384), (512, 384), (512, 384), (512, 384), (512, 384), (512, 384), (512, 384), (512, 381), (505, 368), (500, 362), (495, 353), (485, 341), (455, 310), (440, 299), (425, 287), (415, 278), (396, 264), (383, 254), (364, 244), (347, 233), (308, 208)]",220.7858215,"[5, 9, 1, 7, 4, 2, 8, 6, 3]","(0, 0.25)",ENG005A,ENG,A,Chinese,Wed Aug 15 10:55:52 2018,Mouse
2,0,1,0,55,9,3,0,-812,432,380,138,0,500,200,8000,"[(512, 384), (512, 384), (512, 384), (512, 384), (512, 384), (512, 384), (512, 384), (512, 384), (512, 384), (512, 384), (512, 384), (512, 384), (512, 384), (512, 384), (512, 384), (512, 384), (512, 384), (512, 384), (512, 384), (512, 384), (512, 384), (512, 384), (512, 384), (512, 384), (512, 384), (512, 384), (512, 384), (512, 384), (512, 384), (512, 384), (512, 384), (512, 384), (512, 384), (512, 384), (512, 384), (512, 384), (512, 384), (512, 384), (512, 384), (512, 384), (512, 384), (512, 384), (512, 384), (512, 383), (512, 382), (512, 382), (512, 382), (512, 380), (514, 375), (515, 375), (515, 373), (516, 371), (516, 369), (517, 368), (517, 368), (518, 368), (518, 365), (520, 364), (521, 362), (523, 361), (528, 357), (530, 357), (534, 353), (537, 352), (543, 352), (546, 350), (550, 349), (554, 349), (567, 347), (576, 345), (582, 345), (593, 344), (623, 342), (636, 338), (655, 337), (672, 333), (703, 329), (715, 326), (723, 324), (732, 322), (746, 317), (756, 313)]",343.7758701,"[5, 9, 1, 7, 4, 2, 8, 6, 3]","(0, 0.25)",ENG005A,ENG,A,Chinese,Wed Aug 15 10:55:52 2018,Mouse
2,0,1,0,56,6,8,0,-2065,1215,850,139,0,500,200,8000,"[(512, 384), (512, 384), (512, 384), (512, 384), (512, 384), (512, 384), (512, 384), (512, 384), (512, 384), (512, 384), (512, 384), (512, 384), (512, 384), (512, 384), (512, 384), (512, 384), (512, 384), (512, 384), (512, 384), (512, 384), (512, 384), (512, 384), (512, 384), (512, 384), (512, 384), (512, 384), (512, 384), (512, 384), (512, 384), (512, 384), (512, 384), (512, 384), (512, 384), (512, 384), (512, 384), (512, 384), (512, 384), (512, 384), (512, 384), (512, 384), (512, 384), (512, 384), (512, 384), (512, 384), (512, 384), (512, 384), (512, 384), (512, 384), (512, 384), (512, 384), (512, 384), (512, 384), (512, 384), (512, 384), (512, 384), (512, 384), (512, 384), (512, 384), (512, 384), (512, 384), (512, 384), (512, 384), (512, 384), (512, 384), (512, 384), (512, 384), (512, 384), (512, 384), (512, 384), (512, 384), (512, 384), (512, 384), (512, 384), (512, 384), (512, 384), (512, 384), (512, 384), (512, 384), (512, 384), (512, 384), (512, 384), (512, 384), (512, 384), (512, 384), (512, 384), (512, 384), (512, 384), (512, 384), (512, 384), (512, 384), (512, 384), (512, 384), (512, 384), (512, 384), (512, 384), (512, 384), (512, 384), (512, 384), (512, 384), (512, 384), (512, 384), (512, 384), (512, 384), (512, 384), (512, 384), (512, 384), (512, 384), (512, 384), (512, 384), (512, 384), (512, 384), (512, 384), (512, 384), (512, 384), (512, 384), (512, 384), (512, 384), (512, 384), (512, 384), (512, 384), (512, 384), (512, 385), (512, 386), (512, 389), (512, 389), (512, 389), (512, 389), (512, 389), (512, 389), (512, 389), (512, 389), (512, 390), (511, 392), (511, 392), (510, 392), (508, 393), (503, 396), (501, 396), (494, 397), (491, 397), (489, 397), (486, 397), (480, 398), (477, 399), (475, 400), (473, 400), (470, 400), (470, 400), (470, 400), (469, 400), (469, 400), (469, 400), (469, 400), (469, 400), (469, 400), (469, 400), (469, 400), (469, 400), (469, 400), (469, 400), (469, 400), (469, 400), (469, 400), (469, 400), (469, 400), (469, 400), (469, 400), (469, 400), (477, 400), (490, 400), (523, 400), (543, 401), (565, 405), (583, 408), (618, 413), (629, 414), (640, 416), (646, 416), (653, 418), (655, 418), (655, 418), (655, 418), (655, 418), (655, 418), (656, 418), (654, 414), (647, 399), (643, 389), (637, 379), (631, 368), (610, 329), (595, 304), (585, 286), (573, 266), (560, 234), (556, 222), (553, 211), (552, 202), (552, 186), (552, 177), (552, 171), (552, 167), (549, 154), (548, 150), (547, 144), (546, 138), (541, 124)]",276.3643774,"[5, 9, 1, 7, 4, 2, 8, 6, 3]","(0, 0.25)",ENG005A,ENG,A,Chinese,Wed Aug 15 10:55:52 2018,Mouse
2,0,1,0,57,7,7,1,642,52,590,140,0,500,200,8000,"[(512, 384), (512, 384), (512, 384), (512, 384), (512, 384), (512, 385), (512, 385), (512, 385), (512, 385), (512, 385), (512, 385), (512, 385), (512, 385), (512, 385), (512, 385), (512, 385), (512, 385), (512, 385), (512, 385), (512, 385), (512, 385), (512, 385), (512, 385), (512, 385), (512, 385), (511, 386), (511, 386), (509, 387), (508, 387), (506, 388), (506, 388), (504, 390), (503, 390), (503, 390), (503, 390), (500, 391), (500, 391), (500, 391), (499, 391), (497, 394), (494, 396), (493, 397), (492, 398), (488, 401), (488, 402), (488, 403), (486, 405), (485, 409), (482, 411), (481, 416), (478, 422), (470, 437), (464, 444), (457, 453), (450, 460), (434, 469), (424, 475), (416, 480), (408, 485), (390, 497), (380, 504), (368, 512), (355, 520), (330, 537), (316, 546)]",140.4252264,"[5, 9, 1, 7, 4, 2, 8, 6, 3]","(0, 0.25)",ENG005A,ENG,A,Chinese,Wed Aug 15 10:55:52 2018,Mouse
2,0,1,0,58,1,1,1,524,344,180,140,0,500,200,8000,"[(512, 384), (512, 384), (512, 384), (512, 384), (512, 384), (512, 384), (512, 384), (512, 384), (512, 384), (512, 384), (512, 384), (512, 384), (512, 384), (512, 384), (512, 384), (512, 384), (512, 384), (512, 384), (512, 384), (512, 384), (512, 384), (512, 384), (512, 384), (512, 384), (512, 384), (512, 384), (512, 384), (512, 384), (512, 384), (512, 384), (512, 384), (512, 384), (512, 384), (512, 384), (512, 387), (512, 391), (512, 397), (510, 407), (505, 430), (499, 441), (497, 455), (492, 469), (485, 493), (482, 507), (481, 517), (477, 530), (473, 555), (470, 566), (466, 578), (463, 589), (457, 610), (454, 620), (454, 629)]",103.3187038,"[5, 9, 1, 7, 4, 2, 8, 6, 3]","(0, 0.25)",ENG005A,ENG,A,Chinese,Wed Aug 15 10:55:52 2018,Mouse
2,0,1,0,59,7,7,1,631,161,470,139,0,500,200,8000,"[(512, 384), (512, 384), (512, 384), (512, 384), (512, 384), (512, 384), (512, 384), (512, 384), (512, 384), (512, 384), (512, 384), (512, 384), (512, 384), (512, 384), (512, 384), (512, 384), (513, 384), (513, 384), (513, 384), (513, 384), (513, 384), (513, 384), (513, 384), (514, 384), (514, 384), (514, 384), (514, 384), (514, 384), (514, 384), (514, 384), (514, 384), (514, 386), (514, 389), (514, 391), (514, 393), (514, 401), (511, 407), (507, 412), (504, 419), (497, 430), (493, 435), (487, 444), (482, 450), (467, 462), (460, 467), (453, 474), (444, 479), (431, 487), (424, 491), (420, 494), (414, 497), (399, 506), (391, 512), (382, 517), (372, 524), (357, 535), (351, 539), (347, 541), (343, 543), (338, 547), (336, 548), (333, 550), (331, 552), (324, 556)]",137.5448044,"[5, 9, 1, 7, 4, 2, 8, 6, 3]","(0, 0.25)",ENG005A,ENG,A,Chinese,Wed Aug 15 10:55:52 2018,Mouse
2,0,1,0,60,7,7,1,660,470,190,138,0,500,200,8000,"[(512, 384), (512, 384), (512, 384), (512, 384), (512, 384), (512, 384), (512, 384), (512, 384), (512, 384), (512, 384), (512, 384), (512, 384), (512, 384), (512, 384), (512, 384), (512, 384), (512, 384), (512, 384), (512, 384), (512, 384), (512, 384), (512, 384), (512, 384), (512, 384), (512, 384), (512, 384), (512, 384), (512, 384), (512, 384), (512, 384), (512, 384), (512, 384), (512, 384), (512, 384), (512, 384), (512, 384), (512, 384), (512, 384), (512, 384), (512, 384), (512, 384), (512, 384), (512, 384), (512, 384), (512, 384), (512, 384), (509, 387), (493, 408), (482, 422), (472, 434), (463, 441), (443, 457), (435, 464), (428, 468), (420, 472), (409, 481), (403, 485), (394, 491), (389, 494), (368, 506), (359, 513), (349, 516), (342, 519), (326, 527), (320, 530), (312, 534)]",143.1301024,"[5, 9, 1, 7, 4, 2, 8, 6, 3]","(0, 0.25)",ENG005A,ENG,A,Chinese,Wed Aug 15 10:55:52 2018,Mouse
2,0,1,0,61,5,4,0,-1082,1012,70,137,0,500,200,8000,"[(512, 384), (512, 384), (512, 384), (512, 384), (512, 384), (512, 384), (512, 384), (512, 384), (512, 384), (512, 384), (512, 384), (512, 384), (512, 384), (512, 384), (512, 384), (512, 384), (512, 384), (512, 384), (512, 384), (512, 384), (512, 384), (512, 384), (512, 384), (512, 384), (512, 384), (512, 384), (512, 384), (512, 384), (512, 384), (512, 384), (512, 384), (512, 384), (512, 384), (512, 384), (512, 384), (512, 384), (512, 384), (512, 384), (512, 384), (512, 384), (512, 384), (512, 384), (512, 384), (512, 384), (512, 384), (512, 384), (512, 384), (512, 384), (512, 384), (512, 384), (512, 384), (512, 384), (512, 384), (512, 384), (512, 384), (512, 384), (512, 384), (512, 384), (512, 384), (512, 384), (512, 384), (512, 384), (512, 384), (512, 384), (512, 384), (512, 384), (512, 384), (512, 384), (512, 384), (512, 384), (512, 384), (512, 384), (512, 384), (512, 384), (512, 384), (512, 384), (512, 384), (512, 384), (512, 384), (512, 384), (512, 384), (512, 384), (512, 384), (512, 384), (512, 384), (512, 384), (512, 384), (512, 384), (512, 384), (512, 384), (512, 384), (512, 384), (512, 384), (512, 384), (512, 384), (512, 384), (512, 384), (512, 384), (512, 384), (512, 384), (512, 384), (506, 384), (478, 388), (461, 392), (438, 392), (402, 394), (329, 394), (293, 394), (257, 394)]",177.7542574,"[5, 9, 1, 7, 4, 2, 8, 6, 3]","(0, 0.25)",ENG005A,ENG,A,Chinese,Wed Aug 15 10:55:52 2018,Mouse
2,0,1,0,62,9,3,0,-1097,577,520,138,0,500,200,8000,"[(512, 384), (512, 384), (512, 384), (512, 384), (512, 384), (512, 384), (512, 384), (512, 384), (512, 384), (512, 384), (512, 384), (512, 384), (512, 384), (512, 384), (512, 384), (512, 384), (512, 384), (512, 384), (512, 384), (512, 384), (512, 384), (512, 384), (512, 384), (512, 384), (512, 384), (512, 384), (512, 384), (512, 384), (512, 384), (512, 384), (512, 384), (512, 384), (512, 384), (512, 384), (512, 384), (512, 384), (512, 384), (512, 384), (512, 384), (512, 384), (512, 384), (512, 384), (512, 384), (512, 384), (512, 384), (512, 384), (512, 384), (512, 384), (512, 384), (512, 384), (512, 384), (512, 384), (512, 384), (512, 384), (512, 384), (512, 384), (512, 384), (499, 372), (492, 368), (487, 366), (482, 364), (479, 363), (479, 363), (479, 363), (479, 363), (479, 363), (479, 363), (477, 362), (477, 360), (477, 357), (477, 355), (477, 354), (477, 353), (477, 352), (477, 351), (477, 348), (482, 344), (487, 341), (492, 338), (499, 333), (510, 327), (520, 323), (526, 321), (536, 317), (553, 313), (561, 312), (569, 312), (576, 312), (591, 312), (596, 312), (601, 312), (607, 312), (615, 312), (618, 312), (622, 312), (625, 312), (635, 312), (641, 312), (646, 313), (657, 314), (677, 315), (688, 315), (699, 317), (706, 317), (722, 317), (729, 317), (734, 317), (739, 317), (748, 317), (757, 317)]",344.7053124,"[5, 9, 1, 7, 4, 2, 8, 6, 3]","(0, 0.25)",ENG005A,ENG,A,Chinese,Wed Aug 15 10:55:52 2018,Mouse
2,0,1,0,63,1,1,1,792,192,600,139,0,500,200,8000,"[(512, 384), (512, 384), (512, 384), (512, 384), (512, 384), (512, 384), (512, 384), (512, 384), (512, 384), (512, 384), (512, 384), (512, 384), (512, 384), (512, 384), (512, 384), (512, 384), (512, 384), (512, 384), (512, 384), (511, 385), (509, 385), (508, 385), (505, 385), (499, 385), (493, 385), (486, 385), (474, 385), (445, 385), (430, 385), (413, 385), (398, 385), (379, 385), (372, 385), (370, 385), (369, 385), (369, 385), (369, 385), (369, 385), (369, 385), (367, 388), (367, 389), (367, 392), (367, 393), (367, 395), (367, 395), (367, 397), (368, 400), (374, 401), (376, 401), (378, 401), (382, 401), (385, 403), (387, 403), (389, 403), (391, 403), (397, 404), (401, 405), (404, 405), (408, 406), (412, 407), (415, 409), (416, 410), (418, 412), (422, 418), (423, 422), (423, 428), (427, 439), (434, 463), (435, 475), (437, 491), (439, 503), (444, 530), (445, 544), (446, 556), (450, 570), (452, 593), (454, 605), (455, 616), (456, 627), (460, 646)]",101.2257978,"[5, 9, 1, 7, 4, 2, 8, 6, 3]","(0, 0.25)",ENG005A,ENG,A,Chinese,Wed Aug 15 10:55:52 2018,Mouse
2,0,1,0,64,7,7,1,761,382,379,139,0,500,200,8000,"[(512, 384), (512, 384), (512, 384), (512, 384), (512, 384), (512, 384), (512, 384), (512, 384), (512, 384), (512, 384), (512, 384), (512, 384), (512, 384), (512, 384), (512, 384), (512, 384), (512, 384), (512, 384), (512, 384), (512, 384), (512, 384), (512, 384), (512, 384), (512, 384), (512, 384), (512, 384), (512, 384), (512, 384), (512, 384), (512, 384), (512, 384), (512, 384), (512, 384), (512, 384), (512, 384), (512, 384), (512, 384), (512, 384), (512, 383), (510, 382), (505, 382), (503, 382), (501, 382), (499, 382), (495, 382), (494, 382), (491, 382), (491, 382), (489, 382), (488, 382), (487, 382), (486, 382), (485, 382), (481, 383), (480, 383), (480, 384), (478, 385), (478, 385), (477, 386), (475, 387), (473, 389), (464, 396), (458, 400), (449, 407), (439, 414), (417, 430), (407, 437), (394, 447), (383, 454), (363, 466), (354, 472), (347, 477), (339, 483), (323, 494), (313, 502), (304, 510), (295, 518)]",148.304192,"[5, 9, 1, 7, 4, 2, 8, 6, 3]","(0, 0.25)",ENG005A,ENG,A,Chinese,Wed Aug 15 10:55:52 2018,Mouse
2,0,1,0,65,6,9,0,-646,516,130,138,0,500,200,8000,"[(512, 384), (512, 384), (512, 384), (512, 384), (512, 384), (512, 384), (512, 384), (512, 384), (512, 384), (512, 384), (512, 384), (512, 384), (512, 384), (512, 384), (512, 384), (512, 384), (512, 384), (512, 384), (512, 384), (512, 384), (512, 384), (512, 384), (512, 384), (512, 384), (512, 384), (512, 384), (512, 384), (512, 384), (512, 384), (512, 384), (512, 384), (512, 384), (512, 384), (512, 384), (512, 384), (512, 384), (512, 384), (512, 384), (512, 384), (512, 384), (512, 384), (512, 384), (512, 384), (512, 384), (512, 384), (512, 384), (512, 384), (512, 384), (512, 384), (512, 384), (512, 384), (513, 384), (522, 396), (529, 407), (534, 417), (542, 434), (556, 457), (562, 472), (568, 485), (574, 499), (585, 533), (591, 548), (598, 571), (605, 586), (621, 616)]",64.83456724,"[5, 9, 1, 7, 4, 2, 8, 6, 3]","(0, 0.25)",ENG005A,ENG,A,Chinese,Wed Aug 15 10:55:52 2018,Mouse
2,0,1,0,66,3,7,0,-742,442,300,139,0,500,200,8000,"[(512, 384), (512, 384), (512, 384), (512, 384), (512, 384), (512, 384), (512, 384), (512, 384), (512, 384), (512, 384), (512, 384), (512, 384), (512, 384), (512, 384), (512, 384), (512, 384), (512, 384), (512, 384), (512, 384), (512, 384), (512, 384), (512, 384), (512, 384), (512, 384), (512, 384), (512, 384), (512, 384), (512, 384), (512, 384), (512, 384), (512, 384), (512, 384), (512, 384), (512, 384), (512, 384), (512, 384), (512, 384), (512, 384), (512, 384), (512, 384), (512, 384), (512, 384), (512, 384), (512, 384), (513, 384), (513, 387), (512, 398), (508, 410), (492, 445), (486, 464), (482, 477), (477, 488), (469, 504), (465, 513), (462, 520), (458, 530), (451, 549), (449, 556), (446, 563), (444, 570), (440, 580), (438, 583), (435, 587), (433, 590), (429, 594), (428, 595), (424, 597), (421, 599), (414, 601), (412, 602), (408, 603), (405, 603), (397, 603), (392, 603), (385, 603)]",120.1098176,"[5, 9, 1, 7, 4, 2, 8, 6, 3]","(0, 0.25)",ENG005A,ENG,A,Chinese,Wed Aug 15 10:55:52 2018,Mouse
2,0,1,0,67,8,8,1,1261,410,851,140,0,500,200,8000,"[(512, 384), (512, 384), (512, 384), (512, 384), (512, 384), (512, 384), (512, 384), (512, 384), (512, 384), (512, 384), (512, 384), (512, 384), (512, 384), (512, 384), (512, 384), (512, 384), (512, 384), (512, 384), (512, 384), (512, 384), (512, 384), (512, 384), (512, 384), (512, 384), (512, 384), (512, 384), (512, 384), (512, 384), (512, 384), (512, 384), (512, 384), (512, 384), (512, 384), (512, 384), (512, 384), (512, 384), (512, 384), (512, 384), (512, 384), (512, 384), (512, 383), (512, 383), (512, 383), (512, 383), (512, 383), (512, 383), (512, 383), (512, 383), (512, 383), (512, 383), (512, 383), (512, 383), (512, 383), (512, 383), (512, 383), (512, 383), (512, 383), (512, 383), (512, 383), (512, 383), (512, 383), (512, 383), (512, 383), (512, 383), (512, 383), (512, 383), (512, 383), (512, 383), (512, 383), (512, 383), (512, 383), (512, 383), (512, 383), (512, 383), (512, 383), (512, 383), (512, 383), (512, 383), (512, 383), (512, 383), (512, 383), (512, 383), (512, 383), (512, 383), (512, 383), (512, 383), (512, 383), (512, 383), (512, 383), (512, 383), (512, 383), (512, 383), (512, 383), (512, 383), (512, 383), (512, 383), (512, 383), (512, 383), (512, 383), (512, 383), (512, 383), (512, 383), (512, 383), (512, 383), (512, 383), (512, 383), (512, 383), (512, 383), (512, 383), (512, 383), (512, 383), (512, 383), (512, 383), (512, 383), (512, 375), (512, 362), (512, 336), (512, 317), (512, 292), (512, 270), (512, 228), (512, 208), (512, 191), (512, 174), (512, 143), (512, 128)]",270,"[5, 9, 1, 7, 4, 2, 8, 6, 3]","(0, 0.25)",ENG005A,ENG,A,Chinese,Wed Aug 15 10:55:52 2018,Mouse
2,0,1,0,68,4,5,0,-902,732,170,140,0,500,200,8000,"[(512, 384), (512, 384), (512, 384), (512, 384), (512, 384), (512, 384), (512, 384), (512, 384), (512, 384), (512, 384), (512, 384), (512, 384), (512, 384), (512, 384), (512, 384), (512, 384), (512, 384), (512, 384), (512, 384), (512, 384), (512, 384), (512, 384), (512, 384), (512, 384), (512, 384), (512, 384), (512, 384), (512, 384), (512, 384), (512, 384), (512, 384), (512, 384), (512, 384), (512, 384), (512, 384), (512, 384), (512, 384), (512, 384), (512, 384), (512, 384), (512, 384), (512, 384), (512, 384), (512, 384), (512, 384), (512, 384), (512, 384), (512, 384), (512, 384), (512, 384), (512, 384), (512, 384), (512, 384), (512, 384), (512, 384), (512, 384), (512, 384), (512, 384), (512, 384), (512, 384), (512, 384), (512, 384), (512, 384), (512, 384), (512, 384), (512, 384), (512, 384), (512, 384), (512, 384), (512, 384), (512, 384), (512, 384), (512, 384), (512, 385), (512, 386), (516, 390), (520, 390), (526, 392), (531, 394), (547, 398), (555, 400), (562, 402), (572, 405), (594, 410), (609, 415), (627, 418), (649, 424), (697, 431), (722, 437), (746, 442), (768, 448)]",14.03624347,"[5, 9, 1, 7, 4, 2, 8, 6, 3]","(0, 0.25)",ENG005A,ENG,A,Chinese,Wed Aug 15 10:55:52 2018,Mouse
2,0,1,0,69,2,1,0,-1772,172,1600,141,0,500,200,8000,"[(512, 384), (512, 384), (512, 384), (512, 384), (512, 384), (512, 384), (512, 384), (512, 384), (512, 384), (512, 384), (512, 384), (512, 384), (512, 384), (512, 384), (512, 384), (512, 384), (512, 384), (511, 384), (511, 384), (511, 384), (511, 384), (511, 384), (511, 384), (511, 384), (511, 384), (511, 384), (511, 384), (511, 384), (511, 384), (511, 384), (511, 384), (511, 384), (511, 384), (511, 384), (511, 384), (511, 384), (511, 384), (511, 384), (511, 384), (511, 384), (511, 384), (511, 384), (511, 384), (511, 384), (511, 384), (511, 384), (511, 384), (511, 384), (511, 384), (511, 384), (511, 384), (511, 384), (511, 384), (511, 384), (511, 384), (511, 384), (511, 384), (511, 384), (511, 384), (511, 384), (511, 384), (511, 384), (511, 384), (511, 384), (511, 384), (511, 384), (511, 384), (511, 384), (511, 384), (511, 384), (511, 384), (511, 384), (511, 384), (511, 384), (511, 384), (511, 384), (511, 384), (511, 384), (511, 384), (511, 384), (511, 384), (511, 384), (511, 384), (511, 384), (511, 384), (511, 384), (511, 384), (511, 384), (511, 384), (511, 384), (511, 384), (511, 384), (511, 384), (511, 384), (511, 384), (511, 384), (511, 384), (511, 384), (511, 384), (511, 384), (511, 384), (511, 384), (511, 384), (511, 384), (511, 384), (511, 384), (511, 384), (511, 384), (511, 384), (511, 384), (511, 384), (511, 384), (511, 384), (511, 384), (511, 384), (511, 384), (511, 384), (511, 384), (511, 384), (511, 384), (511, 384), (511, 384), (511, 384), (511, 384), (511, 384), (511, 384), (511, 384), (511, 384), (511, 384), (511, 384), (511, 384), (511, 384), (511, 384), (511, 384), (511, 384), (511, 384), (511, 384), (511, 384), (511, 384), (511, 384), (511, 384), (511, 384), (511, 384), (511, 384), (511, 384), (511, 384), (511, 384), (511, 384), (511, 384), (511, 384), (511, 384), (511, 384), (511, 384), (511, 384), (511, 384), (511, 384), (511, 384), (511, 384), (511, 384), (511, 384), (511, 384), (511, 384), (511, 384), (511, 384), (510, 385), (503, 393), (502, 398), (500, 403), (497, 413), (493, 435), (492, 449), (491, 463), (487, 475), (482, 506), (481, 520), (479, 541), (474, 566), (464, 638)]",100.7013507,"[5, 9, 1, 7, 4, 2, 8, 6, 3]","(0, 0.25)",ENG005A,ENG,A,Chinese,Wed Aug 15 10:55:52 2018,Mouse
2,0,1,0,70,6,6,1,1023,873,150,142,0,500,200,8000,"[(512, 384), (512, 384), (512, 384), (512, 384), (512, 384), (512, 384), (512, 384), (512, 384), (512, 384), (512, 384), (512, 384), (512, 384), (512, 384), (512, 384), (512, 384), (512, 384), (512, 384), (512, 384), (512, 384), (512, 384), (512, 384), (512, 384), (512, 384), (512, 384), (512, 384), (512, 384), (512, 384), (512, 384), (512, 384), (512, 384), (512, 384), (512, 384), (512, 384), (512, 384), (512, 384), (512, 384), (512, 384), (512, 384), (512, 384), (512, 384), (512, 384), (512, 384), (512, 384), (512, 384), (512, 384), (512, 384), (512, 384), (512, 384), (512, 384), (512, 384), (512, 384), (512, 384), (512, 384), (512, 384), (512, 384), (512, 384), (512, 384), (512, 384), (512, 384), (512, 384), (512, 384), (512, 384), (512, 384), (512, 384), (512, 384), (512, 384), (512, 384), (512, 384), (512, 384), (512, 384), (512, 384), (512, 384), (512, 384), (512, 384), (512, 384), (512, 384), (512, 384), (512, 384), (512, 384), (512, 384), (512, 384), (512, 384), (512, 384), (512, 384), (512, 384), (512, 384), (512, 384), (515, 381), (520, 369), (524, 358), (530, 345), (536, 331), (549, 300), (557, 287), (566, 269), (570, 257), (582, 232), (588, 222), (595, 210), (603, 200), (622, 178), (631, 168), (641, 160)]",299.9373328,"[5, 9, 1, 7, 4, 2, 8, 6, 3]","(0, 0.25)",ENG005A,ENG,A,Chinese,Wed Aug 15 10:55:52 2018,Mouse
2,0,1,0,71,4,4,1,544,434,110,142,0,500,200,8000,"[(512, 384), (512, 384), (512, 384), (512, 384), (512, 384), (512, 384), (512, 384), (512, 384), (512, 384), (512, 384), (512, 384), (512, 384), (512, 384), (512, 384), (512, 384), (512, 384), (512, 384), (512, 384), (512, 384), (512, 384), (512, 384), (512, 384), (512, 384), (512, 384), (512, 384), (512, 384), (512, 384), (512, 384), (512, 384), (512, 384), (512, 384), (512, 384), (512, 384), (512, 384), (512, 384), (512, 384), (512, 384), (512, 384), (512, 384), (512, 384), (512, 384), (512, 384), (512, 384), (510, 384), (490, 384), (481, 384), (466, 384), (445, 384), (423, 384), (372, 383), (347, 383), (324, 383), (305, 383), (275, 383), (262, 383)]",180.2291819,"[5, 9, 1, 7, 4, 2, 8, 6, 3]","(0, 0.25)",ENG005A,ENG,A,Chinese,Wed Aug 15 10:55:52 2018,Mouse
2,0,1,0,72,3,7,0,-475,375,100,141,0,500,200,8000,"[(512, 384), (512, 384), (512, 384), (512, 384), (512, 384), (512, 384), (512, 384), (512, 384), (512, 384), (512, 384), (512, 384), (512, 384), (512, 384), (512, 384), (512, 384), (512, 384), (512, 384), (512, 384), (512, 384), (512, 384), (512, 384), (512, 384), (512, 384), (512, 384), (512, 384), (512, 384), (512, 384), (512, 384), (512, 384), (512, 384), (512, 384), (512, 384), (512, 384), (512, 384), (512, 384), (512, 384), (512, 384), (514, 384), (514, 384), (514, 384), (501, 389), (457, 415), (433, 428), (406, 445), (378, 465), (324, 503), (304, 518), (282, 532)]",147.2395998,"[5, 9, 1, 7, 4, 2, 8, 6, 3]","(0, 0.25)",ENG005A,ENG,A,Chinese,Wed Aug 15 10:55:52 2018,Mouse
2,0,1,0,73,8,8,1,1127,617,510,142,0,500,200,8000,"[(512, 384), (512, 384), (512, 384), (512, 384), (512, 384), (512, 384), (512, 384), (512, 384), (512, 384), (512, 384), (512, 384), (512, 384), (512, 384), (512, 384), (512, 384), (512, 384), (512, 384), (512, 384), (512, 384), (512, 384), (512, 384), (512, 384), (512, 384), (512, 384), (512, 384), (512, 384), (512, 384), (512, 384), (512, 384), (512, 384), (512, 384), (512, 384), (512, 384), (512, 384), (512, 384), (512, 384), (512, 384), (512, 384), (512, 384), (512, 384), (512, 384), (512, 384), (512, 384), (512, 384), (512, 384), (512, 384), (512, 384), (512, 384), (512, 384), (512, 384), (512, 384), (512, 384), (512, 384), (512, 384), (512, 384), (512, 384), (512, 384), (512, 384), (512, 384), (512, 384), (512, 384), (527, 384), (533, 384), (542, 384), (547, 384), (556, 384), (558, 384), (558, 384), (558, 384), (558, 384), (558, 384), (558, 384), (558, 384), (558, 384), (558, 384), (558, 384), (558, 384), (558, 384), (558, 384), (558, 384), (558, 384), (558, 384), (558, 384), (558, 384), (558, 384), (558, 384), (558, 384), (559, 382), (559, 378), (558, 369), (557, 365), (556, 359), (554, 351), (549, 332), (546, 322), (542, 311), (539, 297), (531, 269), (524, 252), (519, 240), (514, 229), (506, 212), (499, 202), (494, 194), (489, 186), (479, 173), (475, 168), (474, 164), (471, 160), (469, 152), (467, 146), (466, 142), (465, 136)]",259.2687931,"[5, 9, 1, 7, 4, 2, 8, 6, 3]","(0, 0.25)",ENG005A,ENG,A,Chinese,Wed Aug 15 10:55:52 2018,Mouse
2,0,1,0,74,7,7,1,632,262,370,142,0,500,200,8000,"[(512, 384), (512, 384), (512, 384), (512, 384), (512, 384), (512, 384), (512, 384), (512, 384), (512, 384), (512, 384), (512, 384), (512, 384), (512, 384), (512, 384), (512, 384), (512, 384), (512, 384), (512, 384), (512, 384), (512, 384), (512, 384), (512, 384), (512, 384), (512, 384), (512, 384), (512, 384), (511, 384), (510, 384), (505, 384), (488, 384), (477, 384), (465, 384), (453, 384), (435, 384), (427, 384), (421, 384), (417, 384), (415, 384), (415, 384), (415, 384), (415, 384), (415, 384), (414, 384), (414, 384), (414, 384), (414, 384), (414, 384), (414, 385), (415, 385), (416, 387), (417, 388), (418, 391), (419, 394), (419, 408), (419, 416), (419, 425), (415, 440), (403, 472), (395, 490), (387, 506), (376, 522), (358, 550), (349, 559), (338, 573)]",132.633752,"[5, 9, 1, 7, 4, 2, 8, 6, 3]","(0, 0.25)",ENG005A,ENG,A,Chinese,Wed Aug 15 10:55:52 2018,Mouse
2,0,1,0,75,7,7,1,481,231,250,141,0,500,200,8000,"[(512, 384), (512, 384), (512, 384), (512, 384), (512, 384), (512, 384), (512, 384), (512, 384), (512, 384), (512, 384), (512, 384), (512, 384), (512, 384), (512, 384), (512, 384), (512, 384), (512, 384), (512, 384), (512, 384), (512, 384), (512, 384), (512, 384), (512, 384), (510, 387), (503, 390), (500, 393), (492, 397), (488, 399), (485, 401), (480, 405), (469, 414), (461, 421), (455, 426), (449, 431), (436, 443), (429, 448), (420, 456), (413, 462), (402, 475), (397, 481), (389, 488), (385, 491), (372, 501), (367, 505), (359, 511), (351, 518), (334, 532), (323, 540), (314, 548)]",140.3656309,"[5, 9, 1, 7, 4, 2, 8, 6, 3]","(0, 0.25)",ENG005A,ENG,A,Chinese,Wed Aug 15 10:55:52 2018,Mouse
2,0,1,0,76,3,3,1,551,261,290,140,0,500,200,8000,"[(512, 384), (512, 384), (512, 384), (512, 384), (512, 384), (512, 384), (512, 384), (512, 384), (512, 384), (512, 384), (512, 384), (512, 384), (512, 384), (512, 384), (512, 384), (512, 384), (512, 384), (512, 384), (512, 384), (512, 384), (512, 384), (512, 384), (512, 384), (512, 384), (512, 384), (512, 384), (513, 384), (515, 385), (515, 385), (518, 386), (520, 386), (529, 386), (536, 388), (542, 389), (547, 389), (557, 389), (561, 389), (566, 390), (569, 390), (575, 390), (579, 390), (581, 390), (585, 390), (599, 389), (610, 388), (621, 386), (634, 382), (662, 374), (678, 369), (695, 364), (712, 359), (736, 351), (744, 348), (753, 344), (758, 342), (770, 334)]",349.0321278,"[5, 9, 1, 7, 4, 2, 8, 6, 3]","(0, 0.25)",ENG005A,ENG,A,Chinese,Wed Aug 15 10:55:52 2018,Mouse
2,0,1,0,77,1,1,1,792,232,560,139,0,500,200,8000,"[(512, 384), (512, 384), (512, 384), (512, 384), (512, 384), (512, 384), (512, 384), (512, 384), (512, 384), (512, 384), (512, 384), (512, 384), (512, 384), (512, 384), (512, 384), (512, 384), (512, 384), (512, 384), (512, 384), (512, 384), (512, 384), (512, 384), (512, 384), (508, 382), (499, 381), (488, 380), (475, 379), (444, 374), (420, 369), (401, 367), (384, 365), (361, 361), (353, 361), (349, 360), (347, 360), (347, 360), (347, 360), (346, 359), (346, 359), (346, 359), (346, 359), (346, 359), (346, 359), (346, 359), (346, 359), (345, 359), (345, 359), (345, 359), (345, 360), (347, 361), (352, 361), (356, 362), (367, 363), (372, 364), (376, 366), (384, 367), (390, 371), (392, 371), (395, 372), (399, 374), (402, 376), (403, 376), (404, 377), (409, 384), (410, 391), (413, 400), (414, 411), (419, 439), (421, 457), (427, 479), (434, 499), (443, 530), (446, 544), (448, 555), (448, 566), (452, 587), (452, 596), (453, 604), (453, 613), (453, 630)]",103.486924,"[5, 9, 1, 7, 4, 2, 8, 6, 3]","(0, 0.25)",ENG005A,ENG,A,Chinese,Wed Aug 15 10:55:52 2018,Mouse
2,0,1,0,78,2,7,0,-452,352,100,138,0,500,200,8000,"[(512, 384), (512, 384), (512, 384), (512, 384), (512, 384), (512, 384), (512, 384), (512, 384), (512, 384), (512, 384), (512, 384), (512, 384), (512, 384), (512, 384), (512, 384), (512, 384), (512, 384), (512, 384), (512, 384), (512, 384), (512, 384), (512, 384), (512, 384), (512, 384), (512, 384), (512, 384), (512, 384), (512, 384), (512, 384), (512, 384), (512, 384), (512, 384), (512, 384), (512, 384), (512, 384), (505, 389), (473, 411), (450, 427), (429, 444), (413, 455), (375, 477), (357, 484), (341, 492), (326, 498), (302, 510), (293, 517)]",148.7294417,"[5, 9, 1, 7, 4, 2, 8, 6, 3]","(0, 0.25)",ENG005A,ENG,A,Chinese,Wed Aug 15 10:55:52 2018,Mouse
2,0,1,0,79,6,6,1,1069,529,540,139,0,500,200,8000,"[(512, 384), (512, 384), (512, 384), (512, 384), (512, 384), (512, 384), (512, 384), (512, 384), (512, 384), (512, 384), (512, 384), (512, 384), (512, 384), (512, 384), (512, 384), (512, 384), (512, 384), (512, 384), (512, 384), (512, 384), (512, 384), (512, 384), (512, 384), (512, 384), (512, 384), (512, 384), (512, 384), (512, 384), (512, 384), (512, 384), (512, 384), (512, 384), (512, 384), (512, 384), (512, 384), (512, 384), (512, 384), (512, 384), (512, 384), (512, 384), (512, 384), (512, 384), (512, 384), (512, 384), (512, 384), (512, 384), (512, 384), (512, 384), (512, 384), (512, 384), (512, 384), (512, 384), (513, 384), (511, 382), (510, 381), (510, 381), (510, 381), (510, 381), (510, 381), (510, 381), (510, 381), (510, 381), (510, 381), (510, 381), (510, 381), (510, 381), (510, 381), (510, 381), (510, 381), (509, 381), (509, 381), (509, 380), (509, 379), (510, 379), (510, 379), (510, 379), (510, 379), (511, 378), (511, 378), (511, 378), (511, 378), (511, 378), (511, 378), (511, 378), (511, 378), (511, 378), (511, 376), (513, 374), (514, 371), (517, 360), (519, 353), (523, 342), (525, 332), (530, 310), (535, 297), (541, 283), (547, 268), (559, 242), (565, 227), (571, 218), (578, 205), (589, 186), (592, 177), (595, 170), (599, 165), (605, 154), (608, 151)]",292.3925019,"[5, 9, 1, 7, 4, 2, 8, 6, 3]","(0, 0.25)",ENG005A,ENG,A,Chinese,Wed Aug 15 10:55:52 2018,Mouse
2,0,1,0,80,7,7,1,832,552,280,139,0,500,200,8000,"[(512, 384), (512, 384), (512, 384), (512, 384), (512, 384), (512, 384), (512, 384), (512, 384), (512, 384), (512, 384), (512, 384), (512, 384), (512, 384), (512, 384), (512, 384), (512, 384), (512, 384), (512, 384), (512, 384), (512, 384), (512, 384), (512, 384), (512, 384), (512, 384), (512, 384), (512, 384), (512, 384), (512, 384), (512, 384), (512, 384), (512, 384), (512, 384), (512, 384), (512, 384), (512, 384), (512, 384), (512, 384), (512, 384), (512, 384), (512, 384), (512, 384), (512, 384), (512, 384), (512, 384), (512, 384), (512, 384), (512, 384), (512, 384), (512, 384), (512, 384), (512, 384), (512, 384), (512, 384), (512, 384), (512, 384), (507, 388), (502, 394), (497, 400), (493, 406), (484, 415), (479, 420), (472, 425), (465, 431), (453, 441), (448, 446), (443, 451), (440, 455), (435, 467), (433, 474), (432, 478), (432, 484), (430, 491), (430, 494), (428, 498), (427, 500), (420, 511), (416, 517), (412, 523), (407, 528), (398, 538), (392, 545), (385, 551), (374, 560), (351, 577)]",129.834759,"[5, 9, 1, 7, 4, 2, 8, 6, 3]","(0, 0.25)",ENG005A,ENG,A,Chinese,Wed Aug 15 10:55:52 2018,Mouse
2,0,1,0,81,5,3,0,-961,482,479,138,0,500,200,8000,"[(512, 384), (512, 384), (512, 384), (512, 384), (512, 384), (512, 384), (512, 384), (512, 384), (512, 384), (512, 384), (512, 384), (512, 384), (512, 384), (512, 384), (512, 384), (512, 384), (512, 384), (512, 384), (512, 384), (512, 384), (512, 384), (512, 384), (512, 384), (512, 384), (512, 384), (512, 384), (512, 384), (512, 384), (512, 384), (512, 384), (512, 384), (512, 384), (512, 384), (512, 384), (512, 384), (512, 384), (512, 384), (512, 384), (512, 384), (512, 384), (512, 384), (512, 384), (512, 384), (512, 384), (512, 384), (512, 384), (512, 384), (512, 384), (520, 384), (527, 381), (536, 379), (544, 376), (561, 374), (569, 373), (572, 373), (577, 371), (577, 371), (577, 371), (577, 371), (577, 371), (577, 371), (578, 371), (580, 371), (584, 371), (594, 371), (600, 371), (605, 371), (611, 371), (619, 373), (623, 373), (627, 373), (630, 375), (634, 375), (635, 375), (637, 375), (639, 376), (639, 376), (643, 376), (646, 377), (649, 377), (653, 379), (661, 379), (665, 379), (669, 379), (673, 379), (682, 379), (684, 379), (687, 379), (691, 378), (701, 372), (705, 369), (710, 367), (716, 364), (736, 357), (746, 352), (759, 347), (770, 342)]",350.7538873,"[5, 9, 1, 7, 4, 2, 8, 6, 3]","(0, 0.25)",ENG005A,ENG,A,Chinese,Wed Aug 15 10:55:52 2018,Mouse
2,0,1,0,82,9,9,1,784,644,140,139,0,500,200,8000,"[(512, 384), (512, 384), (512, 384), (512, 384), (512, 384), (512, 384), (512, 384), (512, 384), (512, 384), (512, 384), (512, 384), (512, 384), (512, 384), (512, 384), (512, 384), (512, 384), (512, 384), (512, 384), (512, 384), (512, 384), (512, 384), (512, 384), (512, 384), (512, 384), (512, 384), (512, 384), (512, 384), (512, 384), (512, 384), (512, 384), (512, 384), (512, 384), (512, 384), (512, 384), (512, 384), (512, 384), (512, 384), (512, 384), (512, 384), (512, 384), (512, 384), (512, 384), (512, 384), (512, 384), (512, 384), (512, 384), (512, 384), (512, 384), (512, 384), (512, 384), (512, 384), (512, 384), (512, 384), (512, 384), (512, 384), (512, 384), (512, 384), (512, 384), (512, 384), (512, 384), (512, 384), (512, 384), (512, 384), (512, 384), (511, 389), (511, 401), (517, 412), (532, 442), (544, 462), (556, 481), (567, 498), (583, 521), (591, 532), (595, 545), (601, 556), (611, 580), (617, 591), (623, 603), (626, 614)]",63.63458488,"[5, 9, 1, 7, 4, 2, 8, 6, 3]","(0, 0.25)",ENG005A,ENG,A,Chinese,Wed Aug 15 10:55:52 2018,Mouse
