NativeLangNumber,LanuageNumber,SessionNumber,Block,TrialNum,ConditionNumber,Response,Accuracy,RT,MovementOnsetTime,TimeInMotion,SignalContrast,SignalContrastNumber,StimDisplayTime,MaskTime,MaxResponseTime,MousePositionXY,MouseAngle,WheelOrder,NoiseMuSigma,ParticipantID,LanuageTested,SessionTested,NativeLanuage,Date,ResponseDevice
1,0,4,0,1,3,3,1,612,552,60,153,0,500,200,8000,"[(960, 540), (960, 540), (960, 540), (960, 540), (960, 540), (960, 540), (960, 540), (960, 540), (960, 540), (960, 540), (960, 540), (960, 540), (960, 540), (960, 540), (960, 540), (960, 540), (960, 540), (960, 540), (960, 540), (960, 540), (960, 540), (960, 540), (960, 540), (960, 540), (960, 540), (960, 540), (960, 540), (960, 540), (960, 540), (960, 540), (960, 540), (960, 540), (960, 540), (960, 540), (960, 540), (960, 540), (960, 540), (960, 540), (960, 540), (960, 540), (960, 540), (960, 540), (960, 540), (960, 540), (960, 540), (960, 540), (960, 540), (960, 540), (960, 540), (960, 540), (960, 540), (960, 540), (960, 540), (960, 540), (960, 540), (957, 540), (944, 542), (884, 546), (831, 548), (768, 548), (695, 550), (538, 550)]",178.6425341554694,"[4, 8, 5, 6, 3, 9, 7, 1, 2]","(0, 0.25)",ENG004D,ENG,D,English,Wed Aug 15 14:07:18 2018,Mouse
1,0,4,0,2,6,6,1,659,509,150,153,0,500,200,8000,"[(960, 540), (960, 540), (960, 540), (960, 540), (960, 540), (960, 540), (960, 540), (960, 540), (960, 540), (960, 540), (960, 540), (960, 540), (960, 540), (960, 540), (960, 540), (960, 540), (960, 540), (960, 540), (960, 540), (960, 540), (960, 540), (960, 540), (960, 540), (960, 540), (960, 540), (960, 540), (960, 540), (960, 540), (960, 540), (960, 540), (960, 540), (960, 540), (960, 540), (960, 540), (960, 540), (960, 540), (960, 540), (960, 540), (960, 540), (960, 540), (960, 540), (960, 540), (960, 540), (960, 540), (960, 540), (960, 540), (960, 540), (960, 540), (960, 540), (960, 540), (958, 540), (952, 540), (937, 542), (911, 550), (844, 569), (813, 583), (784, 595), (759, 610), (715, 638), (703, 648), (689, 663), (676, 681), (657, 720), (646, 744), (637, 765), (628, 785)]",143.574462069201,"[4, 8, 5, 6, 3, 9, 7, 1, 2]","(0, 0.25)",ENG004D,ENG,D,English,Wed Aug 15 14:07:18 2018,Mouse
1,0,4,0,3,5,5,1,737,577,160,152,0,500,200,8000,"[(960, 540), (960, 540), (960, 540), (960, 540), (960, 540), (960, 540), (960, 540), (960, 540), (960, 540), (960, 540), (960, 540), (960, 540), (960, 540), (960, 540), (960, 540), (960, 540), (960, 540), (960, 540), (960, 540), (960, 540), (960, 540), (960, 540), (960, 540), (960, 540), (960, 540), (960, 540), (960, 540), (960, 540), (960, 540), (960, 540), (960, 540), (960, 540), (960, 540), (960, 540), (960, 540), (960, 540), (960, 540), (960, 540), (960, 540), (960, 540), (960, 540), (960, 540), (960, 540), (960, 540), (960, 540), (960, 540), (960, 540), (960, 540), (960, 540), (960, 540), (960, 540), (960, 540), (960, 540), (960, 540), (960, 540), (960, 540), (960, 540), (960, 541), (960, 543), (961, 554), (963, 561), (966, 571), (968, 582), (974, 608), (978, 624), (981, 648), (984, 680), (990, 738), (994, 780), (994, 816), (994, 853), (994, 911), (994, 936), (992, 960)]",85.6430249941537,"[4, 8, 5, 6, 3, 9, 7, 1, 2]","(0, 0.25)",ENG004D,ENG,D,English,Wed Aug 15 14:07:18 2018,Mouse
1,0,4,0,4,7,7,1,751,651,100,151,0,500,200,8000,"[(960, 540), (960, 540), (960, 540), (960, 540), (960, 540), (960, 540), (960, 540), (960, 540), (960, 540), (960, 540), (960, 540), (960, 540), (960, 540), (960, 540), (960, 540), (960, 540), (960, 540), (960, 540), (960, 540), (960, 540), (960, 540), (960, 540), (960, 540), (960, 540), (960, 540), (960, 540), (960, 540), (960, 540), (960, 540), (960, 540), (960, 540), (960, 540), (960, 540), (960, 540), (960, 540), (960, 540), (960, 540), (960, 540), (960, 540), (960, 540), (960, 540), (960, 540), (960, 540), (960, 540), (960, 540), (960, 540), (960, 540), (960, 540), (960, 540), (960, 540), (960, 540), (960, 540), (960, 540), (960, 540), (960, 540), (960, 540), (960, 540), (960, 540), (960, 540), (960, 540), (960, 540), (960, 540), (960, 540), (960, 540), (960, 540), (958, 533), (957, 526), (957, 517), (955, 503), (955, 469), (955, 433), (955, 393), (961, 342), (963, 231), (963, 173), (963, 109)]",270.3988040897368,"[4, 8, 5, 6, 3, 9, 7, 1, 2]","(0, 0.25)",ENG004D,ENG,D,English,Wed Aug 15 14:07:18 2018,Mouse
1,0,4,0,5,4,4,1,759,389,370,150,0,500,200,8000,"[(960, 540), (960, 540), (960, 540), (960, 540), (960, 540), (960, 540), (960, 540), (960, 540), (960, 540), (960, 540), (960, 540), (960, 540), (960, 540), (960, 540), (960, 540), (960, 540), (960, 540), (960, 540), (960, 540), (960, 540), (960, 540), (960, 540), (960, 540), (960, 540), (960, 540), (960, 540), (960, 540), (960, 540), (960, 540), (960, 540), (960, 540), (960, 540), (960, 540), (960, 540), (960, 540), (960, 540), (960, 540), (960, 540), (960, 541), (960, 541), (960, 541), (960, 541), (960, 541), (960, 541), (960, 541), (960, 541), (960, 541), (960, 541), (960, 541), (960, 541), (960, 541), (960, 541), (960, 541), (960, 541), (960, 541), (960, 541), (960, 541), (960, 541), (961, 543), (962, 543), (975, 545), (979, 545), (983, 545), (984, 545), (991, 545), (994, 545), (998, 545), (1004, 545), (1027, 545), (1045, 545), (1070, 545), (1107, 545), (1206, 545), (1265, 545), (1317, 545), (1364, 545)]",0.7090699805243126,"[4, 8, 5, 6, 3, 9, 7, 1, 2]","(0, 0.25)",ENG004D,ENG,D,English,Wed Aug 15 14:07:18 2018,Mouse
1,0,4,0,6,1,1,1,760,400,360,149,0,500,200,8000,"[(960, 540), (960, 540), (960, 540), (960, 540), (960, 540), (960, 540), (960, 540), (960, 540), (960, 540), (960, 540), (960, 540), (960, 540), (960, 540), (960, 540), (960, 540), (960, 540), (960, 540), (960, 540), (960, 540), (960, 540), (960, 540), (960, 540), (960, 540), (960, 540), (960, 540), (960, 540), (960, 540), (960, 540), (960, 540), (960, 540), (960, 540), (960, 540), (960, 540), (960, 540), (960, 540), (960, 540), (960, 540), (960, 540), (960, 540), (959, 526), (958, 515), (955, 504), (955, 496), (955, 474), (955, 463), (955, 454), (959, 442), (968, 422), (973, 414), (977, 406), (982, 397), (995, 381), (1000, 372), (1006, 366), (1012, 356), (1024, 343), (1032, 335), (1039, 328), (1046, 322), (1063, 310), (1072, 305), (1081, 298), (1090, 293), (1106, 279), (1113, 273), (1118, 267), (1123, 258), (1126, 246), (1126, 240), (1128, 232), (1129, 225), (1129, 213), (1130, 203), (1131, 197), (1133, 190), (1139, 173)]",296.0002698913543,"[4, 8, 5, 6, 3, 9, 7, 1, 2]","(0, 0.25)",ENG004D,ENG,D,English,Wed Aug 15 14:07:18 2018,Mouse
1,0,4,0,7,7,7,1,1060,30,1030,148,0,500,200,8000,"[(960, 540), (960, 540), (959, 540), (959, 540), (959, 540), (959, 540), (959, 540), (959, 540), (959, 540), (959, 540), (959, 540), (959, 540), (959, 540), (959, 540), (959, 540), (959, 540), (959, 540), (959, 540), (959, 540), (959, 540), (959, 540), (959, 540), (959, 540), (959, 540), (959, 540), (959, 540), (959, 540), (959, 540), (959, 540), (959, 540), (959, 540), (959, 540), (958, 540), (958, 540), (958, 540), (958, 540), (958, 540), (958, 540), (958, 540), (958, 540), (958, 540), (958, 540), (958, 540), (958, 540), (958, 540), (958, 540), (958, 540), (958, 540), (958, 540), (958, 540), (958, 540), (958, 540), (958, 540), (958, 540), (958, 540), (958, 540), (958, 540), (958, 540), (958, 540), (958, 540), (958, 540), (958, 540), (958, 540), (958, 540), (958, 540), (958, 540), (958, 540), (958, 540), (958, 540), (958, 540), (958, 540), (958, 540), (958, 540), (958, 540), (956, 539), (952, 535), (948, 526), (942, 517), (930, 495), (924, 487), (918, 474), (913, 463), (906, 444), (904, 437), (903, 430), (902, 422), (899, 406), (899, 399), (898, 393), (897, 384), (896, 374), (894, 368), (894, 362), (894, 357), (893, 347), (892, 341), (892, 331), (892, 322), (891, 300), (888, 286), (885, 269), (882, 248), (875, 203), (874, 182), (870, 153), (866, 129)]",257.117428145193,"[4, 8, 5, 6, 3, 9, 7, 1, 2]","(0, 0.25)",ENG004D,ENG,D,English,Wed Aug 15 14:07:18 2018,Mouse
1,0,4,0,8,8,8,1,638,429,209,147,0,500,200,8000,"[(960, 540), (960, 540), (960, 540), (960, 540), (960, 540), (960, 540), (960, 540), (960, 540), (960, 540), (960, 540), (960, 540), (960, 540), (960, 540), (960, 540), (960, 540), (960, 540), (960, 540), (960, 540), (960, 540), (960, 540), (960, 540), (960, 540), (960, 540), (960, 540), (960, 540), (960, 540), (960, 540), (960, 540), (960, 540), (960, 540), (960, 540), (960, 540), (960, 540), (960, 540), (960, 540), (960, 540), (960, 540), (960, 540), (960, 540), (960, 540), (960, 540), (960, 540), (960, 546), (961, 559), (963, 567), (964, 575), (967, 582), (973, 600), (978, 616), (981, 630), (986, 648), (999, 688), (1006, 711), (1010, 727), (1014, 746), (1020, 771), (1021, 786), (1026, 799), (1027, 810), (1039, 839), (1054, 866), (1064, 889), (1077, 914), (1096, 949)]",71.60708769155539,"[4, 8, 5, 6, 3, 9, 7, 1, 2]","(0, 0.25)",ENG004D,ENG,D,English,Wed Aug 15 14:07:18 2018,Mouse
1,0,4,0,9,3,3,1,420,90,330,146,0,500,200,8000,"[(960, 540), (960, 540), (960, 540), (960, 540), (960, 540), (960, 540), (960, 540), (960, 540), (959, 540), (958, 540), (957, 540), (957, 540), (957, 540), (956, 540), (956, 540), (955, 540), (955, 540), (955, 540), (955, 540), (955, 540), (955, 540), (953, 540), (953, 540), (953, 540), (953, 540), (953, 540), (951, 540), (951, 540), (951, 541), (951, 541), (949, 541), (947, 541), (945, 541), (940, 543), (921, 545), (904, 545), (877, 545), (838, 545), (727, 545), (666, 545), (610, 545), (552, 545)]",179.2978809865844,"[4, 8, 5, 6, 3, 9, 7, 1, 2]","(0, 0.25)",ENG004D,ENG,D,English,Wed Aug 15 14:07:18 2018,Mouse
1,0,4,0,10,1,1,1,681,561,120,145,0,500,200,8000,"[(960, 540), (960, 540), (960, 540), (960, 540), (960, 540), (960, 540), (960, 540), (960, 540), (960, 540), (960, 540), (960, 540), (960, 540), (960, 540), (960, 540), (960, 540), (960, 540), (960, 540), (960, 540), (960, 540), (960, 540), (960, 540), (960, 540), (960, 540), (960, 540), (960, 540), (960, 540), (960, 540), (960, 540), (960, 540), (960, 540), (960, 540), (960, 540), (960, 540), (960, 540), (960, 540), (960, 540), (960, 540), (960, 540), (960, 540), (960, 540), (960, 540), (960, 540), (960, 540), (960, 540), (960, 540), (960, 540), (960, 540), (960, 540), (960, 540), (960, 540), (960, 540), (960, 540), (960, 540), (960, 540), (960, 540), (960, 540), (959, 536), (959, 530), (964, 519), (974, 501), (1006, 459), (1019, 432), (1043, 403), (1066, 372), (1114, 307), (1140, 278), (1162, 248), (1182, 215), (1211, 146)]",302.49941217668663,"[4, 8, 5, 6, 3, 9, 7, 1, 2]","(0, 0.25)",ENG004D,ENG,D,English,Wed Aug 15 14:07:18 2018,Mouse
1,0,4,0,11,2,2,1,1440,20,1420,144,0,500,200,8000,"[(960, 540), (960, 538), (960, 538), (960, 538), (960, 538), (960, 538), (960, 538), (960, 538), (960, 538), (960, 538), (960, 538), (960, 538), (960, 538), (960, 538), (960, 538), (960, 538), (960, 538), (960, 538), (960, 538), (960, 538), (960, 538), (960, 538), (960, 538), (960, 538), (960, 538), (960, 538), (960, 538), (960, 538), (960, 538), (960, 538), (960, 538), (960, 538), (960, 538), (960, 538), (960, 538), (960, 538), (960, 538), (960, 538), (960, 538), (960, 538), (960, 538), (960, 538), (960, 538), (960, 538), (960, 538), (960, 538), (960, 538), (960, 538), (960, 538), (960, 538), (960, 538), (960, 538), (960, 538), (960, 538), (960, 538), (960, 538), (960, 538), (960, 538), (960, 538), (960, 538), (960, 538), (960, 538), (960, 538), (960, 538), (960, 538), (960, 538), (960, 538), (960, 538), (960, 538), (960, 538), (960, 538), (960, 538), (960, 538), (960, 538), (960, 538), (960, 538), (960, 538), (960, 538), (960, 534), (960, 529), (960, 524), (960, 517), (960, 507), (960, 503), (960, 502), (960, 498), (960, 497), (960, 497), (960, 497), (960, 497), (960, 497), (960, 497), (960, 497), (960, 497), (960, 497), (960, 497), (960, 497), (960, 497), (960, 497), (960, 497), (960, 497), (960, 497), (960, 497), (960, 497), (960, 497), (960, 497), (960, 497), (960, 497), (960, 497), (960, 497), (960, 497), (960, 499), (960, 499), (960, 501), (960, 501), (961, 502), (962, 502), (964, 503), (972, 503), (979, 503), (988, 503), (1000, 503), (1026, 503), (1037, 503), (1051, 503), (1060, 503), (1080, 499), (1088, 497), (1094, 494), (1101, 489), (1117, 477), (1125, 471), (1135, 462), (1145, 451), (1175, 427), (1187, 416), (1202, 406), (1216, 397), (1242, 381), (1254, 374), (1266, 368), (1279, 361), (1303, 351), (1318, 345)]",331.4231909446017,"[4, 8, 5, 6, 3, 9, 7, 1, 2]","(0, 0.25)",ENG004D,ENG,D,English,Wed Aug 15 14:07:18 2018,Mouse
1,0,4,0,12,9,9,1,1319,139,1180,143,0,500,200,8000,"[(960, 540), (960, 540), (960, 540), (960, 540), (960, 540), (960, 540), (960, 540), (960, 540), (960, 540), (960, 540), (960, 540), (960, 540), (960, 540), (960, 542), (960, 543), (960, 543), (960, 543), (960, 543), (960, 543), (960, 543), (960, 543), (960, 543), (960, 543), (960, 543), (960, 543), (960, 543), (960, 543), (960, 543), (960, 545), (960, 545), (960, 545), (960, 545), (960, 545), (960, 545), (960, 545), (960, 545), (960, 545), (959, 546), (959, 546), (959, 546), (959, 546), (959, 546), (959, 546), (959, 546), (959, 546), (959, 548), (960, 551), (962, 553), (963, 555), (966, 558), (967, 560), (969, 562), (971, 563), (973, 565), (975, 567), (976, 568), (982, 571), (985, 573), (988, 574), (988, 574), (989, 575), (989, 575), (989, 575), (989, 575), (989, 575), (989, 575), (989, 575), (989, 575), (989, 575), (989, 575), (991, 575), (991, 575), (991, 575), (992, 575), (992, 575), (993, 575), (993, 575), (994, 574), (994, 574), (994, 574), (995, 574), (995, 573), (996, 572), (996, 572), (996, 572), (997, 572), (997, 572), (997, 572), (997, 572), (997, 572), (997, 572), (997, 572), (997, 572), (997, 572), (997, 572), (997, 572), (997, 572), (997, 572), (997, 572), (997, 572), (997, 572), (997, 572), (997, 572), (997, 572), (997, 572), (997, 572), (997, 572), (997, 572), (997, 572), (997, 571), (995, 569), (991, 568), (986, 566), (976, 563), (970, 560), (964, 555), (956, 551), (940, 538), (931, 530), (919, 519), (908, 510), (874, 483), (857, 468), (836, 451), (818, 434), (783, 393), (763, 370), (744, 344), (728, 322), (698, 284), (683, 266), (666, 245)]",225.09727627243035,"[4, 8, 5, 6, 3, 9, 7, 1, 2]","(0, 0.25)",ENG004D,ENG,D,English,Wed Aug 15 14:07:18 2018,Mouse
1,0,4,0,13,6,6,1,500,410,90,142,0,500,200,8000,"[(960, 540), (960, 540), (960, 540), (960, 540), (960, 540), (960, 540), (960, 540), (960, 540), (960, 540), (960, 540), (960, 540), (960, 540), (960, 540), (960, 540), (960, 540), (960, 540), (960, 540), (960, 540), (960, 540), (960, 540), (960, 540), (960, 540), (960, 540), (960, 540), (960, 540), (960, 540), (960, 540), (960, 540), (960, 540), (960, 540), (960, 540), (960, 540), (960, 540), (960, 540), (960, 540), (960, 540), (960, 540), (960, 540), (960, 540), (960, 540), (943, 552), (927, 564), (905, 580), (876, 603), (821, 651), (794, 676), (765, 703), (730, 736), (660, 800), (623, 831)]",139.18934290248063,"[4, 8, 5, 6, 3, 9, 7, 1, 2]","(0, 0.25)",ENG004D,ENG,D,English,Wed Aug 15 14:07:18 2018,Mouse
1,0,4,0,14,5,5,1,669,59,610,141,0,500,200,8000,"[(960, 540), (960, 540), (960, 540), (960, 540), (960, 540), (961, 539), (961, 539), (962, 538), (962, 538), (962, 538), (962, 538), (962, 538), (962, 538), (962, 538), (962, 538), (962, 538), (962, 538), (962, 538), (962, 538), (962, 538), (962, 538), (962, 538), (962, 538), (962, 538), (962, 538), (962, 538), (962, 538), (962, 538), (962, 538), (962, 538), (962, 538), (962, 538), (962, 538), (962, 538), (962, 538), (962, 538), (962, 538), (962, 538), (962, 538), (962, 538), (962, 538), (962, 538), (962, 538), (962, 538), (962, 538), (962, 538), (962, 538), (962, 538), (963, 542), (964, 574), (964, 597), (964, 619), (964, 644), (964, 684), (962, 699), (961, 713), (961, 725), (961, 763), (961, 789), (961, 814), (958, 837), (946, 882), (941, 899), (938, 910), (933, 923), (924, 938), (922, 942)]",95.39997342332506,"[4, 8, 5, 6, 3, 9, 7, 1, 2]","(0, 0.25)",ENG004D,ENG,D,English,Wed Aug 15 14:07:18 2018,Mouse
1,0,4,0,15,8,3,0,-571,21,550,140,0,500,200,8000,"[(960, 540), (960, 540), (959, 540), (959, 540), (959, 540), (958, 540), (957, 540), (956, 540), (956, 539), (956, 539), (955, 539), (955, 537), (955, 537), (954, 537), (953, 536), (953, 536), (953, 536), (953, 536), (953, 535), (953, 535), (952, 534), (952, 534), (952, 534), (952, 533), (952, 533), (952, 532), (952, 532), (952, 532), (952, 532), (952, 532), (951, 531), (951, 531), (951, 530), (951, 530), (951, 530), (951, 530), (950, 530), (950, 530), (950, 530), (949, 530), (948, 530), (947, 530), (946, 530), (945, 530), (944, 530), (944, 530), (939, 530), (935, 530), (926, 530), (918, 530), (879, 530), (840, 530), (793, 530), (746, 530), (652, 530), (607, 530), (571, 530), (541, 530)]",181.36718149454313,"[4, 8, 5, 6, 3, 9, 7, 1, 2]","(0, 0.25)",ENG004D,ENG,D,English,Wed Aug 15 14:07:18 2018,Mouse
1,0,4,0,16,9,9,1,1869,129,1740,141,0,500,200,8000,"[(960, 540), (960, 540), (960, 540), (960, 540), (960, 540), (960, 540), (960, 540), (960, 540), (960, 540), (960, 540), (960, 540), (960, 540), (959, 540), (959, 540), (959, 540), (959, 540), (959, 541), (959, 541), (959, 541), (959, 541), (959, 541), (959, 541), (959, 541), (959, 541), (959, 541), (959, 541), (959, 541), (959, 541), (959, 541), (959, 541), (959, 541), (959, 541), (959, 541), (959, 541), (959, 541), (959, 541), (959, 541), (959, 541), (959, 541), (959, 541), (959, 541), (959, 541), (959, 541), (959, 541), (959, 541), (959, 541), (959, 541), (959, 541), (959, 541), (959, 541), (959, 541), (959, 541), (959, 541), (959, 541), (959, 541), (959, 541), (959, 541), (959, 541), (959, 541), (959, 541), (959, 541), (959, 541), (959, 541), (959, 541), (959, 541), (959, 541), (959, 541), (959, 541), (959, 541), (959, 541), (959, 541), (959, 541), (959, 541), (959, 541), (959, 541), (959, 541), (959, 541), (959, 541), (959, 541), (959, 541), (959, 541), (959, 541), (959, 541), (959, 541), (959, 541), (959, 541), (959, 541), (959, 541), (959, 541), (959, 541), (959, 541), (959, 541), (959, 541), (959, 541), (959, 541), (959, 541), (959, 541), (959, 541), (959, 541), (959, 541), (959, 541), (959, 541), (959, 540), (959, 539), (959, 539), (959, 538), (959, 538), (959, 538), (959, 538), (959, 538), (959, 538), (959, 538), (959, 538), (959, 538), (959, 538), (959, 538), (959, 538), (959, 538), (959, 538), (959, 538), (959, 538), (959, 538), (959, 538), (959, 538), (959, 538), (959, 538), (959, 538), (959, 538), (959, 538), (959, 538), (959, 538), (959, 538), (959, 538), (959, 538), (959, 538), (959, 538), (959, 538), (959, 538), (959, 538), (959, 538), (959, 538), (959, 538), (959, 538), (959, 538), (959, 538), (959, 538), (959, 538), (959, 538), (959, 538), (959, 538), (959, 538), (959, 538), (959, 538), (959, 538), (959, 538), (959, 537), (959, 534), (957, 532), (954, 529), (941, 519), (935, 515), (925, 510), (919, 504), (902, 492), (892, 484), (884, 477), (874, 469), (858, 454), (850, 447), (841, 439), (833, 431), (819, 418), (813, 412), (804, 405), (800, 399), (790, 388), (783, 382), (777, 378), (770, 373), (755, 363), (749, 360), (741, 356), (735, 352), (713, 336), (690, 320), (669, 303), (649, 285)]",219.34954936614227,"[4, 8, 5, 6, 3, 9, 7, 1, 2]","(0, 0.25)",ENG004D,ENG,D,English,Wed Aug 15 14:07:18 2018,Mouse
1,0,4,0,17,8,8,1,857,57,800,141,0,500,200,8000,"[(960, 540), (960, 540), (960, 540), (960, 540), (960, 540), (960, 539), (960, 539), (960, 539), (960, 538), (960, 538), (960, 538), (960, 538), (960, 538), (960, 538), (960, 538), (960, 538), (960, 538), (960, 538), (960, 538), (960, 538), (960, 538), (960, 538), (960, 538), (960, 538), (960, 538), (960, 538), (960, 538), (960, 538), (960, 538), (960, 538), (960, 538), (960, 538), (960, 538), (960, 538), (960, 538), (960, 538), (960, 538), (960, 538), (960, 538), (960, 538), (958, 538), (957, 538), (957, 538), (956, 539), (956, 539), (955, 540), (955, 540), (953, 543), (952, 545), (952, 548), (952, 549), (951, 556), (951, 557), (951, 559), (951, 560), (951, 561), (951, 562), (951, 563), (950, 565), (950, 568), (949, 570), (949, 574), (948, 579), (948, 587), (948, 592), (948, 596), (948, 599), (947, 607), (947, 616), (947, 624), (948, 635), (954, 660), (960, 675), (967, 693), (972, 704), (985, 730), (994, 745), (1001, 756), (1007, 767), (1021, 791), (1033, 813), (1043, 832), (1056, 849), (1088, 894), (1101, 912), (1109, 923)]",68.7422756722532,"[4, 8, 5, 6, 3, 9, 7, 1, 2]","(0, 0.25)",ENG004D,ENG,D,English,Wed Aug 15 14:07:18 2018,Mouse
1,0,4,0,18,9,9,1,1429,1179,250,140,0,500,200,8000,"[(960, 540), (960, 540), (960, 540), (960, 540), (960, 540), (960, 540), (960, 540), (960, 540), (960, 540), (960, 540), (960, 540), (960, 540), (960, 540), (960, 540), (960, 540), (960, 540), (960, 540), (960, 540), (960, 540), (960, 540), (960, 540), (960, 540), (960, 540), (960, 540), (960, 540), (960, 540), (960, 540), (960, 540), (960, 540), (960, 540), (960, 540), (960, 540), (960, 540), (960, 540), (960, 540), (960, 540), (960, 540), (960, 540), (960, 540), (960, 540), (960, 540), (960, 540), (960, 540), (960, 540), (960, 540), (960, 540), (960, 540), (960, 540), (960, 540), (960, 540), (960, 540), (960, 540), (960, 540), (960, 540), (960, 540), (960, 540), (960, 540), (960, 540), (960, 540), (960, 540), (960, 540), (960, 540), (960, 540), (960, 540), (960, 540), (960, 540), (960, 540), (960, 540), (960, 540), (960, 540), (960, 540), (960, 540), (960, 540), (960, 540), (960, 540), (960, 540), (960, 540), (960, 540), (960, 540), (960, 540), (960, 540), (960, 540), (960, 540), (960, 540), (960, 540), (960, 540), (960, 540), (960, 540), (960, 540), (960, 540), (960, 540), (960, 540), (960, 540), (960, 540), (960, 540), (960, 540), (960, 540), (960, 540), (960, 540), (960, 540), (960, 540), (960, 540), (960, 540), (960, 540), (960, 540), (960, 540), (960, 540), (960, 540), (960, 540), (960, 540), (960, 540), (960, 540), (960, 540), (960, 540), (960, 540), (960, 540), (960, 540), (960, 534), (954, 525), (949, 518), (936, 504), (932, 500), (925, 497), (920, 495), (910, 491), (907, 490), (902, 489), (896, 483), (879, 469), (867, 460), (852, 447), (840, 436), (819, 419), (805, 406), (793, 396), (783, 387), (761, 371), (751, 362), (737, 354), (720, 341), (693, 321), (671, 306), (646, 290)]",218.52604403132767,"[4, 8, 5, 6, 3, 9, 7, 1, 2]","(0, 0.25)",ENG004D,ENG,D,English,Wed Aug 15 14:07:18 2018,Mouse
1,0,4,0,19,4,4,1,958,169,789,139,0,500,200,8000,"[(960, 540), (960, 540), (960, 540), (960, 540), (960, 540), (960, 540), (960, 540), (960, 540), (960, 540), (960, 540), (960, 540), (960, 540), (960, 540), (960, 540), (960, 540), (960, 540), (959, 540), (959, 540), (959, 540), (958, 541), (958, 541), (958, 541), (958, 541), (957, 541), (956, 542), (956, 542), (955, 543), (955, 543), (954, 544), (954, 544), (953, 545), (953, 545), (951, 547), (951, 547), (950, 547), (950, 548), (949, 549), (949, 549), (949, 549), (949, 549), (948, 551), (948, 551), (948, 551), (948, 551), (948, 551), (948, 551), (948, 552), (948, 552), (948, 553), (948, 554), (948, 554), (948, 555), (948, 555), (948, 556), (948, 556), (948, 556), (948, 556), (948, 557), (948, 557), (948, 557), (948, 557), (948, 557), (948, 557), (948, 557), (948, 557), (948, 557), (948, 557), (948, 557), (948, 557), (948, 557), (948, 557), (948, 557), (950, 558), (951, 559), (955, 561), (963, 565), (987, 574), (1003, 579), (1028, 587), (1059, 595), (1103, 607), (1134, 616), (1155, 620), (1181, 628), (1222, 638), (1240, 645), (1257, 650), (1268, 653), (1285, 661), (1295, 665), (1301, 670), (1309, 673), (1320, 680), (1324, 681), (1329, 684), (1334, 686)]",21.324397366493628,"[4, 8, 5, 6, 3, 9, 7, 1, 2]","(0, 0.25)",ENG004D,ENG,D,English,Wed Aug 15 14:07:18 2018,Mouse
1,0,4,0,20,5,5,1,1501,1081,420,138,0,500,200,8000,"[(960, 540), (960, 540), (960, 540), (960, 540), (960, 540), (960, 540), (960, 540), (960, 540), (960, 540), (960, 540), (960, 540), (960, 540), (960, 540), (960, 540), (960, 540), (960, 540), (960, 540), (960, 540), (960, 540), (960, 540), (960, 540), (960, 540), (960, 540), (960, 540), (960, 540), (960, 540), (960, 540), (960, 540), (960, 540), (960, 540), (960, 540), (960, 540), (960, 540), (960, 540), (960, 540), (960, 540), (960, 540), (960, 540), (960, 540), (960, 540), (960, 540), (960, 540), (960, 540), (960, 540), (960, 540), (960, 540), (960, 540), (960, 540), (960, 540), (960, 540), (960, 540), (960, 540), (960, 540), (960, 540), (960, 540), (960, 540), (960, 540), (960, 540), (960, 540), (960, 540), (960, 540), (960, 540), (960, 540), (960, 540), (960, 540), (960, 540), (960, 540), (960, 540), (960, 540), (960, 540), (960, 540), (960, 540), (960, 540), (960, 540), (960, 540), (960, 540), (960, 540), (960, 540), (960, 540), (960, 540), (960, 540), (960, 540), (960, 540), (960, 540), (960, 540), (960, 540), (960, 540), (960, 540), (960, 540), (960, 540), (960, 540), (960, 540), (960, 540), (960, 540), (960, 540), (960, 540), (960, 540), (960, 540), (960, 540), (960, 540), (960, 540), (960, 540), (960, 540), (960, 540), (960, 540), (960, 540), (960, 540), (954, 525), (936, 513), (922, 503), (906, 495), (890, 490), (888, 490), (887, 490), (886, 490), (885, 490), (885, 490), (884, 493), (882, 499), (880, 509), (880, 514), (879, 517), (879, 520), (878, 524), (878, 528), (877, 529), (877, 532), (877, 538), (877, 542), (877, 547), (877, 549), (877, 557), (877, 561), (877, 566), (877, 574), (877, 588), (877, 597), (877, 607), (877, 620), (877, 646), (877, 663), (877, 685), (877, 713), (877, 758), (877, 777), (877, 800), (877, 822), (877, 883), (877, 914), (877, 945)]",101.58173204577102,"[4, 8, 5, 6, 3, 9, 7, 1, 2]","(0, 0.25)",ENG004D,ENG,D,English,Wed Aug 15 14:07:18 2018,Mouse
1,0,4,0,21,7,2,0,-1171,1031,140,137,0,500,200,8000,"[(960, 540), (960, 540), (960, 540), (960, 540), (960, 540), (960, 540), (960, 540), (960, 540), (960, 540), (960, 540), (960, 540), (960, 540), (960, 540), (960, 540), (960, 540), (960, 540), (960, 540), (960, 540), (960, 540), (960, 540), (960, 540), (960, 540), (960, 540), (960, 540), (960, 540), (960, 540), (960, 540), (960, 540), (960, 540), (960, 540), (960, 540), (960, 540), (960, 540), (960, 540), (960, 540), (960, 540), (960, 540), (960, 540), (960, 540), (960, 540), (960, 540), (960, 540), (960, 540), (960, 540), (960, 540), (960, 540), (960, 540), (960, 540), (960, 540), (960, 540), (960, 540), (960, 540), (960, 540), (960, 540), (960, 540), (960, 540), (960, 540), (960, 540), (960, 540), (960, 540), (960, 540), (960, 540), (960, 540), (960, 540), (960, 540), (960, 540), (960, 540), (960, 540), (960, 540), (960, 540), (960, 540), (960, 540), (960, 540), (960, 540), (960, 540), (960, 540), (960, 540), (960, 540), (960, 540), (960, 540), (960, 540), (960, 540), (960, 540), (960, 540), (960, 540), (960, 540), (960, 540), (960, 540), (960, 540), (960, 540), (960, 540), (960, 540), (960, 540), (960, 540), (960, 540), (960, 540), (960, 540), (960, 540), (960, 540), (960, 540), (960, 540), (960, 540), (960, 540), (961, 537), (967, 535), (988, 526), (1001, 524), (1019, 519), (1044, 511), (1094, 497), (1122, 488), (1146, 477), (1173, 464), (1225, 439), (1253, 424), (1280, 407), (1310, 391), (1362, 361)]",335.9978508244328,"[4, 8, 5, 6, 3, 9, 7, 1, 2]","(0, 0.25)",ENG004D,ENG,D,English,Wed Aug 15 14:07:18 2018,Mouse
1,0,4,0,22,6,6,1,439,169,270,138,0,500,200,8000,"[(960, 540), (960, 540), (960, 540), (960, 540), (960, 540), (960, 540), (960, 540), (960, 540), (960, 540), (960, 540), (960, 540), (960, 540), (960, 540), (960, 540), (960, 540), (960, 540), (959, 542), (958, 545), (951, 552), (946, 555), (941, 559), (935, 563), (928, 568), (921, 573), (916, 576), (911, 580), (901, 588), (897, 591), (894, 593), (892, 595), (889, 598), (887, 600), (885, 602), (879, 610), (864, 630), (855, 644), (841, 659), (820, 680), (784, 712), (766, 727), (751, 741), (727, 765), (681, 810), (655, 835)]",135.95484125387222,"[4, 8, 5, 6, 3, 9, 7, 1, 2]","(0, 0.25)",ENG004D,ENG,D,English,Wed Aug 15 14:07:18 2018,Mouse
1,0,4,0,23,6,6,1,290,20,270,138,0,500,200,8000,"[(959, 541), (953, 546), (948, 550), (940, 555), (933, 561), (918, 574), (904, 584), (894, 591), (878, 602), (837, 628), (825, 635), (810, 645), (793, 658), (771, 675), (763, 682), (756, 689), (750, 697), (739, 710), (734, 716), (730, 721), (725, 726), (713, 739), (705, 746), (700, 753), (694, 761), (682, 779), (673, 789), (664, 798), (650, 810)]",138.94518622903757,"[4, 8, 5, 6, 3, 9, 7, 1, 2]","(0, 0.25)",ENG004D,ENG,D,English,Wed Aug 15 14:07:18 2018,Mouse
1,0,4,0,24,3,3,1,459,19,440,137,0,500,200,8000,"[(958, 539), (957, 537), (955, 537), (945, 534), (938, 534), (932, 533), (928, 533), (911, 533), (903, 533), (898, 533), (893, 532), (890, 530), (889, 530), (888, 530), (887, 529), (886, 529), (885, 528), (884, 527), (883, 526), (883, 525), (881, 524), (880, 524), (879, 523), (874, 522), (869, 520), (865, 519), (859, 518), (851, 517), (846, 517), (835, 517), (822, 517), (762, 517), (712, 517), (675, 517), (642, 517), (605, 517), (600, 517), (598, 517), (596, 517), (592, 517), (589, 517), (584, 519), (581, 519), (569, 519), (562, 519), (552, 519)]",182.94644738001233,"[4, 8, 5, 6, 3, 9, 7, 1, 2]","(0, 0.25)",ENG004D,ENG,D,English,Wed Aug 15 14:07:18 2018,Mouse
1,0,4,0,25,8,8,1,648,348,300,136,0,500,200,8000,"[(960, 540), (960, 540), (960, 540), (960, 540), (960, 540), (960, 540), (960, 540), (960, 540), (960, 540), (960, 540), (960, 540), (960, 540), (960, 540), (960, 540), (960, 540), (960, 540), (960, 540), (960, 540), (960, 540), (960, 540), (960, 540), (960, 540), (960, 540), (960, 540), (960, 540), (960, 540), (960, 540), (960, 540), (960, 540), (960, 540), (960, 540), (960, 540), (960, 540), (960, 540), (960, 541), (960, 543), (960, 544), (960, 545), (960, 547), (959, 547), (959, 550), (958, 552), (958, 553), (958, 553), (958, 555), (958, 556), (958, 556), (958, 557), (958, 558), (958, 558), (958, 558), (958, 559), (958, 559), (958, 560), (958, 562), (958, 563), (961, 576), (966, 587), (974, 602), (990, 634), (1030, 698), (1055, 734), (1085, 781), (1115, 820), (1156, 891)]",60.82080996158837,"[4, 8, 5, 6, 3, 9, 7, 1, 2]","(0, 0.25)",ENG004D,ENG,D,English,Wed Aug 15 14:07:18 2018,Mouse
1,0,4,0,26,4,4,1,889,19,870,135,0,500,200,8000,"[(960, 540), (960, 541), (960, 541), (960, 541), (960, 541), (960, 541), (960, 541), (960, 541), (960, 541), (960, 541), (960, 541), (960, 541), (960, 541), (960, 541), (960, 541), (960, 541), (960, 541), (960, 541), (960, 541), (960, 541), (960, 541), (960, 541), (960, 541), (958, 541), (956, 541), (953, 541), (949, 541), (949, 541), (948, 541), (948, 541), (947, 542), (947, 542), (946, 543), (946, 543), (945, 544), (944, 544), (944, 545), (944, 545), (944, 545), (944, 545), (944, 546), (944, 546), (944, 546), (944, 546), (944, 546), (944, 546), (944, 548), (944, 548), (945, 549), (946, 549), (950, 549), (952, 550), (953, 550), (955, 550), (959, 551), (962, 551), (964, 552), (968, 552), (981, 552), (988, 552), (995, 552), (1000, 553), (1009, 554), (1010, 554), (1013, 555), (1013, 555), (1013, 555), (1013, 555), (1013, 555), (1013, 555), (1013, 555), (1013, 555), (1013, 555), (1013, 555), (1013, 555), (1013, 555), (1013, 555), (1013, 555), (1015, 556), (1017, 557), (1020, 559), (1024, 561), (1044, 570), (1066, 575), (1099, 584), (1144, 599), (1260, 630), (1320, 647), (1373, 663)]",16.584627357406745,"[4, 8, 5, 6, 3, 9, 7, 1, 2]","(0, 0.25)",ENG004D,ENG,D,English,Wed Aug 15 14:07:18 2018,Mouse
1,0,4,0,27,1,1,1,929,539,390,134,0,500,200,8000,"[(960, 540), (960, 540), (960, 540), (960, 540), (960, 540), (960, 540), (960, 540), (960, 540), (960, 540), (960, 540), (960, 540), (960, 540), (960, 540), (960, 540), (960, 540), (960, 540), (960, 540), (960, 540), (960, 540), (960, 540), (960, 540), (960, 540), (960, 540), (960, 540), (960, 540), (960, 540), (960, 540), (960, 540), (960, 540), (960, 540), (960, 540), (960, 540), (960, 540), (960, 540), (960, 540), (960, 540), (960, 540), (960, 540), (960, 540), (960, 540), (960, 540), (960, 540), (960, 540), (960, 540), (960, 540), (960, 540), (960, 540), (960, 540), (960, 540), (960, 540), (960, 540), (960, 540), (960, 540), (960, 539), (960, 539), (960, 539), (960, 538), (960, 537), (960, 536), (960, 534), (960, 530), (960, 527), (960, 523), (961, 519), (966, 505), (969, 496), (972, 487), (979, 478), (989, 455), (995, 443), (1000, 431), (1007, 417), (1020, 391), (1027, 379), (1032, 369), (1038, 362), (1046, 348), (1050, 341), (1056, 333), (1059, 328), (1068, 317), (1073, 312), (1078, 307), (1082, 302), (1090, 291), (1093, 286), (1098, 277), (1102, 270), (1115, 248), (1125, 236), (1134, 220), (1148, 200), (1173, 157)]",299.0800011628008,"[4, 8, 5, 6, 3, 9, 7, 1, 2]","(0, 0.25)",ENG004D,ENG,D,English,Wed Aug 15 14:07:18 2018,Mouse
1,0,4,0,28,1,1,1,349,199,150,133,0,500,200,8000,"[(960, 540), (960, 540), (960, 540), (960, 540), (960, 540), (960, 540), (960, 540), (960, 540), (960, 540), (960, 540), (960, 540), (960, 540), (960, 540), (960, 540), (960, 540), (960, 540), (960, 540), (960, 540), (960, 540), (960, 539), (960, 538), (960, 535), (960, 527), (961, 520), (966, 511), (970, 500), (977, 476), (985, 456), (991, 431), (1002, 400), (1030, 321), (1044, 289), (1057, 255), (1069, 219), (1101, 147)]",289.7369014955009,"[4, 8, 5, 6, 3, 9, 7, 1, 2]","(0, 0.25)",ENG004D,ENG,D,English,Wed Aug 15 14:07:18 2018,Mouse
1,0,4,0,29,4,1,0,-449,279,170,132,0,500,200,8000,"[(960, 540), (960, 540), (960, 540), (960, 540), (960, 540), (960, 540), (960, 540), (960, 540), (960, 540), (960, 540), (960, 540), (960, 540), (960, 540), (960, 540), (960, 540), (960, 540), (960, 540), (960, 540), (960, 540), (960, 540), (960, 540), (960, 540), (960, 540), (960, 540), (960, 540), (960, 540), (960, 540), (961, 535), (964, 522), (972, 505), (988, 471), (996, 456), (1003, 438), (1010, 427), (1026, 400), (1033, 385), (1041, 369), (1047, 357), (1056, 328), (1059, 311), (1067, 285), (1073, 253), (1089, 202), (1096, 172), (1106, 144)]",290.23826822556714,"[4, 8, 5, 6, 3, 9, 7, 1, 2]","(0, 0.25)",ENG004D,ENG,D,English,Wed Aug 15 14:07:18 2018,Mouse
1,0,4,0,30,3,3,1,370,100,270,133,0,500,200,8000,"[(960, 540), (960, 540), (960, 540), (960, 540), (960, 540), (960, 540), (960, 540), (960, 540), (960, 540), (959, 542), (958, 542), (956, 542), (950, 542), (949, 543), (946, 544), (943, 545), (940, 547), (937, 548), (935, 549), (932, 550), (920, 555), (912, 557), (903, 559), (893, 561), (878, 567), (872, 567), (865, 570), (859, 571), (840, 576), (825, 578), (804, 581), (780, 584), (722, 592), (677, 594), (633, 594), (594, 594), (490, 598)]",172.96502408956886,"[4, 8, 5, 6, 3, 9, 7, 1, 2]","(0, 0.25)",ENG004D,ENG,D,English,Wed Aug 15 14:07:18 2018,Mouse
1,0,4,0,31,2,2,1,779,259,520,133,0,500,200,8000,"[(960, 540), (960, 540), (960, 540), (960, 540), (960, 540), (960, 540), (960, 540), (960, 540), (960, 540), (960, 540), (960, 540), (960, 540), (960, 540), (960, 540), (960, 540), (960, 540), (960, 540), (960, 540), (960, 540), (960, 540), (960, 540), (960, 540), (960, 540), (960, 540), (960, 540), (961, 538), (961, 537), (961, 534), (961, 534), (961, 534), (960, 532), (959, 531), (959, 531), (959, 531), (959, 530), (958, 529), (958, 529), (958, 529), (958, 529), (958, 529), (958, 529), (958, 529), (958, 529), (958, 529), (958, 529), (958, 529), (958, 529), (958, 529), (958, 529), (958, 529), (958, 529), (958, 529), (958, 529), (958, 529), (958, 529), (958, 529), (958, 529), (958, 529), (958, 529), (958, 529), (958, 529), (958, 529), (958, 529), (959, 529), (959, 529), (960, 529), (964, 529), (968, 529), (972, 527), (980, 524), (1006, 515), (1025, 507), (1045, 498), (1082, 484), (1179, 456), (1229, 442), (1285, 426), (1340, 411)]",341.24900201336857,"[4, 8, 5, 6, 3, 9, 7, 1, 2]","(0, 0.25)",ENG004D,ENG,D,English,Wed Aug 15 14:07:18 2018,Mouse
1,0,4,0,32,7,3,0,-889,689,200,132,0,500,200,8000,"[(960, 540), (960, 540), (960, 540), (960, 540), (960, 540), (960, 540), (960, 540), (960, 540), (960, 540), (960, 540), (960, 540), (960, 540), (960, 540), (960, 540), (960, 540), (960, 540), (960, 540), (960, 540), (960, 540), (960, 540), (960, 540), (960, 540), (960, 540), (960, 540), (960, 540), (960, 540), (960, 540), (960, 540), (960, 540), (960, 540), (960, 540), (960, 540), (960, 540), (960, 540), (960, 540), (960, 540), (960, 540), (960, 540), (960, 540), (960, 540), (960, 540), (960, 540), (960, 540), (960, 540), (960, 540), (960, 540), (960, 540), (960, 540), (960, 540), (960, 540), (960, 540), (960, 540), (960, 540), (960, 540), (960, 540), (960, 540), (960, 540), (960, 540), (960, 540), (960, 540), (960, 540), (960, 540), (960, 540), (960, 540), (960, 540), (960, 540), (960, 540), (960, 540), (959, 539), (956, 539), (950, 539), (941, 539), (931, 539), (920, 539), (909, 539), (886, 539), (875, 539), (863, 539), (851, 539), (818, 539), (798, 539), (770, 539), (745, 539), (678, 539), (647, 539), (622, 539), (597, 539), (567, 539), (554, 539)]",180.14112232425933,"[4, 8, 5, 6, 3, 9, 7, 1, 2]","(0, 0.25)",ENG004D,ENG,D,English,Wed Aug 15 14:07:18 2018,Mouse
1,0,4,0,33,1,3,0,-299,199,100,133,0,500,200,8000,"[(960, 540), (960, 540), (960, 540), (960, 540), (960, 540), (960, 540), (960, 540), (960, 540), (960, 540), (960, 540), (960, 540), (960, 540), (960, 540), (960, 540), (960, 540), (960, 540), (960, 540), (960, 540), (960, 540), (961, 541), (961, 541), (945, 543), (932, 544), (913, 546), (885, 546), (804, 546), (754, 546), (718, 546), (660, 546), (552, 546)]",179.1574757392596,"[4, 8, 5, 6, 3, 9, 7, 1, 2]","(0, 0.25)",ENG004D,ENG,D,English,Wed Aug 15 14:07:18 2018,Mouse
1,0,4,0,34,2,3,0,-170,30,140,134,0,500,200,8000,"[(960, 540), (960, 540), (947, 540), (937, 540), (925, 540), (910, 540), (877, 540), (857, 540), (829, 540), (807, 540), (756, 540), (731, 540), (701, 540), (676, 540), (617, 540), (589, 540), (556, 540)]",180.0,"[4, 8, 5, 6, 3, 9, 7, 1, 2]","(0, 0.25)",ENG004D,ENG,D,English,Wed Aug 15 14:07:18 2018,Mouse
1,0,4,0,35,1,1,1,650,150,500,135,0,500,200,8000,"[(960, 540), (960, 540), (960, 540), (960, 540), (960, 540), (960, 540), (960, 540), (960, 540), (960, 540), (960, 540), (960, 540), (960, 540), (960, 540), (960, 540), (959, 540), (959, 540), (959, 540), (958, 540), (958, 540), (958, 540), (958, 541), (958, 542), (958, 544), (958, 547), (958, 555), (958, 561), (958, 567), (958, 576), (958, 588), (958, 590), (958, 592), (958, 593), (958, 593), (958, 593), (958, 593), (958, 593), (960, 586), (961, 578), (965, 567), (967, 555), (978, 533), (983, 520), (989, 509), (996, 497), (1010, 473), (1016, 463), (1023, 452), (1027, 444), (1034, 432), (1037, 425), (1039, 418), (1043, 412), (1048, 399), (1050, 392), (1054, 382), (1056, 373), (1063, 347), (1066, 335), (1071, 318), (1076, 304), (1091, 264), (1100, 241), (1110, 210), (1122, 181), (1146, 126)]",294.19320898728876,"[4, 8, 5, 6, 3, 9, 7, 1, 2]","(0, 0.25)",ENG004D,ENG,D,English,Wed Aug 15 14:07:18 2018,Mouse
1,0,4,0,36,7,7,1,1110,700,410,135,0,500,200,8000,"[(960, 540), (960, 540), (960, 540), (960, 540), (960, 540), (960, 540), (960, 540), (960, 540), (960, 540), (960, 540), (960, 540), (960, 540), (960, 540), (960, 540), (960, 540), (960, 540), (960, 540), (960, 540), (960, 540), (960, 540), (960, 540), (960, 540), (960, 540), (960, 540), (960, 540), (960, 540), (960, 540), (960, 540), (960, 540), (960, 540), (960, 540), (960, 540), (960, 540), (960, 540), (960, 540), (960, 540), (960, 540), (960, 540), (960, 540), (960, 540), (960, 540), (960, 540), (960, 540), (960, 540), (960, 540), (960, 540), (960, 540), (960, 540), (960, 540), (960, 540), (960, 540), (960, 540), (960, 540), (960, 540), (960, 540), (960, 540), (960, 540), (960, 540), (960, 540), (960, 540), (960, 540), (960, 540), (960, 540), (960, 540), (960, 540), (960, 540), (960, 540), (960, 540), (960, 540), (960, 539), (960, 538), (960, 536), (960, 535), (960, 533), (961, 531), (961, 529), (961, 527), (961, 526), (961, 525), (961, 524), (961, 523), (961, 523), (961, 522), (961, 522), (961, 521), (961, 521), (961, 520), (961, 520), (961, 519), (961, 517), (961, 514), (961, 509), (961, 507), (961, 504), (961, 494), (960, 489), (957, 480), (956, 471), (953, 439), (950, 421), (950, 398), (950, 373), (944, 323), (943, 305), (943, 286), (943, 269), (943, 235), (941, 204), (936, 180), (932, 153), (924, 102)]",265.3013194827006,"[4, 8, 5, 6, 3, 9, 7, 1, 2]","(0, 0.25)",ENG004D,ENG,D,English,Wed Aug 15 14:07:18 2018,Mouse
1,0,4,0,37,5,3,0,-430,250,180,134,0,500,200,8000,"[(960, 540), (960, 540), (960, 540), (960, 540), (960, 540), (960, 540), (960, 540), (960, 540), (960, 540), (960, 540), (960, 540), (960, 540), (960, 540), (960, 540), (960, 540), (960, 540), (960, 540), (960, 540), (960, 540), (960, 540), (960, 540), (960, 540), (960, 540), (960, 540), (959, 540), (959, 541), (958, 542), (958, 542), (958, 542), (957, 543), (956, 543), (955, 544), (954, 545), (950, 546), (942, 548), (930, 551), (915, 554), (893, 560), (794, 568), (736, 570), (661, 570), (573, 570), (401, 570)]",176.9280393336191,"[4, 8, 5, 6, 3, 9, 7, 1, 2]","(0, 0.25)",ENG004D,ENG,D,English,Wed Aug 15 14:07:18 2018,Mouse
1,0,4,0,38,8,8,1,581,441,140,135,0,500,200,8000,"[(960, 540), (960, 540), (960, 540), (960, 540), (960, 540), (960, 540), (960, 540), (960, 540), (960, 540), (960, 540), (960, 540), (960, 540), (960, 540), (960, 540), (960, 540), (960, 540), (960, 540), (960, 540), (960, 540), (960, 540), (960, 540), (960, 540), (960, 540), (960, 540), (960, 540), (960, 540), (960, 540), (960, 540), (960, 540), (960, 540), (960, 540), (960, 540), (960, 540), (960, 540), (960, 540), (960, 540), (960, 540), (960, 540), (960, 540), (960, 540), (960, 540), (960, 540), (960, 540), (961, 540), (962, 542), (962, 545), (965, 556), (970, 565), (975, 576), (983, 590), (1020, 638), (1044, 667), (1075, 704), (1102, 743), (1155, 808), (1179, 835), (1195, 855), (1207, 874)]",53.51629819686117,"[4, 8, 5, 6, 3, 9, 7, 1, 2]","(0, 0.25)",ENG004D,ENG,D,English,Wed Aug 15 14:07:18 2018,Mouse
1,0,4,0,39,3,3,1,399,19,380,135,0,500,200,8000,"[(959, 540), (959, 539), (959, 539), (958, 539), (957, 538), (956, 538), (955, 538), (954, 537), (953, 536), (952, 536), (952, 536), (951, 535), (951, 535), (951, 535), (950, 535), (947, 534), (945, 534), (943, 532), (940, 532), (934, 532), (932, 531), (929, 530), (927, 529), (923, 528), (922, 528), (920, 527), (918, 527), (913, 527), (909, 526), (902, 526), (894, 526), (867, 526), (853, 526), (837, 526), (817, 526), (739, 526), (689, 526), (628, 526), (565, 526), (423, 522)]",181.9198101299555,"[4, 8, 5, 6, 3, 9, 7, 1, 2]","(0, 0.25)",ENG004D,ENG,D,English,Wed Aug 15 14:07:18 2018,Mouse
1,0,4,0,40,9,2,0,-850,60,790,134,0,500,200,8000,"[(960, 540), (960, 540), (960, 540), (960, 540), (960, 540), (959, 540), (957, 540), (957, 540), (957, 540), (957, 540), (957, 540), (957, 540), (957, 540), (957, 540), (957, 540), (957, 540), (957, 540), (957, 540), (957, 540), (957, 540), (955, 539), (954, 538), (953, 538), (951, 537), (950, 537), (949, 537), (946, 534), (945, 534), (944, 534), (944, 534), (943, 533), (942, 532), (941, 532), (941, 531), (941, 531), (939, 531), (937, 529), (936, 527), (926, 515), (917, 504), (904, 490), (889, 472), (863, 442), (852, 428), (840, 413), (834, 401), (824, 380), (822, 373), (820, 367), (819, 362), (819, 360), (819, 360), (819, 360), (819, 360), (819, 359), (819, 359), (819, 359), (819, 359), (819, 359), (819, 359), (819, 360), (820, 361), (821, 364), (822, 366), (823, 367), (824, 369), (827, 374), (830, 378), (832, 381), (835, 384), (841, 390), (848, 395), (856, 399), (867, 405), (908, 418), (933, 425), (968, 432), (1000, 435), (1070, 437), (1095, 437), (1129, 436), (1170, 427), (1251, 400), (1293, 389), (1332, 376)]",336.2092261342228,"[4, 8, 5, 6, 3, 9, 7, 1, 2]","(0, 0.25)",ENG004D,ENG,D,English,Wed Aug 15 14:07:18 2018,Mouse
1,0,4,0,41,9,6,0,-388,258,130,135,0,500,200,8000,"[(960, 540), (960, 540), (960, 540), (960, 540), (960, 540), (960, 540), (960, 540), (960, 540), (960, 540), (960, 540), (960, 540), (960, 540), (960, 540), (960, 540), (960, 540), (960, 540), (960, 540), (960, 540), (960, 540), (960, 540), (960, 540), (960, 540), (960, 540), (960, 540), (960, 540), (957, 540), (949, 544), (936, 551), (907, 568), (889, 576), (869, 588), (851, 596), (807, 616), (787, 628), (766, 640), (736, 658), (668, 707), (624, 737), (574, 770)]",149.21119186929747,"[4, 8, 5, 6, 3, 9, 7, 1, 2]","(0, 0.25)",ENG004D,ENG,D,English,Wed Aug 15 14:07:18 2018,Mouse
1,0,4,0,42,9,9,1,1110,660,450,136,0,500,200,8000,"[(960, 540), (960, 540), (960, 540), (960, 540), (960, 540), (960, 540), (960, 540), (960, 540), (960, 540), (960, 540), (960, 540), (960, 540), (960, 540), (960, 540), (960, 540), (960, 540), (960, 540), (960, 540), (960, 540), (960, 540), (960, 540), (960, 540), (960, 540), (960, 540), (960, 540), (960, 540), (960, 540), (960, 540), (960, 540), (960, 540), (960, 540), (960, 540), (960, 540), (960, 540), (960, 540), (960, 540), (960, 540), (960, 540), (960, 540), (960, 540), (960, 540), (960, 540), (960, 540), (960, 540), (960, 540), (960, 540), (960, 540), (960, 540), (960, 540), (960, 540), (960, 540), (960, 540), (960, 540), (960, 540), (960, 540), (960, 540), (960, 540), (960, 540), (960, 540), (960, 540), (960, 540), (960, 540), (960, 540), (960, 540), (960, 540), (960, 539), (960, 538), (960, 538), (960, 538), (960, 538), (960, 537), (960, 537), (959, 536), (959, 536), (959, 536), (959, 536), (959, 536), (959, 536), (959, 536), (959, 536), (959, 536), (959, 536), (959, 536), (959, 536), (959, 536), (959, 536), (959, 536), (959, 536), (959, 535), (957, 533), (951, 532), (942, 530), (919, 523), (905, 519), (891, 515), (874, 511), (842, 499), (826, 491), (813, 482), (796, 473), (758, 451), (739, 437), (724, 427), (712, 416), (693, 396), (687, 386), (677, 376), (670, 363), (653, 335), (645, 324), (634, 306)]",215.6704603573019,"[4, 8, 5, 6, 3, 9, 7, 1, 2]","(0, 0.25)",ENG004D,ENG,D,English,Wed Aug 15 14:07:18 2018,Mouse
1,0,4,0,43,6,6,1,389,190,199,136,0,500,200,8000,"[(960, 540), (960, 540), (960, 540), (960, 540), (960, 540), (960, 540), (960, 540), (960, 540), (960, 540), (960, 540), (960, 540), (960, 540), (960, 540), (960, 540), (960, 540), (960, 540), (960, 540), (960, 540), (960, 539), (960, 539), (960, 539), (959, 539), (959, 539), (957, 539), (957, 540), (956, 540), (954, 541), (953, 542), (945, 548), (939, 552), (927, 562), (899, 581), (834, 627), (797, 658), (760, 687), (726, 716), (673, 754), (648, 768), (629, 778)]",144.28260977352002,"[4, 8, 5, 6, 3, 9, 7, 1, 2]","(0, 0.25)",ENG004D,ENG,D,English,Wed Aug 15 14:07:18 2018,Mouse
1,0,4,0,44,7,2,0,-641,450,191,135,0,500,200,8000,"[(960, 540), (960, 540), (960, 540), (960, 540), (960, 540), (960, 540), (960, 540), (960, 540), (960, 540), (960, 540), (960, 540), (960, 540), (960, 540), (960, 540), (960, 540), (960, 540), (960, 540), (960, 540), (960, 540), (960, 540), (960, 540), (960, 540), (960, 540), (960, 540), (960, 540), (960, 540), (960, 540), (960, 540), (960, 540), (960, 540), (960, 540), (960, 540), (960, 540), (960, 540), (960, 540), (960, 540), (960, 540), (960, 540), (960, 540), (960, 540), (960, 540), (960, 540), (960, 540), (960, 540), (960, 539), (960, 539), (960, 539), (960, 539), (960, 539), (960, 539), (960, 539), (960, 539), (960, 538), (960, 538), (961, 537), (962, 536), (973, 528), (985, 519), (1007, 507), (1042, 488), (1149, 445), (1211, 417), (1273, 394), (1334, 372)]",335.8104858459758,"[4, 8, 5, 6, 3, 9, 7, 1, 2]","(0, 0.25)",ENG004D,ENG,D,English,Wed Aug 15 14:07:18 2018,Mouse
1,0,4,0,45,2,3,0,-311,171,140,136,0,500,200,8000,"[(960, 540), (960, 540), (960, 540), (960, 540), (960, 540), (960, 540), (960, 540), (960, 540), (960, 540), (960, 540), (960, 540), (960, 540), (960, 540), (960, 540), (960, 540), (960, 540), (960, 540), (957, 540), (955, 540), (951, 540), (940, 540), (929, 539), (915, 538), (900, 538), (861, 538), (834, 538), (807, 535), (774, 535), (693, 535), (646, 535), (598, 531), (548, 529)]",181.5293783553328,"[4, 8, 5, 6, 3, 9, 7, 1, 2]","(0, 0.25)",ENG004D,ENG,D,English,Wed Aug 15 14:07:18 2018,Mouse
1,0,4,0,46,6,6,1,410,90,320,137,0,500,200,8000,"[(960, 540), (960, 540), (960, 540), (960, 540), (960, 540), (960, 540), (960, 540), (960, 540), (960, 541), (960, 541), (959, 544), (957, 546), (955, 547), (950, 551), (945, 554), (938, 561), (936, 563), (933, 564), (930, 568), (924, 572), (919, 576), (912, 581), (903, 587), (882, 602), (868, 611), (855, 618), (839, 626), (814, 643), (802, 649), (791, 657), (780, 665), (758, 682), (748, 691), (732, 703), (719, 714), (689, 741), (679, 750), (667, 761), (659, 767), (645, 781), (641, 789)]",142.0256739612155,"[4, 8, 5, 6, 3, 9, 7, 1, 2]","(0, 0.25)",ENG004D,ENG,D,English,Wed Aug 15 14:07:18 2018,Mouse
1,0,4,0,47,5,5,1,530,230,300,137,0,500,200,8000,"[(960, 540), (960, 540), (960, 540), (960, 540), (960, 540), (960, 540), (960, 540), (960, 540), (960, 540), (960, 540), (960, 540), (960, 540), (960, 540), (960, 540), (960, 540), (960, 540), (960, 540), (960, 540), (960, 540), (960, 540), (960, 540), (960, 540), (959, 540), (959, 540), (959, 540), (959, 540), (957, 540), (956, 542), (955, 543), (954, 546), (953, 548), (953, 551), (952, 554), (951, 558), (951, 565), (949, 572), (948, 583), (944, 607), (942, 627), (937, 648), (929, 676), (917, 721), (913, 742), (905, 770), (898, 798), (889, 844), (885, 868), (884, 882), (881, 894), (878, 916), (877, 924), (876, 931), (876, 937)]",101.94683370641147,"[4, 8, 5, 6, 3, 9, 7, 1, 2]","(0, 0.25)",ENG004D,ENG,D,English,Wed Aug 15 14:07:18 2018,Mouse
1,0,4,0,48,6,6,1,431,121,310,136,0,500,200,8000,"[(960, 540), (960, 540), (960, 540), (960, 540), (960, 540), (960, 540), (960, 540), (960, 540), (960, 540), (960, 540), (960, 540), (960, 540), (959, 541), (958, 542), (956, 542), (953, 545), (951, 546), (946, 549), (944, 550), (942, 550), (936, 553), (935, 553), (934, 553), (932, 554), (932, 554), (932, 554), (931, 554), (930, 554), (928, 555), (925, 556), (919, 558), (909, 562), (886, 574), (873, 581), (863, 589), (855, 598), (832, 631), (819, 653), (804, 680), (788, 712), (750, 775), (730, 806), (709, 836), (689, 860)]",130.26042879357954,"[4, 8, 5, 6, 3, 9, 7, 1, 2]","(0, 0.25)",ENG004D,ENG,D,English,Wed Aug 15 14:07:18 2018,Mouse
1,0,4,0,49,7,7,1,630,440,190,135,0,500,200,8000,"[(960, 540), (960, 540), (960, 540), (960, 540), (960, 540), (960, 540), (960, 540), (960, 540), (960, 540), (960, 540), (960, 540), (960, 540), (960, 540), (960, 540), (960, 540), (960, 540), (960, 540), (960, 540), (960, 540), (960, 540), (960, 540), (960, 540), (960, 540), (960, 540), (960, 540), (960, 540), (960, 540), (960, 540), (960, 540), (960, 540), (960, 540), (960, 540), (960, 540), (960, 540), (960, 540), (960, 540), (960, 540), (960, 540), (960, 540), (960, 540), (960, 540), (960, 540), (960, 540), (962, 532), (963, 529), (963, 525), (964, 521), (964, 514), (964, 508), (964, 500), (964, 494), (964, 475), (964, 463), (963, 449), (963, 431), (963, 391), (963, 363), (963, 336), (962, 304), (953, 238), (948, 200), (944, 163), (937, 122)]",266.8505373237017,"[4, 8, 5, 6, 3, 9, 7, 1, 2]","(0, 0.25)",ENG004D,ENG,D,English,Wed Aug 15 14:07:18 2018,Mouse
1,0,4,0,50,2,3,0,-769,689,80,134,0,500,200,8000,"[(960, 540), (960, 540), (960, 540), (960, 540), (960, 540), (960, 540), (960, 540), (960, 540), (960, 540), (960, 540), (960, 540), (960, 540), (960, 540), (960, 540), (960, 540), (960, 540), (960, 540), (960, 540), (960, 540), (960, 540), (960, 540), (960, 540), (960, 540), (960, 540), (960, 540), (960, 540), (960, 540), (960, 540), (960, 540), (960, 540), (960, 540), (960, 540), (960, 540), (960, 540), (960, 540), (960, 540), (960, 540), (960, 540), (960, 540), (960, 540), (960, 540), (960, 540), (960, 540), (960, 540), (960, 540), (960, 540), (960, 540), (960, 540), (960, 540), (960, 540), (960, 540), (960, 540), (960, 540), (960, 540), (960, 540), (960, 540), (960, 540), (960, 540), (960, 540), (960, 540), (960, 540), (960, 540), (960, 540), (960, 540), (960, 540), (960, 540), (960, 540), (960, 540), (960, 539), (960, 539), (954, 539), (917, 539), (870, 539), (817, 539), (748, 539), (610, 539), (538, 539)]",180.13577173523362,"[4, 8, 5, 6, 3, 9, 7, 1, 2]","(0, 0.25)",ENG004D,ENG,D,English,Wed Aug 15 14:07:18 2018,Mouse
1,0,4,0,51,4,4,1,991,491,500,135,0,500,200,8000,"[(960, 540), (960, 540), (960, 540), (960, 540), (960, 540), (960, 540), (960, 540), (960, 540), (960, 540), (960, 540), (960, 540), (960, 540), (960, 540), (960, 540), (960, 540), (960, 540), (960, 540), (960, 540), (960, 540), (960, 540), (960, 540), (960, 540), (960, 540), (960, 540), (960, 540), (960, 540), (960, 540), (960, 540), (960, 540), (960, 540), (960, 540), (960, 540), (960, 540), (960, 540), (960, 540), (960, 540), (960, 540), (960, 540), (960, 540), (960, 540), (960, 540), (960, 540), (960, 540), (960, 540), (960, 540), (960, 540), (960, 540), (960, 540), (960, 540), (960, 539), (959, 539), (959, 539), (959, 539), (959, 539), (959, 539), (959, 539), (959, 539), (959, 539), (959, 539), (959, 538), (959, 538), (960, 538), (962, 538), (963, 538), (965, 538), (967, 538), (972, 537), (976, 537), (984, 535), (992, 534), (1010, 533), (1019, 532), (1028, 530), (1035, 529), (1049, 527), (1050, 527), (1053, 526), (1053, 526), (1053, 526), (1053, 526), (1053, 526), (1053, 526), (1053, 526), (1053, 526), (1053, 526), (1053, 526), (1053, 526), (1053, 526), (1053, 526), (1054, 526), (1058, 530), (1062, 534), (1069, 545), (1080, 557), (1114, 589), (1143, 615), (1177, 639), (1210, 661), (1299, 722), (1330, 745)]",28.988822521191544,"[4, 8, 5, 6, 3, 9, 7, 1, 2]","(0, 0.25)",ENG004D,ENG,D,English,Wed Aug 15 14:07:18 2018,Mouse
1,0,4,0,52,8,8,1,411,181,230,135,0,500,200,8000,"[(960, 540), (960, 540), (960, 540), (960, 540), (960, 540), (960, 540), (960, 540), (960, 540), (960, 540), (960, 540), (960, 540), (960, 540), (960, 540), (960, 540), (960, 540), (960, 540), (960, 540), (960, 540), (958, 540), (958, 541), (958, 541), (957, 543), (957, 547), (956, 548), (956, 550), (956, 554), (956, 564), (956, 572), (957, 582), (961, 593), (976, 630), (987, 654), (1001, 681), (1012, 705), (1037, 750), (1049, 777), (1064, 804), (1079, 831), (1102, 872), (1109, 887), (1115, 900), (1121, 910)]",66.48444940967002,"[4, 8, 5, 6, 3, 9, 7, 1, 2]","(0, 0.25)",ENG004D,ENG,D,English,Wed Aug 15 14:07:18 2018,Mouse
1,0,4,0,53,7,2,0,-1000,70,930,134,0,500,200,8000,"[(960, 540), (960, 540), (960, 540), (960, 540), (960, 540), (960, 540), (959, 540), (959, 540), (958, 540), (958, 540), (958, 540), (957, 540), (956, 540), (955, 540), (953, 540), (947, 540), (944, 540), (941, 540), (938, 540), (934, 540), (933, 540), (929, 540), (925, 540), (918, 540), (914, 540), (911, 540), (910, 540), (907, 540), (907, 540), (907, 540), (907, 540), (907, 540), (907, 540), (907, 540), (907, 540), (907, 540), (907, 540), (907, 540), (907, 540), (907, 540), (907, 540), (907, 540), (907, 540), (907, 540), (907, 540), (907, 540), (907, 540), (907, 540), (907, 540), (907, 540), (906, 539), (898, 527), (891, 520), (883, 510), (874, 500), (858, 482), (851, 474), (845, 467), (841, 461), (836, 450), (835, 446), (835, 443), (833, 442), (833, 440), (833, 440), (833, 440), (833, 440), (833, 440), (833, 440), (833, 440), (833, 440), (835, 440), (838, 440), (840, 441), (842, 443), (847, 443), (849, 443), (852, 443), (855, 443), (862, 443), (867, 443), (873, 443), (880, 443), (897, 443), (908, 443), (921, 443), (935, 443), (967, 443), (985, 443), (1005, 443), (1025, 443), (1067, 443), (1093, 443), (1124, 439), (1157, 434), (1231, 425), (1261, 421), (1293, 415), (1325, 412), (1382, 401)]",341.7689498875448,"[4, 8, 5, 6, 3, 9, 7, 1, 2]","(0, 0.25)",ENG004D,ENG,D,English,Wed Aug 15 14:07:18 2018,Mouse
1,0,4,0,54,4,4,1,660,510,150,135,0,500,200,8000,"[(960, 540), (960, 540), (960, 540), (960, 540), (960, 540), (960, 540), (960, 540), (960, 540), (960, 540), (960, 540), (960, 540), (960, 540), (960, 540), (960, 540), (960, 540), (960, 540), (960, 540), (960, 540), (960, 540), (960, 540), (960, 540), (960, 540), (960, 540), (960, 540), (960, 540), (960, 540), (960, 540), (960, 540), (960, 540), (960, 540), (960, 540), (960, 540), (960, 540), (960, 540), (960, 540), (960, 540), (960, 540), (960, 540), (960, 540), (960, 540), (960, 540), (960, 540), (960, 540), (960, 540), (960, 540), (960, 540), (960, 540), (960, 540), (960, 540), (960, 540), (959, 541), (959, 541), (960, 542), (960, 542), (962, 543), (965, 544), (970, 546), (977, 549), (1012, 564), (1044, 578), (1089, 592), (1136, 606), (1235, 631), (1280, 645), (1316, 654), (1344, 662)]",17.625486173926465,"[4, 8, 5, 6, 3, 9, 7, 1, 2]","(0, 0.25)",ENG004D,ENG,D,English,Wed Aug 15 14:07:18 2018,Mouse
1,0,4,0,55,3,3,1,479,269,210,135,0,500,200,8000,"[(960, 540), (960, 540), (960, 540), (960, 540), (960, 540), (960, 540), (960, 540), (960, 540), (960, 540), (960, 540), (960, 540), (960, 540), (960, 540), (960, 540), (960, 540), (960, 540), (960, 540), (960, 540), (960, 540), (960, 540), (960, 540), (960, 540), (960, 540), (960, 540), (960, 540), (960, 540), (959, 540), (950, 540), (945, 540), (939, 540), (934, 540), (921, 540), (917, 540), (914, 539), (912, 539), (905, 537), (901, 537), (894, 536), (883, 535), (850, 530), (826, 527), (800, 523), (765, 519), (684, 506), (652, 501), (615, 498), (584, 496), (500, 496)]",185.46384281323662,"[4, 8, 5, 6, 3, 9, 7, 1, 2]","(0, 0.25)",ENG004D,ENG,D,English,Wed Aug 15 14:07:18 2018,Mouse
1,0,4,0,56,5,5,1,599,279,320,134,0,500,200,8000,"[(960, 540), (960, 540), (960, 540), (960, 540), (960, 540), (960, 540), (960, 540), (960, 540), (960, 540), (960, 540), (960, 540), (960, 540), (960, 540), (960, 540), (960, 540), (960, 540), (960, 540), (960, 540), (960, 540), (960, 540), (960, 540), (960, 540), (960, 540), (960, 540), (960, 540), (960, 540), (960, 540), (960, 542), (960, 545), (960, 548), (956, 555), (954, 561), (952, 566), (951, 573), (949, 590), (947, 601), (945, 612), (944, 623), (941, 646), (941, 663), (941, 675), (940, 687), (936, 712), (935, 723), (934, 734), (930, 747), (925, 769), (921, 781), (919, 794), (916, 805), (909, 827), (907, 836), (902, 846), (901, 853), (900, 870), (898, 881), (897, 890), (896, 903), (891, 931), (890, 944)]",99.82989233463745,"[4, 8, 5, 6, 3, 9, 7, 1, 2]","(0, 0.25)",ENG004D,ENG,D,English,Wed Aug 15 14:07:18 2018,Mouse
1,0,4,0,57,6,3,0,-1010,610,400,133,0,500,200,8000,"[(960, 540), (960, 540), (960, 540), (960, 540), (960, 540), (960, 540), (960, 540), (960, 540), (960, 540), (960, 540), (960, 540), (960, 540), (960, 540), (960, 540), (960, 540), (960, 540), (960, 540), (960, 540), (960, 540), (960, 540), (960, 540), (960, 540), (960, 540), (960, 540), (960, 540), (960, 540), (960, 540), (960, 540), (960, 540), (960, 540), (960, 540), (960, 540), (960, 540), (960, 540), (960, 540), (960, 540), (960, 540), (960, 540), (960, 540), (960, 540), (960, 540), (960, 540), (960, 540), (960, 540), (960, 540), (960, 540), (960, 540), (960, 540), (960, 540), (960, 540), (960, 540), (960, 540), (960, 540), (960, 540), (960, 540), (960, 540), (960, 540), (960, 540), (960, 540), (960, 540), (959, 540), (959, 540), (959, 540), (959, 540), (959, 540), (957, 540), (957, 540), (957, 540), (957, 540), (956, 540), (956, 540), (954, 542), (954, 542), (953, 542), (951, 543), (951, 543), (950, 544), (948, 545), (947, 546), (947, 546), (946, 546), (944, 546), (942, 547), (940, 547), (937, 548), (924, 550), (917, 550), (908, 550), (897, 550), (870, 550), (853, 550), (834, 550), (809, 550), (747, 550), (717, 550), (683, 550), (653, 550), (605, 546), (581, 541), (566, 540), (554, 539)]",180.14112232425933,"[4, 8, 5, 6, 3, 9, 7, 1, 2]","(0, 0.25)",ENG004D,ENG,D,English,Wed Aug 15 14:07:18 2018,Mouse
1,0,4,0,58,9,9,1,439,179,260,134,0,500,200,8000,"[(960, 540), (960, 540), (960, 540), (960, 540), (960, 540), (960, 540), (960, 540), (960, 540), (960, 540), (960, 540), (960, 540), (960, 540), (960, 540), (960, 540), (960, 540), (960, 540), (960, 540), (958, 540), (956, 540), (948, 537), (943, 535), (939, 533), (933, 528), (924, 522), (917, 518), (910, 512), (902, 507), (886, 495), (874, 485), (867, 480), (857, 468), (841, 443), (833, 430), (823, 411), (811, 392), (788, 360), (775, 343), (758, 325), (742, 309), (720, 284), (707, 269), (699, 259), (691, 247), (680, 230)]",227.91083782616775,"[4, 8, 5, 6, 3, 9, 7, 1, 2]","(0, 0.25)",ENG004D,ENG,D,English,Wed Aug 15 14:07:18 2018,Mouse
1,0,4,0,59,8,8,1,440,230,210,134,0,500,200,8000,"[(960, 540), (960, 540), (960, 540), (960, 540), (960, 540), (960, 540), (960, 540), (960, 540), (960, 540), (960, 540), (960, 540), (960, 540), (960, 540), (960, 540), (960, 540), (960, 540), (960, 540), (960, 540), (960, 540), (960, 540), (960, 540), (960, 540), (963, 546), (966, 554), (969, 562), (974, 577), (995, 629), (1007, 655), (1018, 681), (1033, 706), (1053, 748), (1059, 763), (1064, 780), (1066, 792), (1078, 828), (1081, 844), (1084, 856), (1089, 869), (1092, 884), (1095, 893), (1096, 896), (1098, 899), (1101, 910), (1106, 919)]",68.93210408463199,"[4, 8, 5, 6, 3, 9, 7, 1, 2]","(0, 0.25)",ENG004D,ENG,D,English,Wed Aug 15 14:07:18 2018,Mouse
1,0,4,0,60,2,8,0,-461,141,320,133,0,500,200,8000,"[(960, 540), (960, 540), (960, 540), (960, 540), (960, 540), (960, 540), (960, 540), (960, 540), (960, 540), (960, 540), (960, 540), (960, 540), (960, 540), (960, 540), (959, 541), (959, 541), (959, 541), (959, 541), (959, 541), (959, 541), (959, 543), (959, 546), (961, 556), (965, 564), (971, 574), (977, 583), (989, 600), (993, 605), (998, 613), (1002, 620), (1013, 638), (1020, 651), (1036, 671), (1048, 693), (1070, 731), (1081, 745), (1094, 762), (1099, 771), (1108, 784), (1110, 788), (1113, 793), (1115, 798), (1123, 813), (1131, 826), (1142, 845), (1155, 869), (1188, 924)]",59.30027744918559,"[4, 8, 5, 6, 3, 9, 7, 1, 2]","(0, 0.25)",ENG004D,ENG,D,English,Wed Aug 15 14:07:18 2018,Mouse
1,0,4,0,61,8,8,1,419,149,270,134,0,500,200,8000,"[(960, 540), (960, 540), (960, 540), (960, 540), (960, 540), (960, 540), (960, 540), (960, 540), (960, 540), (960, 540), (960, 540), (960, 540), (960, 540), (960, 540), (960, 539), (959, 539), (957, 539), (956, 539), (955, 539), (954, 539), (954, 539), (954, 539), (954, 539), (954, 539), (954, 539), (954, 539), (954, 539), (953, 539), (953, 539), (953, 539), (953, 542), (956, 546), (960, 554), (966, 564), (1004, 613), (1033, 647), (1063, 679), (1098, 714), (1160, 786), (1186, 817), (1202, 840), (1214, 859)]",51.47185550384196,"[4, 8, 5, 6, 3, 9, 7, 1, 2]","(0, 0.25)",ENG004D,ENG,D,English,Wed Aug 15 14:07:18 2018,Mouse
1,0,4,0,62,7,7,1,708,78,630,134,0,500,200,8000,"[(960, 540), (960, 540), (960, 540), (960, 540), (960, 540), (960, 540), (960, 540), (960, 538), (960, 538), (960, 538), (960, 537), (960, 537), (960, 537), (960, 537), (960, 537), (960, 537), (960, 537), (960, 537), (960, 537), (960, 537), (960, 537), (960, 537), (960, 537), (960, 537), (960, 537), (960, 537), (960, 537), (960, 537), (960, 537), (960, 537), (960, 537), (960, 537), (960, 537), (960, 537), (960, 537), (960, 537), (960, 537), (960, 537), (960, 537), (961, 537), (961, 537), (961, 537), (961, 537), (961, 537), (961, 537), (961, 537), (961, 537), (961, 537), (961, 537), (961, 537), (961, 537), (961, 537), (961, 537), (961, 535), (961, 531), (954, 519), (949, 510), (945, 502), (943, 490), (934, 463), (933, 448), (931, 433), (931, 413), (928, 364), (928, 339), (928, 309), (924, 277), (923, 212), (917, 177), (914, 146), (914, 109)]",263.9079667664642,"[4, 8, 5, 6, 3, 9, 7, 1, 2]","(0, 0.25)",ENG004D,ENG,D,English,Wed Aug 15 14:07:18 2018,Mouse
1,0,4,0,63,8,8,1,370,240,130,133,0,500,200,8000,"[(960, 540), (960, 540), (960, 540), (960, 540), (960, 540), (960, 540), (960, 540), (960, 540), (960, 540), (960, 540), (960, 540), (960, 540), (960, 540), (960, 540), (960, 540), (960, 540), (960, 540), (960, 540), (960, 540), (960, 540), (960, 540), (960, 540), (960, 540), (960, 543), (960, 546), (962, 550), (963, 554), (967, 565), (969, 573), (973, 585), (981, 603), (1010, 670), (1034, 716), (1055, 759), (1083, 801), (1136, 883), (1158, 927)]",62.9044475062482,"[4, 8, 5, 6, 3, 9, 7, 1, 2]","(0, 0.25)",ENG004D,ENG,D,English,Wed Aug 15 14:07:18 2018,Mouse
1,0,4,0,64,4,3,0,-829,139,690,132,0,500,200,8000,"[(960, 540), (960, 540), (960, 540), (960, 540), (960, 540), (960, 540), (960, 540), (960, 540), (960, 540), (960, 540), (960, 540), (960, 540), (960, 540), (958, 540), (958, 540), (958, 540), (957, 540), (957, 540), (957, 540), (957, 540), (957, 540), (957, 540), (957, 540), (957, 540), (957, 540), (957, 540), (957, 540), (957, 540), (957, 540), (955, 540), (955, 540), (955, 540), (955, 540), (954, 540), (954, 540), (954, 540), (954, 540), (954, 540), (954, 540), (953, 540), (953, 540), (951, 542), (950, 542), (948, 544), (946, 545), (940, 549), (935, 551), (933, 552), (929, 555), (917, 559), (911, 561), (903, 563), (894, 566), (873, 573), (863, 576), (853, 579), (843, 582), (823, 591), (813, 595), (803, 601), (793, 608), (770, 625), (759, 634), (749, 642), (736, 652), (718, 663), (711, 667), (706, 668), (703, 669), (702, 669), (701, 669), (700, 669), (698, 669), (689, 654), (682, 641), (675, 629), (667, 619), (649, 594), (638, 583), (624, 572), (612, 562), (578, 546), (555, 535)]",180.70731936854423,"[4, 8, 5, 6, 3, 9, 7, 1, 2]","(0, 0.25)",ENG004D,ENG,D,English,Wed Aug 15 14:07:18 2018,Mouse
1,0,4,0,65,6,3,0,-560,220,340,133,0,500,200,8000,"[(960, 540), (960, 540), (960, 540), (960, 540), (960, 540), (960, 540), (960, 540), (960, 540), (960, 540), (960, 540), (960, 540), (960, 540), (960, 540), (960, 540), (960, 540), (960, 540), (960, 540), (960, 540), (960, 540), (960, 540), (960, 540), (958, 541), (958, 541), (957, 542), (957, 542), (957, 542), (957, 542), (956, 542), (956, 542), (956, 542), (956, 542), (954, 542), (954, 542), (954, 542), (954, 543), (954, 543), (952, 544), (949, 545), (945, 547), (941, 549), (938, 551), (932, 553), (931, 553), (928, 553), (927, 553), (919, 553), (914, 553), (907, 553), (899, 553), (871, 553), (843, 553), (813, 553), (766, 553), (660, 553), (602, 553), (541, 553)]",178.22289673365665,"[4, 8, 5, 6, 3, 9, 7, 1, 2]","(0, 0.25)",ENG004D,ENG,D,English,Wed Aug 15 14:07:18 2018,Mouse
1,0,4,0,66,5,8,0,-599,19,580,134,0,500,200,8000,"[(960, 540), (960, 539), (959, 539), (957, 537), (953, 536), (953, 536), (951, 536), (951, 536), (950, 536), (949, 536), (949, 536), (949, 536), (949, 536), (948, 536), (948, 535), (947, 535), (947, 535), (947, 535), (947, 535), (947, 535), (947, 535), (947, 535), (947, 535), (947, 535), (947, 535), (947, 535), (947, 535), (947, 535), (946, 535), (946, 535), (945, 535), (945, 535), (945, 537), (945, 540), (945, 543), (945, 545), (945, 553), (944, 558), (943, 561), (942, 564), (941, 568), (941, 568), (940, 570), (939, 571), (937, 572), (937, 572), (936, 575), (934, 577), (932, 583), (931, 586), (931, 590), (931, 594), (931, 605), (932, 615), (942, 636), (959, 670), (1033, 779), (1065, 836), (1105, 886), (1149, 932)]",64.25929164376716,"[4, 8, 5, 6, 3, 9, 7, 1, 2]","(0, 0.25)",ENG004D,ENG,D,English,Wed Aug 15 14:07:18 2018,Mouse
1,0,4,0,67,3,3,1,299,79,220,135,0,500,200,8000,"[(960, 540), (960, 540), (960, 540), (960, 540), (960, 540), (960, 540), (960, 540), (959, 539), (954, 538), (948, 536), (938, 535), (911, 532), (897, 529), (882, 528), (870, 528), (852, 525), (843, 524), (836, 523), (829, 522), (814, 518), (806, 517), (796, 516), (786, 514), (764, 511), (750, 507), (735, 506), (714, 502), (659, 499), (612, 499), (562, 499)]",185.88158227279143,"[4, 8, 5, 6, 3, 9, 7, 1, 2]","(0, 0.25)",ENG004D,ENG,D,English,Wed Aug 15 14:07:18 2018,Mouse
1,0,4,0,68,8,8,1,389,59,330,135,0,500,200,8000,"[(960, 540), (960, 540), (960, 540), (960, 540), (960, 540), (961, 540), (961, 540), (964, 543), (965, 549), (965, 552), (967, 558), (969, 563), (975, 579), (978, 586), (980, 592), (983, 598), (988, 610), (989, 617), (991, 623), (995, 632), (1002, 652), (1008, 664), (1016, 676), (1025, 691), (1044, 717), (1052, 728), (1058, 736), (1066, 744), (1077, 759), (1084, 768), (1090, 775), (1095, 784), (1110, 802), (1121, 814), (1133, 829), (1141, 839), (1159, 861), (1168, 871), (1177, 880)]",57.452544119166106,"[4, 8, 5, 6, 3, 9, 7, 1, 2]","(0, 0.25)",ENG004D,ENG,D,English,Wed Aug 15 14:07:18 2018,Mouse
1,0,4,0,69,6,3,0,-330,110,220,134,0,500,200,8000,"[(960, 540), (960, 540), (960, 540), (960, 540), (960, 540), (960, 540), (960, 540), (960, 540), (960, 540), (960, 540), (959, 539), (959, 539), (954, 539), (952, 539), (952, 539), (950, 539), (948, 539), (946, 539), (944, 539), (944, 539), (939, 539), (935, 539), (929, 539), (917, 539), (872, 542), (833, 542), (794, 542), (758, 542), (669, 542), (625, 542), (591, 542), (563, 542), (510, 542)]",179.74535376772715,"[4, 8, 5, 6, 3, 9, 7, 1, 2]","(0, 0.25)",ENG004D,ENG,D,English,Wed Aug 15 14:07:18 2018,Mouse
1,0,4,0,70,4,4,1,759,159,600,135,0,500,200,8000,"[(960, 540), (960, 540), (960, 540), (960, 540), (960, 540), (960, 540), (960, 540), (960, 540), (960, 540), (960, 540), (960, 540), (960, 540), (960, 540), (960, 540), (960, 540), (961, 540), (962, 540), (962, 540), (963, 540), (963, 540), (963, 540), (963, 541), (963, 541), (963, 541), (963, 541), (963, 541), (963, 541), (963, 541), (963, 541), (963, 541), (963, 541), (963, 541), (963, 541), (964, 542), (969, 545), (974, 547), (981, 551), (993, 557), (1020, 566), (1040, 573), (1051, 577), (1072, 583), (1111, 595), (1126, 601), (1144, 608), (1169, 617), (1215, 633), (1232, 638), (1248, 646), (1265, 651), (1287, 661), (1297, 664), (1302, 667), (1304, 668), (1306, 669), (1306, 669), (1306, 669), (1306, 669), (1307, 669), (1307, 670), (1307, 670), (1307, 671), (1307, 671), (1307, 671), (1307, 671), (1307, 671), (1307, 671), (1307, 671), (1307, 671), (1307, 671), (1307, 671), (1307, 671), (1307, 671), (1308, 672), (1325, 675), (1337, 680)]",20.372619311110558,"[4, 8, 5, 6, 3, 9, 7, 1, 2]","(0, 0.25)",ENG004D,ENG,D,English,Wed Aug 15 14:07:18 2018,Mouse
1,0,4,0,71,5,2,0,-771,681,90,135,0,500,200,8000,"[(960, 540), (960, 540), (960, 540), (960, 540), (960, 540), (960, 540), (960, 540), (960, 540), (960, 540), (960, 540), (960, 540), (960, 540), (960, 540), (960, 540), (960, 540), (960, 540), (960, 540), (960, 540), (960, 540), (960, 540), (960, 540), (960, 540), (960, 540), (960, 540), (960, 540), (960, 540), (960, 540), (960, 540), (960, 540), (960, 540), (960, 540), (960, 540), (960, 540), (960, 540), (960, 540), (960, 540), (960, 540), (960, 540), (960, 540), (960, 540), (960, 540), (960, 540), (960, 540), (960, 540), (960, 540), (960, 540), (960, 540), (960, 540), (960, 540), (960, 540), (960, 540), (960, 540), (960, 540), (960, 540), (960, 540), (960, 540), (960, 540), (960, 540), (960, 540), (960, 540), (960, 540), (960, 540), (960, 540), (960, 540), (960, 540), (960, 540), (960, 540), (960, 540), (960, 538), (966, 532), (990, 519), (1013, 510), (1048, 493), (1092, 480), (1192, 452), (1242, 436), (1295, 415), (1346, 393)]",339.1517147442281,"[4, 8, 5, 6, 3, 9, 7, 1, 2]","(0, 0.25)",ENG004D,ENG,D,English,Wed Aug 15 14:07:18 2018,Mouse
1,0,4,0,72,5,5,1,680,240,440,136,0,500,200,8000,"[(960, 540), (960, 540), (960, 540), (960, 540), (960, 540), (960, 540), (960, 540), (960, 540), (960, 540), (960, 540), (960, 540), (960, 540), (960, 540), (960, 540), (960, 540), (960, 540), (960, 540), (960, 540), (960, 540), (960, 540), (960, 540), (960, 540), (960, 540), (959, 540), (958, 540), (953, 540), (950, 541), (940, 547), (934, 551), (927, 555), (919, 561), (903, 573), (899, 576), (892, 582), (889, 582), (886, 586), (884, 587), (884, 587), (883, 587), (883, 587), (883, 587), (883, 587), (883, 587), (883, 587), (883, 587), (883, 587), (883, 587), (882, 589), (881, 591), (881, 593), (881, 595), (880, 602), (880, 609), (880, 616), (880, 624), (880, 645), (880, 657), (880, 671), (880, 684), (885, 727), (888, 748), (891, 767), (892, 782), (899, 820), (900, 848), (902, 874), (902, 894), (908, 944)]",97.33437880141672,"[4, 8, 5, 6, 3, 9, 7, 1, 2]","(0, 0.25)",ENG004D,ENG,D,English,Wed Aug 15 14:07:18 2018,Mouse
1,0,4,0,73,2,2,1,659,529,130,136,0,500,200,8000,"[(960, 540), (960, 540), (960, 540), (960, 540), (960, 540), (960, 540), (960, 540), (960, 540), (960, 540), (960, 540), (960, 540), (960, 540), (960, 540), (960, 540), (960, 540), (960, 540), (960, 540), (960, 540), (960, 540), (960, 540), (960, 540), (960, 540), (960, 540), (960, 540), (960, 540), (960, 540), (960, 540), (960, 540), (960, 540), (960, 540), (960, 540), (960, 540), (960, 540), (960, 540), (960, 540), (960, 540), (960, 540), (960, 540), (960, 540), (960, 540), (960, 540), (960, 540), (960, 540), (960, 540), (960, 540), (960, 540), (960, 540), (960, 540), (960, 540), (960, 540), (960, 540), (960, 540), (960, 538), (963, 536), (972, 531), (979, 528), (987, 524), (997, 518), (1038, 498), (1064, 488), (1098, 472), (1138, 455), (1220, 424), (1263, 405), (1303, 390), (1350, 376)]",337.1926222612002,"[4, 8, 5, 6, 3, 9, 7, 1, 2]","(0, 0.25)",ENG004D,ENG,D,English,Wed Aug 15 14:07:18 2018,Mouse
1,0,4,0,74,1,1,1,757,627,130,135,0,500,200,8000,"[(960, 540), (960, 540), (960, 540), (960, 540), (960, 540), (960, 540), (960, 540), (960, 540), (960, 540), (960, 540), (960, 540), (960, 540), (960, 540), (960, 540), (960, 540), (960, 540), (960, 540), (960, 540), (960, 540), (960, 540), (960, 540), (960, 540), (960, 540), (960, 540), (960, 540), (960, 540), (960, 540), (960, 540), (960, 540), (960, 540), (960, 540), (960, 540), (960, 540), (960, 540), (960, 540), (960, 540), (960, 540), (960, 540), (960, 540), (960, 540), (960, 540), (960, 540), (960, 540), (960, 540), (960, 540), (960, 540), (960, 540), (960, 540), (960, 540), (960, 540), (960, 540), (960, 540), (960, 540), (960, 540), (960, 540), (960, 540), (960, 540), (960, 540), (960, 540), (960, 540), (960, 540), (960, 540), (960, 538), (963, 524), (967, 515), (974, 504), (985, 486), (1018, 446), (1036, 423), (1054, 400), (1075, 371), (1118, 315), (1137, 287), (1157, 254), (1172, 229), (1198, 178)]",303.323262169046,"[4, 8, 5, 6, 3, 9, 7, 1, 2]","(0, 0.25)",ENG004D,ENG,D,English,Wed Aug 15 14:07:18 2018,Mouse
1,0,4,0,75,2,2,1,552,452,100,134,0,500,200,8000,"[(960, 540), (960, 540), (960, 540), (960, 540), (960, 540), (960, 540), (960, 540), (960, 540), (960, 540), (960, 540), (960, 540), (960, 540), (960, 540), (960, 540), (960, 540), (960, 540), (960, 540), (960, 540), (960, 540), (960, 540), (960, 540), (960, 540), (960, 540), (960, 540), (960, 540), (960, 540), (960, 540), (960, 540), (960, 540), (960, 540), (960, 540), (960, 540), (960, 540), (960, 540), (960, 540), (960, 540), (960, 540), (960, 540), (960, 540), (960, 540), (960, 540), (960, 540), (960, 540), (960, 540), (960, 540), (962, 536), (971, 524), (1001, 499), (1026, 481), (1056, 465), (1089, 447), (1160, 416), (1203, 398), (1240, 381), (1282, 368), (1348, 341)]",332.84732040668206,"[4, 8, 5, 6, 3, 9, 7, 1, 2]","(0, 0.25)",ENG004D,ENG,D,English,Wed Aug 15 14:07:18 2018,Mouse
1,0,4,0,76,2,2,1,271,41,230,133,0,500,200,8000,"[(960, 540), (960, 540), (960, 540), (960, 540), (960, 539), (961, 537), (964, 532), (975, 520), (981, 513), (988, 506), (995, 497), (1017, 480), (1026, 472), (1038, 461), (1049, 453), (1069, 436), (1078, 425), (1088, 416), (1098, 408), (1125, 391), (1139, 384), (1156, 377), (1176, 370), (1214, 356), (1234, 350), (1254, 343), (1276, 337), (1318, 326)]",329.130479862414,"[4, 8, 5, 6, 3, 9, 7, 1, 2]","(0, 0.25)",ENG004D,ENG,D,English,Wed Aug 15 14:07:18 2018,Mouse
1,0,4,0,77,5,4,0,-549,479,70,132,0,500,200,8000,"[(960, 540), (960, 540), (960, 540), (960, 540), (960, 540), (960, 540), (960, 540), (960, 540), (960, 540), (960, 540), (960, 540), (960, 540), (960, 540), (960, 540), (960, 540), (960, 540), (960, 540), (960, 540), (960, 540), (960, 540), (960, 540), (960, 540), (960, 540), (960, 540), (960, 540), (960, 540), (960, 540), (960, 540), (960, 540), (960, 540), (960, 540), (960, 540), (960, 540), (960, 540), (960, 540), (960, 540), (960, 540), (960, 540), (960, 540), (960, 540), (960, 540), (960, 540), (960, 540), (960, 540), (960, 540), (960, 540), (960, 540), (969, 542), (989, 547), (1016, 552), (1108, 579), (1157, 593), (1221, 612), (1285, 634), (1416, 676)]",16.606980578617005,"[4, 8, 5, 6, 3, 9, 7, 1, 2]","(0, 0.25)",ENG004D,ENG,D,English,Wed Aug 15 14:07:18 2018,Mouse
1,0,4,0,78,7,7,1,389,269,120,133,0,500,200,8000,"[(960, 540), (960, 540), (960, 540), (960, 540), (960, 540), (960, 540), (960, 540), (960, 540), (960, 540), (960, 540), (960, 540), (960, 540), (960, 540), (960, 540), (960, 540), (960, 540), (960, 540), (960, 540), (960, 540), (960, 540), (960, 540), (960, 540), (960, 540), (960, 540), (960, 540), (960, 540), (960, 536), (956, 528), (952, 516), (948, 506), (938, 474), (930, 448), (929, 423), (923, 382), (923, 296), (923, 252), (923, 213), (923, 168), (923, 93)]",265.2681834010831,"[4, 8, 5, 6, 3, 9, 7, 1, 2]","(0, 0.25)",ENG004D,ENG,D,English,Wed Aug 15 14:07:18 2018,Mouse
1,0,4,0,79,3,7,0,-770,630,140,133,0,500,200,8000,"[(960, 540), (960, 540), (960, 540), (960, 540), (960, 540), (960, 540), (960, 540), (960, 540), (960, 540), (960, 540), (960, 540), (960, 540), (960, 540), (960, 540), (960, 540), (960, 540), (960, 540), (960, 540), (960, 540), (960, 540), (960, 540), (960, 540), (960, 540), (960, 540), (960, 540), (960, 540), (960, 540), (960, 540), (960, 540), (960, 540), (960, 540), (960, 540), (960, 540), (960, 540), (960, 540), (960, 540), (960, 540), (960, 540), (960, 540), (960, 540), (960, 540), (960, 540), (960, 540), (960, 540), (960, 540), (960, 540), (960, 540), (960, 540), (960, 540), (960, 540), (960, 540), (960, 540), (960, 540), (960, 540), (960, 540), (960, 540), (960, 540), (960, 540), (960, 540), (960, 540), (960, 540), (960, 540), (960, 539), (960, 538), (958, 535), (957, 531), (951, 519), (948, 510), (942, 499), (939, 486), (928, 446), (921, 408), (911, 370), (906, 324), (893, 238), (887, 189), (881, 144)]",258.71789451724163,"[4, 8, 5, 6, 3, 9, 7, 1, 2]","(0, 0.25)",ENG004D,ENG,D,English,Wed Aug 15 14:07:18 2018,Mouse
1,0,4,0,80,9,8,0,-1368,529,839,134,0,500,200,8000,"[(960, 540), (960, 540), (960, 540), (960, 540), (960, 540), (960, 540), (960, 540), (960, 540), (960, 540), (960, 540), (960, 540), (960, 540), (960, 540), (960, 540), (960, 540), (960, 540), (960, 540), (960, 540), (960, 540), (960, 540), (960, 540), (960, 540), (960, 540), (960, 540), (960, 540), (960, 540), (960, 540), (960, 540), (960, 540), (960, 540), (960, 540), (960, 540), (960, 540), (960, 540), (960, 540), (960, 540), (960, 540), (960, 540), (960, 540), (960, 540), (960, 540), (960, 540), (960, 540), (960, 540), (960, 540), (960, 540), (960, 540), (960, 540), (960, 540), (960, 540), (960, 540), (960, 540), (961, 540), (961, 541), (961, 543), (961, 545), (961, 551), (961, 553), (961, 556), (961, 559), (961, 563), (961, 564), (961, 564), (961, 565), (961, 565), (961, 565), (961, 565), (961, 565), (961, 565), (961, 565), (961, 565), (961, 565), (961, 565), (961, 565), (961, 565), (961, 565), (961, 565), (961, 565), (961, 565), (961, 565), (961, 565), (961, 565), (961, 565), (961, 565), (961, 565), (961, 565), (961, 565), (961, 565), (961, 565), (961, 565), (961, 565), (961, 565), (961, 565), (961, 565), (961, 565), (961, 565), (961, 565), (961, 565), (961, 565), (961, 565), (961, 565), (961, 565), (961, 565), (961, 565), (961, 565), (961, 565), (961, 565), (961, 565), (961, 565), (961, 565), (961, 565), (961, 565), (961, 565), (961, 565), (961, 565), (961, 565), (961, 565), (961, 567), (961, 571), (961, 575), (969, 590), (975, 600), (981, 610), (989, 625), (1018, 670), (1032, 689), (1050, 712), (1068, 738), (1101, 783), (1116, 803), (1123, 816), (1134, 833), (1145, 856), (1148, 866), (1152, 877), (1156, 888), (1161, 907)]",61.291187957698604,"[4, 8, 5, 6, 3, 9, 7, 1, 2]","(0, 0.25)",ENG004D,ENG,D,English,Wed Aug 15 14:07:18 2018,Mouse
1,0,4,0,81,1,1,1,431,151,280,135,0,500,200,8000,"[(960, 540), (960, 540), (960, 540), (960, 540), (960, 540), (960, 540), (960, 540), (960, 540), (960, 540), (960, 540), (960, 540), (960, 540), (960, 540), (960, 540), (960, 539), (960, 539), (960, 539), (960, 538), (960, 537), (960, 537), (960, 536), (960, 536), (960, 536), (960, 536), (960, 536), (960, 536), (960, 536), (960, 536), (960, 536), (960, 536), (960, 536), (960, 536), (961, 533), (963, 530), (969, 517), (974, 506), (984, 487), (996, 465), (1033, 400), (1057, 356), (1081, 310), (1104, 269), (1167, 180)]",299.89890183861456,"[4, 8, 5, 6, 3, 9, 7, 1, 2]","(0, 0.25)",ENG004D,ENG,D,English,Wed Aug 15 14:07:18 2018,Mouse
1,0,4,0,82,8,8,1,320,80,240,135,0,500,200,8000,"[(960, 540), (960, 540), (960, 540), (960, 540), (960, 540), (960, 540), (960, 540), (960, 541), (960, 545), (960, 552), (960, 562), (960, 567), (960, 572), (962, 577), (963, 591), (965, 604), (969, 615), (974, 633), (988, 668), (996, 686), (1002, 699), (1006, 710), (1014, 732), (1019, 744), (1024, 757), (1029, 769), (1044, 815), (1056, 844), (1069, 868), (1077, 886), (1091, 911), (1097, 919)]",70.1262132554743,"[4, 8, 5, 6, 3, 9, 7, 1, 2]","(0, 0.25)",ENG004D,ENG,D,English,Wed Aug 15 14:07:18 2018,Mouse
1,0,4,0,83,7,7,1,540,300,240,134,0,500,200,8000,"[(960, 540), (960, 540), (960, 540), (960, 540), (960, 540), (960, 540), (960, 540), (960, 540), (960, 540), (960, 540), (960, 540), (960, 540), (960, 540), (960, 540), (960, 540), (960, 540), (960, 540), (960, 540), (960, 540), (960, 540), (960, 540), (960, 540), (960, 540), (960, 540), (960, 540), (960, 540), (960, 540), (960, 540), (960, 540), (960, 539), (962, 538), (963, 538), (963, 537), (966, 534), (967, 532), (967, 530), (968, 526), (971, 514), (971, 505), (971, 493), (971, 480), (971, 452), (971, 435), (971, 418), (971, 399), (971, 369), (971, 348), (971, 329), (969, 310), (958, 264), (950, 236), (942, 208), (932, 182), (911, 130)]",263.1847805813558,"[4, 8, 5, 6, 3, 9, 7, 1, 2]","(0, 0.25)",ENG004D,ENG,D,English,Wed Aug 15 14:07:18 2018,Mouse
1,0,4,0,84,1,2,0,-691,561,130,133,0,500,200,8000,"[(960, 540), (960, 540), (960, 540), (960, 540), (960, 540), (960, 540), (960, 540), (960, 540), (960, 540), (960, 540), (960, 540), (960, 540), (960, 540), (960, 540), (960, 540), (960, 540), (960, 540), (960, 540), (960, 540), (960, 540), (960, 540), (960, 540), (960, 540), (960, 540), (960, 540), (960, 540), (960, 540), (960, 540), (960, 540), (960, 540), (960, 540), (960, 540), (960, 540), (960, 540), (960, 540), (960, 540), (960, 540), (960, 540), (960, 540), (960, 540), (960, 540), (960, 540), (960, 540), (960, 540), (960, 540), (960, 540), (960, 540), (960, 540), (960, 540), (960, 540), (960, 540), (960, 540), (960, 540), (960, 540), (960, 540), (960, 540), (964, 540), (967, 538), (972, 535), (988, 530), (996, 526), (1011, 520), (1032, 511), (1082, 497), (1110, 489), (1144, 476), (1178, 461), (1266, 428), (1304, 417), (1340, 408)]",340.84438755456034,"[4, 8, 5, 6, 3, 9, 7, 1, 2]","(0, 0.25)",ENG004D,ENG,D,English,Wed Aug 15 14:07:18 2018,Mouse
1,0,4,0,85,3,8,0,-789,319,470,134,0,500,200,8000,"[(960, 540), (960, 540), (960, 540), (960, 540), (960, 540), (960, 540), (960, 540), (960, 540), (960, 540), (960, 540), (960, 540), (960, 540), (960, 540), (960, 540), (960, 540), (960, 540), (960, 540), (960, 540), (960, 540), (960, 540), (960, 540), (960, 540), (960, 540), (960, 540), (960, 540), (960, 540), (960, 540), (960, 540), (960, 540), (960, 540), (960, 540), (960, 542), (960, 547), (964, 553), (966, 556), (970, 563), (982, 582), (988, 591), (994, 600), (999, 606), (1006, 616), (1008, 618), (1009, 621), (1011, 624), (1011, 626), (1012, 626), (1012, 626), (1012, 626), (1012, 626), (1012, 626), (1012, 626), (1012, 626), (1012, 626), (1012, 626), (1012, 626), (1012, 626), (1012, 626), (1012, 626), (1012, 626), (1012, 626), (1012, 627), (1011, 628), (1011, 628), (1011, 629), (1011, 632), (1011, 635), (1011, 639), (1011, 646), (1021, 669), (1028, 684), (1037, 698), (1045, 713), (1063, 748), (1070, 768), (1081, 794), (1093, 821), (1110, 872), (1115, 896), (1123, 921)]",66.83771859398377,"[4, 8, 5, 6, 3, 9, 7, 1, 2]","(0, 0.25)",ENG004D,ENG,D,English,Wed Aug 15 14:07:18 2018,Mouse
1,0,4,0,86,4,4,1,369,189,180,135,0,500,200,8000,"[(960, 540), (960, 540), (960, 540), (960, 540), (960, 540), (960, 540), (960, 540), (960, 540), (960, 540), (960, 540), (960, 540), (960, 540), (960, 540), (960, 540), (960, 540), (960, 540), (960, 540), (960, 540), (960, 539), (960, 539), (960, 539), (962, 538), (963, 538), (963, 538), (966, 538), (968, 538), (971, 538), (977, 540), (995, 547), (1008, 552), (1029, 562), (1063, 576), (1147, 605), (1194, 619), (1234, 632), (1278, 643), (1357, 671)]",18.261588445714942,"[4, 8, 5, 6, 3, 9, 7, 1, 2]","(0, 0.25)",ENG004D,ENG,D,English,Wed Aug 15 14:07:18 2018,Mouse
1,0,4,0,87,3,2,0,-449,289,160,135,0,500,200,8000,"[(960, 540), (960, 540), (960, 540), (960, 540), (960, 540), (960, 540), (960, 540), (960, 540), (960, 540), (960, 540), (960, 540), (960, 540), (960, 540), (960, 540), (960, 540), (960, 540), (960, 540), (960, 540), (960, 540), (960, 540), (960, 540), (960, 540), (960, 540), (960, 540), (960, 540), (960, 540), (960, 540), (960, 540), (959, 539), (959, 539), (962, 537), (966, 537), (974, 536), (983, 532), (1003, 527), (1015, 521), (1028, 518), (1040, 513), (1073, 499), (1098, 489), (1127, 477), (1164, 465), (1254, 431), (1301, 420), (1344, 400)]",339.96898731910227,"[4, 8, 5, 6, 3, 9, 7, 1, 2]","(0, 0.25)",ENG004D,ENG,D,English,Wed Aug 15 14:07:18 2018,Mouse
1,0,4,0,88,5,6,0,-320,90,230,136,0,500,200,8000,"[(960, 540), (960, 540), (960, 540), (960, 540), (960, 540), (960, 540), (960, 540), (960, 540), (956, 541), (953, 542), (944, 547), (937, 549), (921, 556), (912, 558), (905, 561), (898, 565), (883, 574), (874, 580), (868, 585), (860, 590), (843, 606), (837, 611), (829, 618), (818, 627), (796, 649), (780, 665), (769, 682), (750, 707), (720, 761), (700, 789), (687, 814), (680, 827)]",134.29268063145577,"[4, 8, 5, 6, 3, 9, 7, 1, 2]","(0, 0.25)",ENG004D,ENG,D,English,Wed Aug 15 14:07:18 2018,Mouse
1,0,4,0,89,1,1,1,321,31,290,137,0,500,200,8000,"[(960, 540), (960, 540), (960, 540), (960, 539), (960, 537), (960, 537), (960, 537), (960, 537), (960, 536), (960, 536), (960, 534), (960, 534), (960, 531), (960, 531), (960, 529), (960, 526), (961, 522), (965, 518), (967, 514), (968, 510), (973, 496), (977, 486), (983, 472), (989, 459), (1005, 426), (1020, 401), (1034, 379), (1050, 354), (1089, 308), (1105, 283), (1122, 258), (1135, 233), (1156, 188)]",299.1098555568911,"[4, 8, 5, 6, 3, 9, 7, 1, 2]","(0, 0.25)",ENG004D,ENG,D,English,Wed Aug 15 14:07:18 2018,Mouse
1,0,4,0,90,3,3,1,471,351,120,137,0,500,200,8000,"[(960, 540), (960, 540), (960, 540), (960, 540), (960, 540), (960, 540), (960, 540), (960, 540), (960, 540), (960, 540), (960, 540), (960, 540), (960, 540), (960, 540), (960, 540), (960, 540), (960, 540), (960, 540), (960, 540), (960, 540), (960, 540), (960, 540), (960, 540), (960, 540), (960, 540), (960, 540), (960, 540), (960, 540), (960, 540), (960, 540), (960, 540), (960, 540), (960, 540), (960, 540), (960, 540), (956, 540), (948, 540), (941, 540), (930, 540), (886, 540), (856, 540), (817, 540), (778, 540), (703, 540), (667, 540), (631, 540), (594, 540), (528, 540)]",180.0,"[4, 8, 5, 6, 3, 9, 7, 1, 2]","(0, 0.25)",ENG004D,ENG,D,English,Wed Aug 15 14:07:18 2018,Mouse
1,0,4,0,91,7,7,1,679,329,350,136,0,500,200,8000,"[(960, 540), (960, 540), (960, 540), (960, 540), (960, 540), (960, 540), (960, 540), (960, 540), (960, 540), (960, 540), (960, 540), (960, 540), (960, 540), (960, 540), (960, 540), (960, 540), (960, 540), (960, 540), (960, 540), (960, 540), (960, 540), (960, 540), (960, 540), (960, 540), (960, 540), (960, 540), (960, 540), (960, 540), (960, 540), (960, 540), (960, 540), (960, 540), (962, 540), (963, 540), (968, 540), (971, 538), (974, 537), (975, 536), (978, 535), (981, 532), (981, 532), (983, 530), (986, 525), (987, 522), (988, 516), (988, 510), (990, 495), (990, 484), (990, 473), (990, 460), (990, 433), (990, 419), (990, 408), (990, 396), (990, 375), (990, 365), (990, 355), (989, 343), (981, 318), (976, 302), (970, 286), (963, 269), (956, 237), (950, 217), (944, 202), (940, 181), (924, 142), (917, 125)]",264.084438337233,"[4, 8, 5, 6, 3, 9, 7, 1, 2]","(0, 0.25)",ENG004D,ENG,D,English,Wed Aug 15 14:07:18 2018,Mouse
1,0,4,0,92,3,3,1,381,21,360,135,0,500,200,8000,"[(960, 540), (960, 540), (959, 539), (959, 539), (958, 539), (958, 539), (956, 539), (955, 539), (954, 539), (953, 539), (951, 539), (950, 539), (949, 539), (948, 539), (947, 540), (947, 540), (945, 540), (944, 540), (942, 540), (941, 540), (939, 540), (937, 541), (935, 541), (934, 541), (932, 541), (932, 541), (928, 542), (923, 543), (920, 543), (912, 543), (887, 543), (872, 543), (856, 543), (838, 544), (788, 544), (754, 546), (707, 546), (653, 550), (540, 550)]",178.6360724683971,"[4, 8, 5, 6, 3, 9, 7, 1, 2]","(0, 0.25)",ENG004D,ENG,D,English,Wed Aug 15 14:07:18 2018,Mouse
1,0,4,0,93,3,3,1,218,98,120,134,0,500,200,8000,"[(960, 540), (960, 540), (960, 540), (960, 540), (960, 540), (960, 540), (960, 540), (960, 540), (960, 540), (958, 538), (953, 538), (950, 538), (943, 536), (930, 536), (876, 536), (832, 536), (789, 531), (745, 531), (648, 521), (609, 521), (573, 521), (548, 521)]",182.64041033935717,"[4, 8, 5, 6, 3, 9, 7, 1, 2]","(0, 0.25)",ENG004D,ENG,D,English,Wed Aug 15 14:07:18 2018,Mouse
1,0,4,0,94,7,7,1,501,291,210,133,0,500,200,8000,"[(960, 540), (960, 540), (960, 540), (960, 540), (960, 540), (960, 540), (960, 540), (960, 540), (960, 540), (960, 540), (960, 540), (960, 540), (960, 540), (960, 540), (960, 540), (960, 540), (960, 540), (960, 540), (960, 540), (960, 540), (960, 540), (960, 540), (960, 540), (960, 540), (960, 540), (960, 540), (960, 540), (960, 540), (960, 540), (959, 540), (959, 538), (959, 537), (959, 530), (956, 525), (956, 518), (955, 510), (951, 486), (948, 473), (946, 459), (944, 441), (938, 400), (935, 376), (930, 352), (927, 325), (919, 272), (915, 245), (913, 225), (912, 202), (912, 162), (912, 143), (912, 123)]",263.4337013792537,"[4, 8, 5, 6, 3, 9, 7, 1, 2]","(0, 0.25)",ENG004D,ENG,D,English,Wed Aug 15 14:07:18 2018,Mouse
1,0,4,0,95,2,1,0,-630,530,100,132,0,500,200,8000,"[(960, 540), (960, 540), (960, 540), (960, 540), (960, 540), (960, 540), (960, 540), (960, 540), (960, 540), (960, 540), (960, 540), (960, 540), (960, 540), (960, 540), (960, 540), (960, 540), (960, 540), (960, 540), (960, 540), (960, 540), (960, 540), (960, 540), (960, 540), (960, 540), (960, 540), (960, 540), (960, 540), (960, 540), (960, 540), (960, 540), (960, 540), (960, 540), (960, 540), (960, 540), (960, 540), (960, 540), (960, 540), (960, 540), (960, 540), (960, 540), (960, 540), (960, 540), (960, 540), (960, 540), (960, 540), (960, 540), (960, 540), (960, 540), (960, 540), (960, 540), (960, 540), (960, 540), (961, 531), (966, 523), (970, 512), (978, 497), (1006, 443), (1025, 406), (1051, 362), (1075, 316), (1122, 234), (1143, 196), (1159, 166)]",298.0167981924073,"[4, 8, 5, 6, 3, 9, 7, 1, 2]","(0, 0.25)",ENG004D,ENG,D,English,Wed Aug 15 14:07:18 2018,Mouse
1,0,4,0,96,9,5,0,-558,18,540,133,0,500,200,8000,"[(959, 540), (958, 540), (958, 540), (958, 540), (956, 541), (956, 541), (956, 542), (956, 542), (956, 542), (956, 542), (956, 542), (956, 542), (956, 542), (956, 542), (956, 542), (956, 542), (955, 542), (955, 542), (953, 542), (953, 542), (952, 544), (951, 545), (950, 547), (949, 548), (948, 554), (945, 558), (944, 560), (944, 562), (942, 565), (942, 566), (941, 570), (940, 573), (937, 585), (936, 593), (935, 603), (932, 613), (929, 636), (929, 647), (929, 661), (929, 673), (929, 706), (929, 726), (929, 743), (929, 760), (929, 796), (929, 816), (930, 834), (930, 849), (930, 873), (930, 885), (930, 895), (930, 904), (930, 921), (926, 928), (925, 935), (921, 941)]",95.55493692013548,"[4, 8, 5, 6, 3, 9, 7, 1, 2]","(0, 0.25)",ENG004D,ENG,D,English,Wed Aug 15 14:07:18 2018,Mouse
1,0,4,0,97,5,5,1,389,139,250,134,0,500,200,8000,"[(960, 540), (960, 540), (960, 540), (960, 540), (960, 540), (960, 540), (960, 540), (960, 540), (960, 540), (960, 540), (960, 540), (960, 540), (960, 540), (960, 544), (960, 550), (960, 564), (960, 571), (960, 578), (960, 584), (955, 601), (954, 610), (953, 621), (951, 632), (949, 657), (948, 669), (948, 681), (948, 692), (944, 719), (944, 733), (943, 752), (942, 772), (936, 817), (934, 843), (932, 864), (932, 883), (932, 913), (932, 924), (932, 935), (932, 944)]",93.96465472285612,"[4, 8, 5, 6, 3, 9, 7, 1, 2]","(0, 0.25)",ENG004D,ENG,D,English,Wed Aug 15 14:07:18 2018,Mouse
1,0,4,0,98,3,7,0,-880,740,140,134,0,500,200,8000,"[(960, 540), (960, 540), (960, 540), (960, 540), (960, 540), (960, 540), (960, 540), (960, 540), (960, 540), (960, 540), (960, 540), (960, 540), (960, 540), (960, 540), (960, 540), (960, 540), (960, 540), (960, 540), (960, 540), (960, 540), (960, 540), (960, 540), (960, 540), (960, 540), (960, 540), (960, 540), (960, 540), (960, 540), (960, 540), (960, 540), (960, 540), (960, 540), (960, 540), (960, 540), (960, 540), (960, 540), (960, 540), (960, 540), (960, 540), (960, 540), (960, 540), (960, 540), (960, 540), (960, 540), (960, 540), (960, 540), (960, 540), (960, 540), (960, 540), (960, 540), (960, 540), (960, 540), (960, 540), (960, 540), (960, 540), (960, 540), (960, 540), (960, 540), (960, 540), (960, 540), (960, 540), (960, 540), (960, 540), (960, 540), (960, 540), (960, 540), (960, 540), (960, 540), (960, 540), (960, 540), (960, 540), (960, 540), (960, 540), (961, 537), (961, 528), (961, 502), (961, 485), (958, 466), (958, 447), (952, 399), (949, 378), (945, 357), (942, 333), (935, 288), (930, 261), (927, 227), (921, 184), (913, 122)]",263.58459724515893,"[4, 8, 5, 6, 3, 9, 7, 1, 2]","(0, 0.25)",ENG004D,ENG,D,English,Wed Aug 15 14:07:18 2018,Mouse
1,0,4,0,99,2,2,1,469,319,150,135,0,500,200,8000,"[(960, 540), (960, 540), (960, 540), (960, 540), (960, 540), (960, 540), (960, 540), (960, 540), (960, 540), (960, 540), (960, 540), (960, 540), (960, 540), (960, 540), (960, 540), (960, 540), (960, 540), (960, 540), (960, 540), (960, 540), (960, 540), (960, 540), (960, 540), (960, 540), (960, 540), (960, 540), (960, 540), (960, 540), (960, 540), (960, 540), (960, 540), (961, 540), (962, 540), (966, 540), (986, 536), (998, 532), (1015, 531), (1039, 526), (1099, 512), (1127, 504), (1158, 496), (1186, 487), (1240, 468), (1271, 455), (1300, 445), (1331, 433), (1383, 412)]",343.1641601048462,"[4, 8, 5, 6, 3, 9, 7, 1, 2]","(0, 0.25)",ENG004D,ENG,D,English,Wed Aug 15 14:07:18 2018,Mouse
1,0,4,0,100,9,1,0,-810,600,210,135,0,500,200,8000,"[(960, 540), (960, 540), (960, 540), (960, 540), (960, 540), (960, 540), (960, 540), (960, 540), (960, 540), (960, 540), (960, 540), (960, 540), (960, 540), (960, 540), (960, 540), (960, 540), (960, 540), (960, 540), (960, 540), (960, 540), (960, 540), (960, 540), (960, 540), (960, 540), (960, 540), (960, 540), (960, 540), (960, 540), (960, 540), (960, 540), (960, 540), (960, 540), (960, 540), (960, 540), (960, 540), (960, 540), (960, 540), (960, 540), (960, 540), (960, 540), (960, 540), (960, 540), (960, 540), (960, 540), (960, 540), (960, 540), (960, 540), (960, 540), (960, 540), (960, 540), (960, 540), (960, 540), (960, 540), (960, 540), (960, 540), (960, 540), (960, 540), (960, 540), (960, 540), (960, 538), (960, 534), (961, 528), (967, 507), (970, 495), (974, 477), (978, 458), (987, 422), (995, 399), (999, 380), (1006, 362), (1022, 322), (1030, 306), (1040, 287), (1048, 269), (1060, 241), (1069, 226), (1075, 217), (1080, 207), (1095, 185), (1102, 177), (1109, 168)]",291.82795989201077,"[4, 8, 5, 6, 3, 9, 7, 1, 2]","(0, 0.25)",ENG004D,ENG,D,English,Wed Aug 15 14:07:18 2018,Mouse
1,0,4,0,101,2,2,1,301,51,250,136,0,500,200,8000,"[(960, 540), (960, 540), (960, 540), (960, 540), (960, 540), (960, 539), (960, 539), (960, 539), (960, 538), (961, 537), (961, 537), (962, 536), (963, 536), (967, 535), (971, 531), (976, 529), (981, 526), (995, 521), (1001, 519), (1011, 515), (1024, 511), (1054, 503), (1071, 498), (1088, 491), (1112, 480), (1157, 458), (1189, 442), (1218, 430), (1249, 418), (1323, 388), (1354, 378)]",337.64912734565604,"[4, 8, 5, 6, 3, 9, 7, 1, 2]","(0, 0.25)",ENG004D,ENG,D,English,Wed Aug 15 14:07:18 2018,Mouse
1,0,4,0,102,3,3,1,390,20,370,136,0,500,200,8000,"[(960, 540), (959, 540), (959, 540), (959, 540), (958, 540), (956, 540), (956, 540), (955, 540), (954, 540), (953, 540), (953, 540), (952, 540), (951, 540), (949, 540), (949, 540), (947, 540), (946, 541), (943, 542), (941, 542), (939, 543), (937, 543), (936, 544), (934, 544), (934, 544), (933, 544), (931, 544), (930, 544), (929, 544), (926, 544), (919, 544), (912, 544), (904, 544), (893, 544), (852, 544), (818, 544), (768, 544), (713, 544), (577, 540), (495, 532)]",180.9856366032321,"[4, 8, 5, 6, 3, 9, 7, 1, 2]","(0, 0.25)",ENG004D,ENG,D,English,Wed Aug 15 14:07:18 2018,Mouse
1,0,4,0,103,4,4,1,699,329,370,135,0,500,200,8000,"[(960, 540), (960, 540), (960, 540), (960, 540), (960, 540), (960, 540), (960, 540), (960, 540), (960, 540), (960, 540), (960, 540), (960, 540), (960, 540), (960, 540), (960, 540), (960, 540), (960, 540), (960, 540), (960, 540), (960, 540), (960, 540), (960, 540), (960, 540), (960, 540), (960, 540), (960, 540), (960, 540), (960, 540), (960, 540), (960, 540), (960, 540), (960, 540), (959, 540), (959, 540), (959, 540), (959, 540), (959, 540), (959, 540), (959, 540), (959, 540), (959, 540), (959, 540), (959, 540), (959, 540), (959, 540), (959, 540), (959, 540), (959, 540), (959, 540), (959, 540), (959, 540), (959, 540), (959, 540), (959, 540), (961, 540), (961, 540), (963, 540), (966, 542), (968, 544), (972, 547), (977, 551), (987, 560), (997, 567), (1012, 576), (1033, 585), (1094, 611), (1133, 624), (1184, 644), (1236, 660), (1339, 688)]",21.33071079638859,"[4, 8, 5, 6, 3, 9, 7, 1, 2]","(0, 0.25)",ENG004D,ENG,D,English,Wed Aug 15 14:07:18 2018,Mouse
1,0,4,0,104,1,1,1,1069,979,90,134,0,500,200,8000,"[(960, 540), (960, 540), (960, 540), (960, 540), (960, 540), (960, 540), (960, 540), (960, 540), (960, 540), (960, 540), (960, 540), (960, 540), (960, 540), (960, 540), (960, 540), (960, 540), (960, 540), (960, 540), (960, 540), (960, 540), (960, 540), (960, 540), (960, 540), (960, 540), (960, 540), (960, 540), (960, 540), (960, 540), (960, 540), (960, 540), (960, 540), (960, 540), (960, 540), (960, 540), (960, 540), (960, 540), (960, 540), (960, 540), (960, 540), (960, 540), (960, 540), (960, 540), (960, 540), (960, 540), (960, 540), (960, 540), (960, 540), (960, 540), (960, 540), (960, 540), (960, 540), (960, 540), (960, 540), (960, 540), (960, 540), (960, 540), (960, 540), (960, 540), (960, 540), (960, 540), (960, 540), (960, 540), (960, 540), (960, 540), (960, 540), (960, 540), (960, 540), (960, 540), (960, 540), (960, 540), (960, 540), (960, 540), (960, 540), (960, 540), (960, 540), (960, 540), (960, 540), (960, 540), (960, 540), (960, 540), (960, 540), (960, 540), (960, 540), (960, 540), (960, 540), (960, 540), (960, 540), (960, 540), (960, 540), (960, 540), (960, 540), (960, 540), (960, 540), (960, 540), (960, 540), (960, 540), (960, 540), (960, 539), (963, 535), (969, 526), (978, 509), (995, 484), (1057, 410), (1095, 362), (1128, 325), (1165, 279), (1235, 187)]",307.9199038923948,"[4, 8, 5, 6, 3, 9, 7, 1, 2]","(0, 0.25)",ENG004D,ENG,D,English,Wed Aug 15 14:07:18 2018,Mouse
1,0,4,0,105,8,4,0,-497,387,110,133,0,500,200,8000,"[(960, 540), (960, 540), (960, 540), (960, 540), (960, 540), (960, 540), (960, 540), (960, 540), (960, 540), (960, 540), (960, 540), (960, 540), (960, 540), (960, 540), (960, 540), (960, 540), (960, 540), (960, 540), (960, 540), (960, 540), (960, 540), (960, 540), (960, 540), (960, 540), (960, 540), (960, 540), (960, 540), (960, 540), (960, 540), (960, 540), (960, 540), (960, 540), (960, 540), (960, 540), (960, 540), (960, 540), (960, 540), (960, 540), (966, 544), (970, 545), (981, 548), (992, 549), (1026, 558), (1059, 565), (1094, 570), (1140, 582), (1229, 605), (1282, 621), (1345, 640), (1403, 657)]",14.794481089685174,"[4, 8, 5, 6, 3, 9, 7, 1, 2]","(0, 0.25)",ENG004D,ENG,D,English,Wed Aug 15 14:07:18 2018,Mouse
