NativeLangNumber,LanuageNumber,SessionNumber,Block,TrialNum,ConditionNumber,Response,Accuracy,RT,MovementOnsetTime,TimeInMotion,SignalContrast,SignalContrastNumber,StimDisplayTime,MaskTime,MaxResponseTime,MousePositionXY,MouseAngle,WheelOrder,NoiseMuSigma,ParticipantID,LanuageTested,SessionTested,NativeLanuage,Date,ResponseDevice
1,0,4,0,1,1,1,1,582,502,80,153,0,500,200,8000,"[(960, 540), (960, 540), (960, 540), (960, 540), (960, 540), (960, 540), (960, 540), (960, 540), (960, 540), (960, 540), (960, 540), (960, 540), (960, 540), (960, 540), (960, 540), (960, 540), (960, 540), (960, 540), (960, 540), (960, 540), (960, 540), (960, 540), (960, 540), (960, 540), (960, 540), (960, 540), (960, 540), (960, 540), (960, 540), (960, 540), (960, 540), (960, 540), (960, 540), (960, 540), (960, 540), (960, 540), (960, 540), (960, 540), (960, 540), (960, 540), (960, 540), (960, 540), (960, 540), (960, 540), (960, 540), (960, 540), (960, 540), (960, 540), (960, 540), (960, 540), (959, 540), (950, 540), (930, 543), (845, 552), (800, 554), (750, 554), (703, 554), (578, 554), (509, 554)]",178.22198800286208,"[9, 8, 2, 5, 1, 4, 3, 6, 7]","(0, 0.25)",ENG001D,ENG,D,English,Fri Aug 24 11:23:53 2018,Mouse
1,0,4,0,2,2,2,1,441,381,60,153,0,500,200,8000,"[(960, 540), (960, 540), (960, 540), (960, 540), (960, 540), (960, 540), (960, 540), (960, 540), (960, 540), (960, 540), (960, 540), (960, 540), (960, 540), (960, 540), (960, 540), (960, 540), (960, 540), (960, 540), (960, 540), (960, 540), (960, 540), (960, 540), (960, 540), (960, 540), (960, 540), (960, 540), (960, 540), (960, 540), (960, 540), (960, 540), (960, 540), (960, 540), (960, 540), (960, 540), (960, 540), (960, 540), (960, 540), (960, 540), (961, 553), (953, 586), (939, 635), (928, 703), (922, 851), (923, 926), (934, 999)]",93.24204800269837,"[9, 8, 2, 5, 1, 4, 3, 6, 7]","(0, 0.25)",ENG001D,ENG,D,English,Fri Aug 24 11:23:53 2018,Mouse
1,0,4,0,3,4,4,1,399,349,50,152,0,500,200,8000,"[(960, 540), (960, 540), (960, 540), (960, 540), (960, 540), (960, 540), (960, 540), (960, 540), (960, 540), (960, 540), (960, 540), (960, 540), (960, 540), (960, 540), (960, 540), (960, 540), (960, 540), (960, 540), (960, 540), (960, 540), (960, 540), (960, 540), (960, 540), (960, 540), (960, 540), (960, 540), (960, 540), (960, 540), (960, 540), (960, 540), (960, 540), (960, 540), (960, 540), (960, 540), (954, 525), (922, 488), (818, 403), (757, 362), (697, 320), (631, 288)]",217.45057823173673,"[9, 8, 2, 5, 1, 4, 3, 6, 7]","(0, 0.25)",ENG001D,ENG,D,English,Fri Aug 24 11:23:53 2018,Mouse
1,0,4,0,4,2,2,1,349,309,40,151,0,500,200,8000,"[(960, 540), (960, 540), (960, 540), (960, 540), (960, 540), (960, 540), (960, 540), (960, 540), (960, 540), (960, 540), (960, 540), (960, 540), (960, 540), (960, 540), (960, 540), (960, 540), (960, 540), (960, 540), (960, 540), (960, 540), (960, 540), (960, 540), (960, 540), (960, 540), (960, 540), (960, 540), (960, 540), (960, 540), (960, 540), (960, 540), (958, 549), (927, 653), (905, 733), (880, 832), (854, 945)]",104.6669363077307,"[9, 8, 2, 5, 1, 4, 3, 6, 7]","(0, 0.25)",ENG001D,ENG,D,English,Fri Aug 24 11:23:53 2018,Mouse
1,0,4,0,5,4,4,1,379,319,60,150,0,500,200,8000,"[(960, 540), (960, 540), (960, 540), (960, 540), (960, 540), (960, 540), (960, 540), (960, 540), (960, 540), (960, 540), (960, 540), (960, 540), (960, 540), (960, 540), (960, 540), (960, 540), (960, 540), (960, 540), (960, 540), (960, 540), (960, 540), (960, 540), (960, 540), (960, 540), (960, 540), (960, 540), (960, 540), (960, 540), (960, 540), (960, 540), (960, 540), (960, 538), (958, 528), (934, 503), (888, 464), (769, 349), (693, 282), (612, 210)]",223.4792303388562,"[9, 8, 2, 5, 1, 4, 3, 6, 7]","(0, 0.25)",ENG001D,ENG,D,English,Fri Aug 24 11:23:53 2018,Mouse
1,0,4,0,6,3,3,1,480,440,40,149,0,500,200,8000,"[(960, 540), (960, 540), (960, 540), (960, 540), (960, 540), (960, 540), (960, 540), (960, 540), (960, 540), (960, 540), (960, 540), (960, 540), (960, 540), (960, 540), (960, 540), (960, 540), (960, 540), (960, 540), (960, 540), (960, 540), (960, 540), (960, 540), (960, 540), (960, 540), (960, 540), (960, 540), (960, 540), (960, 540), (960, 540), (960, 540), (960, 540), (960, 540), (960, 540), (960, 540), (960, 540), (960, 540), (960, 540), (960, 540), (960, 540), (960, 540), (960, 540), (960, 540), (960, 540), (960, 524), (951, 403), (933, 326), (908, 235), (883, 147)]",258.91453564107985,"[9, 8, 2, 5, 1, 4, 3, 6, 7]","(0, 0.25)",ENG001D,ENG,D,English,Fri Aug 24 11:23:53 2018,Mouse
1,0,4,0,7,1,1,1,539,459,80,148,0,500,200,8000,"[(960, 540), (960, 540), (960, 540), (960, 540), (960, 540), (960, 540), (960, 540), (960, 540), (960, 540), (960, 540), (960, 540), (960, 540), (960, 540), (960, 540), (960, 540), (960, 540), (960, 540), (960, 540), (960, 540), (960, 540), (960, 540), (960, 540), (960, 540), (960, 540), (960, 540), (960, 540), (960, 540), (960, 540), (960, 540), (960, 540), (960, 540), (960, 540), (960, 540), (960, 540), (960, 540), (960, 540), (960, 540), (960, 540), (960, 540), (960, 540), (960, 540), (960, 540), (960, 540), (960, 540), (960, 540), (949, 540), (926, 547), (868, 564), (843, 570), (815, 572), (778, 572), (652, 539), (561, 523), (473, 500)]",184.69547883087247,"[9, 8, 2, 5, 1, 4, 3, 6, 7]","(0, 0.25)",ENG001D,ENG,D,English,Fri Aug 24 11:23:53 2018,Mouse
1,0,4,0,8,6,6,1,961,881,80,147,0,500,200,8000,"[(960, 540), (960, 540), (960, 540), (960, 540), (960, 540), (960, 540), (960, 540), (960, 540), (960, 540), (960, 540), (960, 540), (960, 540), (960, 540), (960, 540), (960, 540), (960, 540), (960, 540), (960, 540), (960, 540), (960, 540), (960, 540), (960, 540), (960, 540), (960, 540), (960, 540), (960, 540), (960, 540), (960, 540), (960, 540), (960, 540), (960, 540), (960, 540), (960, 540), (960, 540), (960, 540), (960, 540), (960, 540), (960, 540), (960, 540), (960, 540), (960, 540), (960, 540), (960, 540), (960, 540), (960, 540), (960, 540), (960, 540), (960, 540), (960, 540), (960, 540), (960, 540), (960, 540), (960, 540), (960, 540), (960, 540), (960, 540), (960, 540), (960, 540), (960, 540), (960, 540), (960, 540), (960, 540), (960, 540), (960, 540), (960, 540), (960, 540), (960, 540), (960, 540), (960, 540), (960, 540), (960, 540), (960, 540), (960, 540), (960, 540), (960, 540), (960, 540), (960, 540), (960, 540), (960, 540), (960, 540), (960, 540), (960, 540), (960, 540), (960, 540), (960, 540), (960, 540), (960, 540), (960, 540), (963, 527), (995, 452), (1014, 412), (1026, 368), (1039, 321), (1061, 246), (1072, 207), (1080, 169), (1090, 138)]",287.92032991180486,"[9, 8, 2, 5, 1, 4, 3, 6, 7]","(0, 0.25)",ENG001D,ENG,D,English,Fri Aug 24 11:23:53 2018,Mouse
1,0,4,0,9,8,8,1,601,521,80,146,0,500,200,8000,"[(960, 540), (960, 540), (960, 540), (960, 540), (960, 540), (960, 540), (960, 540), (960, 540), (960, 540), (960, 540), (960, 540), (960, 540), (960, 540), (960, 540), (960, 540), (960, 540), (960, 540), (960, 540), (960, 540), (960, 540), (960, 540), (960, 540), (960, 540), (960, 540), (960, 540), (960, 540), (960, 540), (960, 540), (960, 540), (960, 540), (960, 540), (960, 540), (960, 540), (960, 540), (960, 540), (960, 540), (960, 540), (960, 540), (960, 540), (960, 540), (960, 540), (960, 540), (960, 540), (960, 540), (960, 540), (960, 540), (960, 540), (960, 540), (960, 540), (960, 540), (960, 540), (960, 540), (968, 539), (981, 547), (1005, 560), (1036, 582), (1108, 632), (1151, 670), (1189, 721), (1225, 771), (1287, 878)]",45.94766331054662,"[9, 8, 2, 5, 1, 4, 3, 6, 7]","(0, 0.25)",ENG001D,ENG,D,English,Fri Aug 24 11:23:53 2018,Mouse
1,0,4,0,10,4,4,1,469,409,60,145,0,500,200,8000,"[(960, 540), (960, 540), (960, 540), (960, 540), (960, 540), (960, 540), (960, 540), (960, 540), (960, 540), (960, 540), (960, 540), (960, 540), (960, 540), (960, 540), (960, 540), (960, 540), (960, 540), (960, 540), (960, 540), (960, 540), (960, 540), (960, 540), (960, 540), (960, 540), (960, 540), (960, 540), (960, 540), (960, 540), (960, 540), (960, 540), (960, 540), (960, 540), (960, 540), (960, 540), (960, 540), (960, 540), (960, 540), (960, 540), (960, 540), (960, 540), (958, 539), (947, 520), (891, 435), (844, 386), (791, 339), (732, 293), (613, 213)]",223.30032725041391,"[9, 8, 2, 5, 1, 4, 3, 6, 7]","(0, 0.25)",ENG001D,ENG,D,English,Fri Aug 24 11:23:53 2018,Mouse
1,0,4,0,11,6,6,1,490,350,140,144,0,500,200,8000,"[(960, 540), (960, 540), (960, 540), (960, 540), (960, 540), (960, 540), (960, 540), (960, 540), (960, 540), (960, 540), (960, 540), (960, 540), (960, 540), (960, 540), (960, 540), (960, 540), (960, 540), (960, 540), (960, 540), (960, 540), (960, 540), (960, 540), (960, 540), (960, 540), (960, 540), (960, 540), (960, 540), (960, 540), (960, 540), (960, 540), (960, 540), (960, 540), (960, 540), (960, 540), (960, 542), (960, 543), (959, 544), (959, 544), (959, 544), (959, 544), (959, 544), (962, 537), (980, 516), (1000, 493), (1032, 456), (1070, 413), (1144, 307), (1185, 254), (1226, 196)]",307.71319688601835,"[9, 8, 2, 5, 1, 4, 3, 6, 7]","(0, 0.25)",ENG001D,ENG,D,English,Fri Aug 24 11:23:53 2018,Mouse
1,0,4,0,12,8,8,1,950,880,70,143,0,500,200,8000,"[(960, 540), (960, 540), (960, 540), (960, 540), (960, 540), (960, 540), (960, 540), (960, 540), (960, 540), (960, 540), (960, 540), (960, 540), (960, 540), (960, 540), (960, 540), (960, 540), (960, 540), (960, 540), (960, 540), (960, 540), (960, 540), (960, 540), (960, 540), (960, 540), (960, 540), (960, 540), (960, 540), (960, 540), (960, 540), (960, 540), (960, 540), (960, 540), (960, 540), (960, 540), (960, 540), (960, 540), (960, 540), (960, 540), (960, 540), (960, 540), (960, 540), (960, 540), (960, 540), (960, 540), (960, 540), (960, 540), (960, 540), (960, 540), (960, 540), (960, 540), (960, 540), (960, 540), (960, 540), (960, 540), (960, 540), (960, 540), (960, 540), (960, 540), (960, 540), (960, 540), (960, 540), (960, 540), (960, 540), (960, 540), (960, 540), (960, 540), (960, 540), (960, 540), (960, 540), (960, 540), (960, 540), (960, 540), (960, 540), (960, 540), (960, 540), (960, 540), (960, 540), (960, 540), (960, 540), (960, 540), (960, 540), (960, 540), (960, 540), (960, 540), (960, 540), (960, 540), (960, 540), (960, 541), (966, 559), (976, 583), (986, 619), (1005, 669), (1057, 812), (1089, 898), (1126, 987)]",69.62678310776406,"[9, 8, 2, 5, 1, 4, 3, 6, 7]","(0, 0.25)",ENG001D,ENG,D,English,Fri Aug 24 11:23:53 2018,Mouse
1,0,4,0,13,3,3,1,491,411,80,142,0,500,200,8000,"[(960, 540), (960, 540), (960, 540), (960, 540), (960, 540), (960, 540), (960, 540), (960, 540), (960, 540), (960, 540), (960, 540), (960, 540), (960, 540), (960, 540), (960, 540), (960, 540), (960, 540), (960, 540), (960, 540), (960, 540), (960, 540), (960, 540), (960, 540), (960, 540), (960, 540), (960, 540), (960, 540), (960, 540), (960, 540), (960, 540), (960, 540), (960, 540), (960, 540), (960, 540), (960, 540), (960, 540), (960, 540), (960, 540), (960, 540), (960, 540), (960, 540), (949, 516), (940, 491), (928, 462), (911, 427), (887, 349), (881, 301), (877, 236), (875, 164), (851, 0)]",258.58808155410065,"[9, 8, 2, 5, 1, 4, 3, 6, 7]","(0, 0.25)",ENG001D,ENG,D,English,Fri Aug 24 11:23:53 2018,Mouse
1,0,4,0,14,8,8,1,480,440,40,141,0,500,200,8000,"[(960, 540), (960, 540), (960, 540), (960, 540), (960, 540), (960, 540), (960, 540), (960, 540), (960, 540), (960, 540), (960, 540), (960, 540), (960, 540), (960, 540), (960, 540), (960, 540), (960, 540), (960, 540), (960, 540), (960, 540), (960, 540), (960, 540), (960, 540), (960, 540), (960, 540), (960, 540), (960, 540), (960, 540), (960, 540), (960, 540), (960, 540), (960, 540), (960, 540), (960, 540), (960, 540), (960, 540), (960, 540), (960, 540), (960, 540), (960, 540), (960, 540), (960, 540), (960, 540), (964, 539), (983, 566), (1018, 631), (1098, 851), (1131, 975)]",68.5400392695143,"[9, 8, 2, 5, 1, 4, 3, 6, 7]","(0, 0.25)",ENG001D,ENG,D,English,Fri Aug 24 11:23:53 2018,Mouse
1,0,4,0,15,2,2,1,722,662,60,140,0,500,200,8000,"[(960, 540), (960, 540), (960, 540), (960, 540), (960, 540), (960, 540), (960, 540), (960, 540), (960, 540), (960, 540), (960, 540), (960, 540), (960, 540), (960, 540), (960, 540), (960, 540), (960, 540), (960, 540), (960, 540), (960, 540), (960, 540), (960, 540), (960, 540), (960, 540), (960, 540), (960, 540), (960, 540), (960, 540), (960, 540), (960, 540), (960, 540), (960, 540), (960, 540), (960, 540), (960, 540), (960, 540), (960, 540), (960, 540), (960, 540), (960, 540), (960, 540), (960, 540), (960, 540), (960, 540), (960, 540), (960, 540), (960, 540), (960, 540), (960, 540), (960, 540), (960, 540), (960, 540), (960, 540), (960, 540), (960, 540), (960, 540), (960, 540), (960, 540), (960, 540), (960, 540), (960, 540), (960, 540), (960, 540), (960, 540), (960, 540), (960, 540), (958, 541), (954, 563), (946, 618), (937, 683), (913, 849), (906, 930), (906, 1015)]",96.48578015390198,"[9, 8, 2, 5, 1, 4, 3, 6, 7]","(0, 0.25)",ENG001D,ENG,D,English,Fri Aug 24 11:23:53 2018,Mouse
1,0,4,0,16,4,4,1,480,430,50,139,0,500,200,8000,"[(960, 540), (960, 540), (960, 540), (960, 540), (960, 540), (960, 540), (960, 540), (960, 540), (960, 540), (960, 540), (960, 540), (960, 540), (960, 540), (960, 540), (960, 540), (960, 540), (960, 540), (960, 540), (960, 540), (960, 540), (960, 540), (960, 540), (960, 540), (960, 540), (960, 540), (960, 540), (960, 540), (960, 540), (960, 540), (960, 540), (960, 540), (960, 540), (960, 540), (960, 540), (960, 540), (960, 540), (960, 540), (960, 540), (960, 540), (960, 540), (960, 540), (960, 540), (954, 530), (936, 500), (884, 389), (842, 315), (796, 239), (739, 161)]",239.7529632924181,"[9, 8, 2, 5, 1, 4, 3, 6, 7]","(0, 0.25)",ENG001D,ENG,D,English,Fri Aug 24 11:23:53 2018,Mouse
1,0,4,0,17,2,2,1,351,301,50,138,0,500,200,8000,"[(960, 540), (960, 540), (960, 540), (960, 540), (960, 540), (960, 540), (960, 540), (960, 540), (960, 540), (960, 540), (960, 540), (960, 540), (960, 540), (960, 540), (960, 540), (960, 540), (960, 540), (960, 540), (960, 540), (960, 540), (960, 540), (960, 540), (960, 540), (960, 540), (960, 540), (960, 540), (960, 540), (960, 540), (960, 540), (960, 540), (960, 548), (960, 570), (935, 678), (915, 752), (890, 843), (863, 932)]",103.89859621438842,"[9, 8, 2, 5, 1, 4, 3, 6, 7]","(0, 0.25)",ENG001D,ENG,D,English,Fri Aug 24 11:23:53 2018,Mouse
1,0,4,0,18,7,7,1,480,400,80,137,0,500,200,8000,"[(960, 540), (960, 540), (960, 540), (960, 540), (960, 540), (960, 540), (960, 540), (960, 540), (960, 540), (960, 540), (960, 540), (960, 540), (960, 540), (960, 540), (960, 540), (960, 540), (960, 540), (960, 540), (960, 540), (960, 540), (960, 540), (960, 540), (960, 540), (960, 540), (960, 540), (960, 540), (960, 540), (960, 540), (960, 540), (960, 540), (960, 540), (960, 540), (960, 540), (960, 540), (960, 540), (960, 540), (960, 540), (960, 540), (960, 540), (966, 531), (975, 524), (988, 518), (1007, 514), (1094, 501), (1162, 490), (1249, 479), (1339, 468), (1513, 441)]",349.85022849912156,"[9, 8, 2, 5, 1, 4, 3, 6, 7]","(0, 0.25)",ENG001D,ENG,D,English,Fri Aug 24 11:23:53 2018,Mouse
1,0,4,0,19,9,9,1,299,209,90,136,0,500,200,8000,"[(960, 540), (960, 540), (960, 540), (960, 540), (960, 540), (960, 540), (960, 540), (960, 540), (960, 540), (960, 540), (960, 540), (960, 540), (960, 540), (960, 540), (960, 540), (960, 540), (960, 540), (960, 540), (960, 540), (960, 540), (960, 541), (965, 542), (991, 546), (1011, 549), (1047, 562), (1092, 573), (1192, 606), (1254, 633), (1318, 659), (1386, 687)]",19.038040017302546,"[9, 8, 2, 5, 1, 4, 3, 6, 7]","(0, 0.25)",ENG001D,ENG,D,English,Fri Aug 24 11:23:53 2018,Mouse
1,0,4,0,20,8,8,1,570,480,90,135,0,500,200,8000,"[(960, 540), (960, 540), (960, 540), (960, 540), (960, 540), (960, 540), (960, 540), (960, 540), (960, 540), (960, 540), (960, 540), (960, 540), (960, 540), (960, 540), (960, 540), (960, 540), (960, 540), (960, 540), (960, 540), (960, 540), (960, 540), (960, 540), (960, 540), (960, 540), (960, 540), (960, 540), (960, 540), (960, 540), (960, 540), (960, 540), (960, 540), (960, 540), (960, 540), (960, 540), (960, 540), (960, 540), (960, 540), (960, 540), (960, 540), (960, 540), (960, 540), (960, 540), (960, 540), (960, 540), (960, 540), (960, 540), (960, 540), (960, 546), (966, 559), (976, 580), (991, 605), (1029, 670), (1055, 704), (1083, 743), (1107, 792), (1154, 889), (1173, 932)]",61.48178748431375,"[9, 8, 2, 5, 1, 4, 3, 6, 7]","(0, 0.25)",ENG001D,ENG,D,English,Fri Aug 24 11:23:53 2018,Mouse
1,0,4,0,21,6,3,0,-581,511,70,134,0,500,200,8000,"[(960, 540), (960, 540), (960, 540), (960, 540), (960, 540), (960, 540), (960, 540), (960, 540), (960, 540), (960, 540), (960, 540), (960, 540), (960, 540), (960, 540), (960, 540), (960, 540), (960, 540), (960, 540), (960, 540), (960, 540), (960, 540), (960, 540), (960, 540), (960, 540), (960, 540), (960, 540), (960, 540), (960, 540), (960, 540), (960, 540), (960, 540), (960, 540), (960, 540), (960, 540), (960, 540), (960, 540), (960, 540), (960, 540), (960, 540), (960, 540), (960, 540), (960, 540), (960, 540), (960, 540), (960, 540), (960, 540), (960, 540), (960, 540), (960, 540), (960, 540), (960, 540), (959, 536), (959, 516), (959, 474), (959, 358), (951, 306), (942, 257), (928, 207), (879, 115)]",259.2095073244268,"[9, 8, 2, 5, 1, 4, 3, 6, 7]","(0, 0.25)",ENG001D,ENG,D,English,Fri Aug 24 11:23:53 2018,Mouse
1,0,4,0,22,7,7,1,411,351,60,135,0,500,200,8000,"[(960, 540), (960, 540), (960, 540), (960, 540), (960, 540), (960, 540), (960, 540), (960, 540), (960, 540), (960, 540), (960, 540), (960, 540), (960, 540), (960, 540), (960, 540), (960, 540), (960, 540), (960, 540), (960, 540), (960, 540), (960, 540), (960, 540), (960, 540), (960, 540), (960, 540), (960, 540), (960, 540), (960, 540), (960, 540), (960, 540), (960, 540), (960, 540), (960, 540), (960, 540), (960, 540), (966, 541), (996, 533), (1047, 515), (1110, 500), (1238, 462), (1296, 445), (1357, 426)]",343.9783876099279,"[9, 8, 2, 5, 1, 4, 3, 6, 7]","(0, 0.25)",ENG001D,ENG,D,English,Fri Aug 24 11:23:53 2018,Mouse
1,0,4,0,23,7,2,0,-1981,731,1250,135,0,500,200,8000,"[(960, 540), (960, 540), (960, 540), (960, 540), (960, 540), (960, 540), (960, 540), (960, 540), (960, 540), (960, 540), (960, 540), (960, 540), (960, 540), (960, 540), (960, 540), (960, 540), (960, 540), (960, 540), (960, 540), (960, 540), (960, 540), (960, 540), (960, 540), (960, 540), (960, 540), (960, 540), (960, 540), (960, 540), (960, 540), (960, 540), (960, 540), (960, 540), (960, 540), (960, 540), (960, 540), (960, 540), (960, 540), (960, 540), (960, 540), (960, 540), (960, 540), (960, 540), (960, 540), (960, 540), (960, 540), (960, 540), (960, 540), (960, 540), (960, 540), (960, 540), (960, 540), (960, 540), (960, 540), (960, 540), (960, 540), (960, 540), (960, 540), (960, 540), (960, 540), (960, 540), (960, 540), (960, 540), (960, 540), (960, 540), (960, 540), (960, 540), (960, 540), (960, 540), (960, 540), (960, 540), (960, 540), (960, 540), (960, 540), (959, 540), (958, 540), (955, 542), (954, 544), (953, 545), (953, 545), (953, 545), (953, 545), (953, 545), (953, 545), (953, 545), (953, 545), (953, 545), (953, 545), (953, 545), (953, 545), (953, 545), (953, 545), (953, 545), (953, 545), (953, 545), (953, 545), (953, 545), (953, 545), (953, 545), (953, 545), (953, 545), (953, 545), (953, 545), (953, 545), (953, 545), (953, 545), (953, 545), (953, 545), (953, 545), (953, 545), (953, 545), (953, 545), (953, 545), (953, 545), (953, 545), (953, 545), (953, 545), (953, 545), (953, 545), (953, 545), (953, 545), (953, 545), (953, 545), (953, 545), (953, 545), (953, 545), (953, 545), (953, 545), (953, 545), (953, 545), (953, 545), (953, 545), (953, 545), (953, 545), (953, 545), (953, 545), (953, 545), (953, 545), (953, 545), (953, 545), (953, 545), (953, 545), (953, 545), (953, 545), (953, 545), (953, 545), (953, 545), (953, 545), (953, 545), (953, 545), (953, 545), (953, 545), (953, 545), (953, 545), (953, 545), (953, 545), (953, 545), (953, 545), (953, 545), (953, 545), (953, 545), (953, 545), (953, 545), (953, 545), (953, 545), (953, 545), (953, 545), (953, 545), (953, 545), (953, 545), (953, 545), (953, 545), (953, 545), (953, 545), (953, 545), (953, 545), (953, 545), (953, 545), (953, 545), (953, 545), (953, 545), (953, 545), (953, 545), (953, 545), (953, 545), (953, 545), (953, 545), (953, 545), (953, 545), (953, 545), (953, 545), (953, 545), (953, 546), (953, 554), (941, 616), (929, 671), (910, 735), (898, 789), (879, 912), (874, 960)]",101.57203393718832,"[9, 8, 2, 5, 1, 4, 3, 6, 7]","(0, 0.25)",ENG001D,ENG,D,English,Fri Aug 24 11:23:53 2018,Mouse
1,0,4,0,24,9,9,1,379,319,60,136,0,500,200,8000,"[(960, 540), (960, 540), (960, 540), (960, 540), (960, 540), (960, 540), (960, 540), (960, 540), (960, 540), (960, 540), (960, 540), (960, 540), (960, 540), (960, 540), (960, 540), (960, 540), (960, 540), (960, 540), (960, 540), (960, 540), (960, 540), (960, 540), (960, 540), (960, 540), (960, 540), (960, 540), (960, 540), (960, 540), (960, 540), (960, 540), (960, 540), (961, 540), (970, 540), (1017, 555), (1076, 581), (1135, 606), (1211, 637), (1362, 702)]",21.94869908352698,"[9, 8, 2, 5, 1, 4, 3, 6, 7]","(0, 0.25)",ENG001D,ENG,D,English,Fri Aug 24 11:23:53 2018,Mouse
1,0,4,0,25,1,1,1,390,340,50,136,0,500,200,8000,"[(960, 540), (960, 540), (960, 540), (960, 540), (960, 540), (960, 540), (960, 540), (960, 540), (960, 540), (960, 540), (960, 540), (960, 540), (960, 540), (960, 540), (960, 540), (960, 540), (960, 540), (960, 540), (960, 540), (960, 540), (960, 540), (960, 540), (960, 540), (960, 540), (960, 540), (960, 540), (960, 540), (960, 540), (960, 540), (960, 540), (960, 540), (960, 540), (960, 540), (955, 540), (909, 539), (856, 539), (778, 539), (690, 540), (529, 562)]",177.07792550413654,"[9, 8, 2, 5, 1, 4, 3, 6, 7]","(0, 0.25)",ENG001D,ENG,D,English,Fri Aug 24 11:23:53 2018,Mouse
1,0,4,0,26,7,7,1,450,400,50,135,0,500,200,8000,"[(960, 540), (960, 540), (960, 540), (960, 540), (960, 540), (960, 540), (960, 540), (960, 540), (960, 540), (960, 540), (960, 540), (960, 540), (960, 540), (960, 540), (960, 540), (960, 540), (960, 540), (960, 540), (960, 540), (960, 540), (960, 540), (960, 540), (960, 540), (960, 540), (960, 540), (960, 540), (960, 540), (960, 540), (960, 540), (960, 540), (960, 540), (960, 540), (960, 540), (960, 540), (960, 540), (960, 540), (960, 540), (960, 540), (960, 540), (968, 538), (1004, 530), (1069, 519), (1233, 488), (1325, 461), (1430, 418)]",345.4486235438405,"[9, 8, 2, 5, 1, 4, 3, 6, 7]","(0, 0.25)",ENG001D,ENG,D,English,Fri Aug 24 11:23:53 2018,Mouse
1,0,4,0,27,5,5,1,1131,1071,60,134,0,500,200,8000,"[(960, 540), (960, 540), (960, 540), (960, 540), (960, 540), (960, 540), (960, 540), (960, 540), (960, 540), (960, 540), (960, 540), (960, 540), (960, 540), (960, 540), (960, 540), (960, 540), (960, 540), (960, 540), (960, 540), (960, 540), (960, 540), (960, 540), (960, 540), (960, 540), (960, 540), (960, 540), (960, 540), (960, 540), (960, 540), (960, 540), (960, 540), (960, 540), (960, 540), (960, 540), (960, 540), (960, 540), (960, 540), (960, 540), (960, 540), (960, 540), (960, 540), (960, 540), (960, 540), (960, 540), (960, 540), (960, 540), (960, 540), (960, 540), (960, 540), (960, 540), (960, 540), (960, 540), (960, 540), (960, 540), (960, 540), (960, 540), (960, 540), (960, 540), (960, 540), (960, 540), (960, 540), (960, 540), (960, 540), (960, 540), (960, 540), (960, 540), (960, 540), (960, 540), (960, 540), (960, 540), (960, 540), (960, 540), (960, 540), (960, 540), (960, 540), (960, 540), (960, 540), (960, 540), (960, 540), (960, 540), (960, 540), (960, 540), (960, 540), (960, 540), (960, 540), (960, 540), (960, 540), (960, 540), (960, 540), (960, 540), (960, 540), (960, 540), (960, 540), (960, 540), (960, 540), (960, 540), (960, 540), (960, 540), (960, 540), (960, 540), (960, 540), (960, 540), (960, 540), (960, 540), (960, 540), (960, 540), (960, 540), (959, 541), (951, 550), (909, 598), (872, 643), (821, 705), (755, 773), (615, 888)]",134.7519678718435,"[9, 8, 2, 5, 1, 4, 3, 6, 7]","(0, 0.25)",ENG001D,ENG,D,English,Fri Aug 24 11:23:53 2018,Mouse
1,0,4,0,28,2,7,0,-389,329,60,133,0,500,200,8000,"[(960, 540), (960, 540), (960, 540), (960, 540), (960, 540), (960, 540), (960, 540), (960, 540), (960, 540), (960, 540), (960, 540), (960, 540), (960, 540), (960, 540), (960, 540), (960, 540), (960, 540), (960, 540), (960, 540), (960, 540), (960, 540), (960, 540), (960, 540), (960, 540), (960, 540), (960, 540), (960, 540), (960, 540), (960, 540), (960, 540), (960, 540), (960, 540), (969, 538), (994, 531), (1102, 500), (1174, 479), (1248, 459), (1323, 437), (1447, 403)]",344.28795515549723,"[9, 8, 2, 5, 1, 4, 3, 6, 7]","(0, 0.25)",ENG001D,ENG,D,English,Fri Aug 24 11:23:53 2018,Mouse
1,0,4,0,29,8,8,1,511,431,80,134,0,500,200,8000,"[(960, 540), (960, 540), (960, 540), (960, 540), (960, 540), (960, 540), (960, 540), (960, 540), (960, 540), (960, 540), (960, 540), (960, 540), (960, 540), (960, 540), (960, 540), (960, 540), (960, 540), (960, 540), (960, 540), (960, 540), (960, 540), (960, 540), (960, 540), (960, 540), (960, 540), (960, 540), (960, 540), (960, 540), (960, 540), (960, 540), (960, 540), (960, 540), (960, 540), (960, 540), (960, 540), (960, 540), (960, 540), (960, 540), (960, 540), (960, 540), (960, 540), (960, 540), (960, 540), (960, 541), (964, 549), (970, 558), (980, 572), (1008, 620), (1025, 658), (1048, 714), (1069, 775), (1133, 924)]",65.74744326018522,"[9, 8, 2, 5, 1, 4, 3, 6, 7]","(0, 0.25)",ENG001D,ENG,D,English,Fri Aug 24 11:23:53 2018,Mouse
1,0,4,0,30,9,9,1,420,370,50,134,0,500,200,8000,"[(960, 540), (960, 540), (960, 540), (960, 540), (960, 540), (960, 540), (960, 540), (960, 540), (960, 540), (960, 540), (960, 540), (960, 540), (960, 540), (960, 540), (960, 540), (960, 540), (960, 540), (960, 540), (960, 540), (960, 540), (960, 540), (960, 540), (960, 540), (960, 540), (960, 540), (960, 540), (960, 540), (960, 540), (960, 540), (960, 540), (960, 540), (960, 540), (960, 540), (960, 540), (960, 540), (960, 540), (963, 542), (982, 561), (1097, 627), (1175, 663), (1267, 699), (1360, 739)]",26.450345065034195,"[9, 8, 2, 5, 1, 4, 3, 6, 7]","(0, 0.25)",ENG001D,ENG,D,English,Fri Aug 24 11:23:53 2018,Mouse
1,0,4,0,31,6,6,1,530,470,60,133,0,500,200,8000,"[(960, 540), (960, 540), (960, 540), (960, 540), (960, 540), (960, 540), (960, 540), (960, 540), (960, 540), (960, 540), (960, 540), (960, 540), (960, 540), (960, 540), (960, 540), (960, 540), (960, 540), (960, 540), (960, 540), (960, 540), (960, 540), (960, 540), (960, 540), (960, 540), (960, 540), (960, 540), (960, 540), (960, 540), (960, 540), (960, 540), (960, 540), (960, 540), (960, 540), (960, 540), (960, 540), (960, 540), (960, 540), (960, 540), (960, 540), (960, 540), (960, 540), (960, 540), (960, 540), (960, 540), (960, 540), (960, 540), (957, 537), (957, 473), (969, 413), (985, 360), (1010, 306), (1062, 195), (1087, 144)]",287.7814131422442,"[9, 8, 2, 5, 1, 4, 3, 6, 7]","(0, 0.25)",ENG001D,ENG,D,English,Fri Aug 24 11:23:53 2018,Mouse
1,0,4,0,32,4,3,0,-370,300,70,132,0,500,200,8000,"[(960, 540), (960, 540), (960, 540), (960, 540), (960, 540), (960, 540), (960, 540), (960, 540), (960, 540), (960, 540), (960, 540), (960, 540), (960, 540), (960, 540), (960, 540), (960, 540), (960, 540), (960, 540), (960, 540), (960, 540), (960, 540), (960, 540), (960, 540), (960, 540), (960, 540), (960, 540), (960, 540), (960, 540), (960, 540), (960, 541), (960, 532), (967, 492), (968, 439), (968, 309), (961, 239), (939, 164), (906, 91)]",263.1421315373504,"[9, 8, 2, 5, 1, 4, 3, 6, 7]","(0, 0.25)",ENG001D,ENG,D,English,Fri Aug 24 11:23:53 2018,Mouse
1,0,4,0,33,6,4,0,-611,511,100,133,0,500,200,8000,"[(960, 540), (960, 540), (960, 540), (960, 540), (960, 540), (960, 540), (960, 540), (960, 540), (960, 540), (960, 540), (960, 540), (960, 540), (960, 540), (960, 540), (960, 540), (960, 540), (960, 540), (960, 540), (960, 540), (960, 540), (960, 540), (960, 540), (960, 540), (960, 540), (960, 540), (960, 540), (960, 540), (960, 540), (960, 540), (960, 540), (960, 540), (960, 540), (960, 540), (960, 540), (960, 540), (960, 540), (960, 540), (960, 540), (960, 540), (960, 540), (960, 540), (960, 540), (960, 540), (960, 540), (960, 540), (960, 540), (960, 540), (960, 540), (960, 540), (960, 540), (960, 538), (955, 529), (951, 520), (942, 510), (929, 490), (889, 422), (860, 373), (830, 333), (791, 290), (708, 230), (665, 209)]",228.2913398118137,"[9, 8, 2, 5, 1, 4, 3, 6, 7]","(0, 0.25)",ENG001D,ENG,D,English,Fri Aug 24 11:23:53 2018,Mouse
1,0,4,0,34,9,8,0,-1091,1021,70,134,0,500,200,8000,"[(960, 540), (960, 540), (960, 540), (960, 540), (960, 540), (960, 540), (960, 540), (960, 540), (960, 540), (960, 540), (960, 540), (960, 540), (960, 540), (960, 540), (960, 540), (960, 540), (960, 540), (960, 540), (960, 540), (960, 540), (960, 540), (960, 540), (960, 540), (960, 540), (960, 540), (960, 540), (960, 540), (960, 540), (960, 540), (960, 540), (960, 540), (960, 540), (960, 540), (960, 540), (960, 540), (960, 540), (960, 540), (960, 540), (960, 540), (960, 540), (960, 540), (960, 540), (960, 540), (960, 540), (960, 540), (960, 540), (960, 540), (960, 540), (960, 540), (960, 540), (960, 540), (960, 540), (960, 540), (960, 540), (960, 540), (960, 540), (960, 540), (960, 540), (960, 540), (960, 540), (960, 540), (960, 540), (960, 540), (960, 540), (960, 540), (960, 540), (960, 540), (960, 540), (960, 540), (960, 540), (960, 540), (960, 540), (960, 540), (960, 540), (960, 540), (960, 540), (960, 540), (960, 540), (960, 540), (960, 540), (960, 540), (960, 540), (960, 540), (960, 540), (960, 540), (960, 540), (960, 540), (960, 540), (960, 540), (960, 540), (960, 540), (960, 540), (960, 540), (960, 540), (960, 540), (960, 540), (960, 540), (960, 540), (960, 540), (960, 540), (960, 540), (960, 540), (967, 552), (978, 573), (993, 610), (1011, 658), (1059, 773), (1089, 835), (1122, 901), (1147, 960)]",65.9995500463166,"[9, 8, 2, 5, 1, 4, 3, 6, 7]","(0, 0.25)",ENG001D,ENG,D,English,Fri Aug 24 11:23:53 2018,Mouse
1,0,4,0,35,3,3,1,510,440,70,135,0,500,200,8000,"[(960, 540), (960, 540), (960, 540), (960, 540), (960, 540), (960, 540), (960, 540), (960, 540), (960, 540), (960, 540), (960, 540), (960, 540), (960, 540), (960, 540), (960, 540), (960, 540), (960, 540), (960, 540), (960, 540), (960, 540), (960, 540), (960, 540), (960, 540), (960, 540), (960, 540), (960, 540), (960, 540), (960, 540), (960, 540), (960, 540), (960, 540), (960, 540), (960, 540), (960, 540), (960, 540), (960, 540), (960, 540), (960, 540), (960, 540), (960, 540), (960, 540), (960, 540), (960, 540), (959, 529), (959, 488), (966, 428), (968, 375), (968, 256), (967, 198), (957, 141), (938, 82)]",267.24991482508756,"[9, 8, 2, 5, 1, 4, 3, 6, 7]","(0, 0.25)",ENG001D,ENG,D,English,Fri Aug 24 11:23:53 2018,Mouse
1,0,4,0,36,5,5,1,650,590,60,135,0,500,200,8000,"[(960, 540), (960, 540), (960, 540), (960, 540), (960, 540), (960, 540), (960, 540), (960, 540), (960, 540), (960, 540), (960, 540), (960, 540), (960, 540), (960, 540), (960, 540), (960, 540), (960, 540), (960, 540), (960, 540), (960, 540), (960, 540), (960, 540), (960, 540), (960, 540), (960, 540), (960, 540), (960, 540), (960, 540), (960, 540), (960, 540), (960, 540), (960, 540), (960, 540), (960, 540), (960, 540), (960, 540), (960, 540), (960, 540), (960, 540), (960, 540), (960, 540), (960, 540), (960, 540), (960, 540), (960, 540), (960, 540), (960, 540), (960, 540), (960, 540), (960, 540), (960, 540), (960, 540), (960, 540), (960, 540), (960, 540), (960, 540), (960, 540), (960, 540), (960, 541), (944, 557), (909, 577), (849, 614), (783, 649), (662, 750), (620, 803)]",142.27699418746568,"[9, 8, 2, 5, 1, 4, 3, 6, 7]","(0, 0.25)",ENG001D,ENG,D,English,Fri Aug 24 11:23:53 2018,Mouse
1,0,4,0,37,5,5,1,750,700,50,134,0,500,200,8000,"[(960, 540), (960, 540), (960, 540), (960, 540), (960, 540), (960, 540), (960, 540), (960, 540), (960, 540), (960, 540), (960, 540), (960, 540), (960, 540), (960, 540), (960, 540), (960, 540), (960, 540), (960, 540), (960, 540), (960, 540), (960, 540), (960, 540), (960, 540), (960, 540), (960, 540), (960, 540), (960, 540), (960, 540), (960, 540), (960, 540), (960, 540), (960, 540), (960, 540), (960, 540), (960, 540), (960, 540), (960, 540), (960, 540), (960, 540), (960, 540), (960, 540), (960, 540), (960, 540), (960, 540), (960, 540), (960, 540), (960, 540), (960, 540), (960, 540), (960, 540), (960, 540), (960, 540), (960, 540), (960, 540), (960, 540), (960, 540), (960, 540), (960, 540), (960, 540), (960, 540), (960, 540), (960, 540), (960, 540), (960, 540), (960, 540), (960, 540), (960, 540), (960, 540), (960, 540), (954, 544), (934, 563), (896, 599), (840, 649), (710, 770), (632, 832)]",138.32312044513543,"[9, 8, 2, 5, 1, 4, 3, 6, 7]","(0, 0.25)",ENG001D,ENG,D,English,Fri Aug 24 11:23:53 2018,Mouse
1,0,4,0,38,3,5,0,-430,380,50,133,0,500,200,8000,"[(960, 540), (960, 540), (960, 540), (960, 540), (960, 540), (960, 540), (960, 540), (960, 540), (960, 540), (960, 540), (960, 540), (960, 540), (960, 540), (960, 540), (960, 540), (960, 540), (960, 540), (960, 540), (960, 540), (960, 540), (960, 540), (960, 540), (960, 540), (960, 540), (960, 540), (960, 540), (960, 540), (960, 540), (960, 540), (960, 540), (960, 540), (960, 540), (960, 540), (960, 540), (960, 540), (960, 540), (960, 540), (956, 540), (944, 542), (922, 556), (883, 583), (733, 697), (630, 773)]",144.77559097431947,"[9, 8, 2, 5, 1, 4, 3, 6, 7]","(0, 0.25)",ENG001D,ENG,D,English,Fri Aug 24 11:23:53 2018,Mouse
1,0,4,0,39,4,4,1,640,550,90,134,0,500,200,8000,"[(960, 540), (960, 540), (960, 540), (960, 540), (960, 540), (960, 540), (960, 540), (960, 540), (960, 540), (960, 540), (960, 540), (960, 540), (960, 540), (960, 540), (960, 540), (960, 540), (960, 540), (960, 540), (960, 540), (960, 540), (960, 540), (960, 540), (960, 540), (960, 540), (960, 540), (960, 540), (960, 540), (960, 540), (960, 540), (960, 540), (960, 540), (960, 540), (960, 540), (960, 540), (960, 540), (960, 540), (960, 540), (960, 540), (960, 540), (960, 540), (960, 540), (960, 540), (960, 540), (960, 540), (960, 540), (960, 540), (960, 540), (960, 540), (960, 540), (960, 540), (960, 540), (960, 540), (960, 540), (960, 540), (959, 537), (954, 536), (947, 532), (923, 517), (899, 496), (876, 478), (831, 444), (726, 374), (672, 343), (625, 319)]",213.4128959102403,"[9, 8, 2, 5, 1, 4, 3, 6, 7]","(0, 0.25)",ENG001D,ENG,D,English,Fri Aug 24 11:23:53 2018,Mouse
1,0,4,0,40,9,9,1,401,341,60,134,0,500,200,8000,"[(960, 540), (960, 540), (960, 540), (960, 540), (960, 540), (960, 540), (960, 540), (960, 540), (960, 540), (960, 540), (960, 540), (960, 540), (960, 540), (960, 540), (960, 540), (960, 540), (960, 540), (960, 540), (960, 540), (960, 540), (960, 540), (960, 540), (960, 540), (960, 540), (960, 540), (960, 540), (960, 540), (960, 540), (960, 540), (960, 540), (960, 540), (960, 540), (960, 540), (960, 540), (962, 544), (981, 554), (1023, 569), (1127, 629), (1193, 664), (1268, 695), (1352, 725)]",25.26444164715706,"[9, 8, 2, 5, 1, 4, 3, 6, 7]","(0, 0.25)",ENG001D,ENG,D,English,Fri Aug 24 11:23:53 2018,Mouse
1,0,4,0,41,3,3,1,970,910,60,133,0,500,200,8000,"[(960, 540), (960, 540), (960, 540), (960, 540), (960, 540), (960, 540), (960, 540), (960, 540), (960, 540), (960, 540), (960, 540), (960, 540), (960, 540), (960, 540), (960, 540), (960, 540), (960, 540), (960, 540), (960, 540), (960, 540), (960, 540), (960, 540), (960, 540), (960, 540), (960, 540), (960, 540), (960, 540), (960, 540), (960, 540), (960, 540), (960, 540), (960, 540), (960, 540), (960, 540), (960, 540), (960, 540), (960, 540), (960, 540), (960, 540), (960, 540), (960, 540), (960, 540), (960, 540), (960, 540), (960, 540), (960, 540), (960, 540), (960, 540), (960, 540), (960, 540), (960, 540), (960, 540), (960, 540), (960, 540), (960, 540), (960, 540), (960, 540), (960, 540), (960, 540), (960, 540), (960, 540), (960, 540), (960, 540), (960, 540), (960, 540), (960, 540), (960, 540), (960, 540), (960, 540), (960, 540), (960, 540), (960, 540), (960, 540), (960, 540), (960, 540), (960, 540), (960, 540), (960, 540), (960, 540), (960, 540), (960, 540), (960, 540), (960, 540), (960, 540), (960, 540), (960, 540), (960, 540), (960, 540), (960, 540), (960, 540), (958, 535), (948, 481), (938, 421), (929, 351), (919, 286), (902, 164), (896, 102)]",261.68684466000053,"[9, 8, 2, 5, 1, 4, 3, 6, 7]","(0, 0.25)",ENG001D,ENG,D,English,Fri Aug 24 11:23:53 2018,Mouse
1,0,4,0,42,1,1,1,730,660,70,132,0,500,200,8000,"[(960, 540), (960, 540), (960, 540), (960, 540), (960, 540), (960, 540), (960, 540), (960, 540), (960, 540), (960, 540), (960, 540), (960, 540), (960, 540), (960, 540), (960, 540), (960, 540), (960, 540), (960, 540), (960, 540), (960, 540), (960, 540), (960, 540), (960, 540), (960, 540), (960, 540), (960, 540), (960, 540), (960, 540), (960, 540), (960, 540), (960, 540), (960, 540), (960, 540), (960, 540), (960, 540), (960, 540), (960, 540), (960, 540), (960, 540), (960, 540), (960, 540), (960, 540), (960, 540), (960, 540), (960, 540), (960, 540), (960, 540), (960, 540), (960, 540), (960, 540), (960, 540), (960, 540), (960, 540), (960, 540), (960, 540), (960, 540), (960, 540), (960, 540), (960, 540), (960, 540), (960, 540), (960, 540), (960, 540), (960, 540), (960, 540), (960, 543), (952, 545), (927, 547), (889, 555), (761, 573), (691, 582), (621, 586), (549, 586)]",173.61391044320305,"[9, 8, 2, 5, 1, 4, 3, 6, 7]","(0, 0.25)",ENG001D,ENG,D,English,Fri Aug 24 11:23:53 2018,Mouse
1,0,4,0,43,1,1,1,240,170,70,131,0,500,200,8000,"[(960, 540), (960, 540), (960, 540), (960, 540), (960, 540), (960, 540), (960, 540), (960, 540), (960, 540), (960, 540), (960, 540), (960, 540), (960, 540), (960, 540), (960, 540), (960, 540), (948, 540), (931, 541), (907, 546), (846, 546), (788, 546), (732, 546), (660, 546), (481, 546)]",179.28234509602885,"[9, 8, 2, 5, 1, 4, 3, 6, 7]","(0, 0.25)",ENG001D,ENG,D,English,Fri Aug 24 11:23:53 2018,Mouse
1,0,4,0,44,9,7,0,-771,721,50,130,0,500,200,8000,"[(960, 540), (960, 540), (960, 540), (960, 540), (960, 540), (960, 540), (960, 540), (960, 540), (960, 540), (960, 540), (960, 540), (960, 540), (960, 540), (960, 540), (960, 540), (960, 540), (960, 540), (960, 540), (960, 540), (960, 540), (960, 540), (960, 540), (960, 540), (960, 540), (960, 540), (960, 540), (960, 540), (960, 540), (960, 540), (960, 540), (960, 540), (960, 540), (960, 540), (960, 540), (960, 540), (960, 540), (960, 540), (960, 540), (960, 540), (960, 540), (960, 540), (960, 540), (960, 540), (960, 540), (960, 540), (960, 540), (960, 540), (960, 540), (960, 540), (960, 540), (960, 540), (960, 540), (960, 540), (960, 540), (960, 540), (960, 540), (960, 540), (960, 540), (960, 540), (960, 540), (960, 540), (960, 540), (960, 540), (960, 540), (960, 540), (960, 540), (960, 540), (960, 540), (960, 540), (960, 540), (960, 540), (960, 540), (960, 537), (983, 526), (1050, 497), (1218, 427), (1307, 393), (1391, 361)]",337.44624190520193,"[9, 8, 2, 5, 1, 4, 3, 6, 7]","(0, 0.25)",ENG001D,ENG,D,English,Fri Aug 24 11:23:53 2018,Mouse
1,0,4,0,45,4,4,1,451,220,231,131,0,500,200,8000,"[(960, 540), (960, 540), (960, 540), (960, 540), (960, 540), (960, 540), (960, 540), (960, 540), (960, 540), (960, 540), (960, 540), (960, 540), (960, 540), (960, 540), (960, 540), (960, 540), (960, 540), (960, 540), (960, 540), (960, 540), (960, 540), (959, 540), (959, 541), (957, 543), (956, 548), (956, 548), (956, 548), (956, 549), (956, 549), (956, 549), (956, 549), (956, 549), (953, 551), (953, 551), (952, 551), (950, 551), (941, 551), (933, 548), (917, 535), (896, 517), (825, 442), (781, 396), (738, 355), (690, 315), (609, 258)]",218.77905007884038,"[9, 8, 2, 5, 1, 4, 3, 6, 7]","(0, 0.25)",ENG001D,ENG,D,English,Fri Aug 24 11:23:53 2018,Mouse
1,0,4,0,46,5,7,0,-380,330,50,131,0,500,200,8000,"[(960, 540), (960, 540), (960, 540), (960, 540), (960, 540), (960, 540), (960, 540), (960, 540), (960, 540), (960, 540), (960, 540), (960, 540), (960, 540), (960, 540), (960, 540), (960, 540), (960, 540), (960, 540), (960, 540), (960, 540), (960, 540), (960, 540), (960, 540), (960, 540), (960, 540), (960, 540), (960, 540), (960, 540), (960, 540), (960, 540), (960, 540), (960, 540), (964, 533), (984, 522), (1089, 471), (1160, 440), (1257, 407), (1356, 382)]",338.24849971662854,"[9, 8, 2, 5, 1, 4, 3, 6, 7]","(0, 0.25)",ENG001D,ENG,D,English,Fri Aug 24 11:23:53 2018,Mouse
1,0,4,0,47,1,5,0,-1661,1601,60,132,0,500,200,8000,"[(960, 540), (960, 540), (960, 540), (960, 540), (960, 540), (960, 540), (960, 540), (960, 540), (960, 540), (960, 540), (960, 540), (960, 540), (960, 540), (960, 540), (960, 540), (960, 540), (960, 540), (960, 540), (960, 540), (960, 540), (960, 540), (960, 540), (960, 540), (960, 540), (960, 540), (960, 540), (960, 540), (960, 540), (960, 540), (960, 540), (960, 540), (960, 540), (960, 540), (960, 540), (960, 540), (960, 540), (960, 540), (960, 540), (960, 540), (960, 540), (960, 540), (960, 540), (960, 540), (960, 540), (960, 540), (960, 540), (960, 540), (960, 540), (960, 540), (960, 540), (960, 540), (960, 540), (960, 540), (960, 540), (960, 540), (960, 540), (960, 540), (960, 540), (960, 540), (960, 540), (960, 540), (960, 540), (960, 540), (960, 540), (960, 540), (960, 540), (960, 540), (960, 540), (960, 540), (960, 540), (960, 540), (960, 540), (960, 540), (960, 540), (960, 540), (960, 540), (960, 540), (960, 540), (960, 540), (960, 540), (960, 540), (960, 540), (960, 540), (960, 540), (960, 540), (960, 540), (960, 540), (960, 540), (960, 540), (960, 540), (960, 540), (960, 540), (960, 540), (960, 540), (960, 540), (960, 540), (960, 540), (960, 540), (960, 540), (960, 540), (960, 540), (960, 540), (960, 540), (960, 540), (960, 540), (960, 540), (960, 540), (960, 540), (960, 540), (960, 540), (960, 540), (960, 540), (960, 540), (960, 540), (960, 540), (960, 540), (960, 540), (960, 540), (960, 540), (960, 540), (960, 540), (960, 540), (960, 540), (960, 540), (960, 540), (960, 540), (960, 540), (960, 540), (960, 540), (960, 540), (960, 540), (960, 540), (960, 540), (960, 540), (960, 540), (960, 540), (960, 540), (960, 540), (960, 540), (960, 540), (960, 540), (960, 540), (960, 540), (960, 540), (960, 540), (960, 540), (960, 540), (960, 540), (960, 540), (960, 540), (960, 540), (960, 540), (960, 540), (960, 540), (960, 540), (960, 540), (960, 540), (960, 540), (960, 540), (960, 540), (959, 540), (946, 542), (907, 565), (863, 595), (743, 685), (684, 738), (635, 784)]",143.10190561454593,"[9, 8, 2, 5, 1, 4, 3, 6, 7]","(0, 0.25)",ENG001D,ENG,D,English,Fri Aug 24 11:23:53 2018,Mouse
1,0,4,0,48,8,5,0,-1069,1019,50,133,0,500,200,8000,"[(960, 540), (960, 540), (960, 540), (960, 540), (960, 540), (960, 540), (960, 540), (960, 540), (960, 540), (960, 540), (960, 540), (960, 540), (960, 540), (960, 540), (960, 540), (960, 540), (960, 540), (960, 540), (960, 540), (960, 540), (960, 540), (960, 540), (960, 540), (960, 540), (960, 540), (960, 540), (960, 540), (960, 540), (960, 540), (960, 540), (960, 540), (960, 540), (960, 540), (960, 540), (960, 540), (960, 540), (960, 540), (960, 540), (960, 540), (960, 540), (960, 540), (960, 540), (960, 540), (960, 540), (960, 540), (960, 540), (960, 540), (960, 540), (960, 540), (960, 540), (960, 540), (960, 540), (960, 540), (960, 540), (960, 540), (960, 540), (960, 540), (960, 540), (960, 540), (960, 540), (960, 540), (960, 540), (960, 540), (960, 540), (960, 540), (960, 540), (960, 540), (960, 540), (960, 540), (960, 540), (960, 540), (960, 540), (960, 540), (960, 540), (960, 540), (960, 540), (960, 540), (960, 540), (960, 540), (960, 540), (960, 540), (960, 540), (960, 540), (960, 540), (960, 540), (960, 540), (960, 540), (960, 540), (960, 540), (960, 540), (960, 540), (960, 540), (960, 540), (960, 540), (960, 540), (960, 540), (960, 540), (960, 540), (960, 540), (960, 540), (960, 540), (954, 547), (930, 567), (892, 604), (768, 735), (685, 830), (606, 938)]",131.65140518554313,"[9, 8, 2, 5, 1, 4, 3, 6, 7]","(0, 0.25)",ENG001D,ENG,D,English,Fri Aug 24 11:23:53 2018,Mouse
1,0,4,0,49,1,1,1,500,390,110,134,0,500,200,8000,"[(960, 540), (960, 540), (960, 540), (960, 540), (960, 540), (960, 540), (960, 540), (960, 540), (960, 540), (960, 540), (960, 540), (960, 540), (960, 540), (960, 540), (960, 540), (960, 540), (960, 540), (960, 540), (960, 540), (960, 540), (960, 540), (960, 540), (960, 540), (960, 540), (960, 540), (960, 540), (960, 540), (960, 540), (960, 540), (960, 540), (960, 540), (960, 540), (960, 540), (960, 540), (960, 540), (960, 540), (960, 540), (960, 540), (960, 539), (960, 538), (957, 538), (955, 538), (951, 538), (947, 538), (927, 538), (902, 538), (855, 538), (787, 545), (588, 575), (501, 586)]",174.2770479801396,"[9, 8, 2, 5, 1, 4, 3, 6, 7]","(0, 0.25)",ENG001D,ENG,D,English,Fri Aug 24 11:23:53 2018,Mouse
1,0,4,0,50,9,4,0,-610,440,170,134,0,500,200,8000,"[(959, 540), (959, 540), (959, 540), (959, 540), (959, 540), (959, 540), (959, 540), (959, 540), (959, 540), (959, 540), (959, 540), (959, 540), (959, 540), (959, 540), (959, 540), (959, 540), (959, 540), (959, 540), (959, 540), (959, 540), (959, 540), (959, 540), (959, 540), (959, 540), (959, 540), (959, 540), (959, 540), (959, 540), (959, 540), (959, 540), (959, 540), (959, 540), (959, 540), (959, 540), (959, 540), (959, 540), (959, 540), (959, 540), (959, 540), (959, 540), (959, 540), (959, 540), (959, 540), (959, 539), (959, 539), (957, 536), (953, 534), (951, 533), (946, 530), (929, 520), (921, 514), (909, 506), (895, 496), (861, 470), (843, 453), (814, 428), (782, 402), (723, 361), (689, 335), (659, 315), (633, 294)]",216.9539089925476,"[9, 8, 2, 5, 1, 4, 3, 6, 7]","(0, 0.25)",ENG001D,ENG,D,English,Fri Aug 24 11:23:53 2018,Mouse
1,0,4,0,51,8,8,1,612,522,90,135,0,500,200,8000,"[(960, 540), (960, 540), (960, 540), (960, 540), (960, 540), (960, 540), (960, 540), (960, 540), (960, 540), (960, 540), (960, 540), (960, 540), (960, 540), (960, 540), (960, 540), (960, 540), (960, 540), (960, 540), (960, 540), (960, 540), (960, 540), (960, 540), (960, 540), (960, 540), (960, 540), (960, 540), (960, 540), (960, 540), (960, 540), (960, 540), (960, 540), (960, 540), (960, 540), (960, 540), (960, 540), (960, 540), (960, 540), (960, 540), (960, 540), (960, 540), (960, 540), (960, 540), (960, 540), (960, 540), (960, 540), (960, 540), (960, 540), (960, 540), (960, 540), (960, 540), (960, 540), (960, 540), (976, 555), (983, 564), (992, 576), (1000, 586), (1020, 625), (1037, 665), (1052, 720), (1068, 781), (1091, 906), (1106, 961)]",70.87379426272737,"[9, 8, 2, 5, 1, 4, 3, 6, 7]","(0, 0.25)",ENG001D,ENG,D,English,Fri Aug 24 11:23:53 2018,Mouse
1,0,4,0,52,9,9,1,410,250,160,135,0,500,200,8000,"[(960, 540), (960, 540), (960, 540), (960, 540), (960, 540), (960, 540), (960, 540), (960, 540), (960, 540), (960, 540), (960, 540), (960, 540), (960, 540), (960, 540), (960, 540), (960, 540), (960, 540), (960, 540), (960, 540), (960, 540), (960, 540), (960, 540), (960, 540), (960, 540), (961, 539), (961, 539), (961, 539), (961, 539), (961, 539), (964, 539), (967, 539), (974, 540), (987, 546), (1021, 558), (1046, 566), (1080, 576), (1116, 585), (1209, 611), (1259, 625), (1309, 637), (1351, 650)]",15.712881332156636,"[9, 8, 2, 5, 1, 4, 3, 6, 7]","(0, 0.25)",ENG001D,ENG,D,English,Fri Aug 24 11:23:53 2018,Mouse
1,0,4,0,53,9,9,1,350,200,150,134,0,500,200,8000,"[(960, 540), (960, 540), (960, 540), (960, 540), (960, 540), (960, 540), (960, 540), (960, 540), (960, 540), (960, 540), (960, 540), (960, 540), (960, 540), (960, 540), (960, 540), (960, 540), (960, 540), (960, 540), (960, 540), (960, 541), (960, 541), (961, 541), (962, 542), (967, 544), (972, 545), (979, 547), (989, 549), (1013, 559), (1036, 566), (1069, 575), (1114, 591), (1204, 624), (1252, 644), (1300, 664), (1351, 685)]",20.346996151808867,"[9, 8, 2, 5, 1, 4, 3, 6, 7]","(0, 0.25)",ENG001D,ENG,D,English,Fri Aug 24 11:23:53 2018,Mouse
1,0,4,0,54,2,7,0,-521,401,120,133,0,500,200,8000,"[(960, 540), (960, 540), (960, 540), (960, 540), (960, 540), (960, 540), (960, 540), (960, 540), (960, 540), (960, 540), (960, 540), (960, 540), (960, 540), (960, 540), (960, 540), (960, 540), (960, 540), (960, 540), (960, 540), (960, 540), (960, 540), (960, 540), (960, 540), (960, 540), (960, 540), (960, 540), (960, 540), (960, 540), (960, 540), (960, 540), (960, 540), (960, 540), (960, 540), (960, 540), (960, 540), (960, 540), (960, 540), (960, 540), (960, 540), (960, 540), (960, 538), (966, 536), (979, 530), (997, 522), (1043, 507), (1068, 499), (1099, 490), (1128, 485), (1200, 466), (1231, 457), (1267, 446), (1307, 427), (1368, 401)]",341.1867279772187,"[9, 8, 2, 5, 1, 4, 3, 6, 7]","(0, 0.25)",ENG001D,ENG,D,English,Fri Aug 24 11:23:53 2018,Mouse
1,0,4,0,55,7,2,0,-1348,1308,40,134,0,500,200,8000,"[(960, 540), (960, 540), (960, 540), (960, 540), (960, 540), (960, 540), (960, 540), (960, 540), (960, 540), (960, 540), (960, 540), (960, 540), (960, 540), (960, 540), (960, 540), (960, 540), (960, 540), (960, 540), (960, 540), (960, 540), (960, 540), (960, 540), (960, 540), (960, 540), (960, 540), (960, 540), (960, 540), (960, 540), (960, 540), (960, 540), (960, 540), (960, 540), (960, 540), (960, 540), (960, 540), (960, 540), (960, 540), (960, 540), (960, 540), (960, 540), (960, 540), (960, 540), (960, 540), (960, 540), (960, 540), (960, 540), (960, 540), (960, 540), (960, 540), (960, 540), (960, 540), (960, 540), (960, 540), (960, 540), (960, 540), (960, 540), (960, 540), (960, 540), (960, 540), (960, 540), (960, 540), (960, 540), (960, 540), (960, 540), (960, 540), (960, 540), (960, 540), (960, 540), (960, 540), (960, 540), (960, 540), (960, 540), (960, 540), (960, 540), (960, 540), (960, 540), (960, 540), (960, 540), (960, 540), (960, 540), (960, 540), (960, 540), (960, 540), (960, 540), (960, 540), (960, 540), (960, 540), (960, 540), (960, 540), (960, 540), (960, 540), (960, 540), (960, 540), (960, 540), (960, 540), (960, 540), (960, 540), (960, 540), (960, 540), (960, 540), (960, 540), (960, 540), (960, 540), (960, 540), (960, 540), (960, 540), (960, 540), (960, 540), (960, 540), (960, 540), (960, 540), (960, 540), (960, 540), (960, 540), (960, 540), (960, 540), (960, 540), (960, 540), (960, 540), (960, 540), (960, 540), (960, 540), (960, 540), (960, 540), (960, 540), (960, 540), (960, 540), (960, 540), (960, 540), (960, 540), (960, 570), (952, 625), (941, 695), (930, 774), (917, 952)]",95.95832736866481,"[9, 8, 2, 5, 1, 4, 3, 6, 7]","(0, 0.25)",ENG001D,ENG,D,English,Fri Aug 24 11:23:53 2018,Mouse
1,0,4,0,56,3,3,1,700,640,60,135,0,500,200,8000,"[(960, 540), (960, 540), (960, 540), (960, 540), (960, 540), (960, 540), (960, 540), (960, 540), (960, 540), (960, 540), (960, 540), (960, 540), (960, 540), (960, 540), (960, 540), (960, 540), (960, 540), (960, 540), (960, 540), (960, 540), (960, 540), (960, 540), (960, 540), (960, 540), (960, 540), (960, 540), (960, 540), (960, 540), (960, 540), (960, 540), (960, 540), (960, 540), (960, 540), (960, 540), (960, 540), (960, 540), (960, 540), (960, 540), (960, 540), (960, 540), (960, 540), (960, 540), (960, 540), (960, 540), (960, 540), (960, 540), (960, 540), (960, 540), (960, 540), (960, 540), (960, 540), (960, 540), (960, 540), (960, 540), (960, 540), (960, 540), (960, 540), (960, 540), (960, 540), (960, 540), (960, 540), (960, 540), (960, 540), (960, 539), (960, 520), (959, 464), (942, 340), (927, 266), (916, 190), (905, 111)]",262.69424046668917,"[9, 8, 2, 5, 1, 4, 3, 6, 7]","(0, 0.25)",ENG001D,ENG,D,English,Fri Aug 24 11:23:53 2018,Mouse
1,0,4,0,57,9,9,1,601,551,50,135,0,500,200,8000,"[(960, 540), (960, 540), (960, 540), (960, 540), (960, 540), (960, 540), (960, 540), (960, 540), (960, 540), (960, 540), (960, 540), (960, 540), (960, 540), (960, 540), (960, 540), (960, 540), (960, 540), (960, 540), (960, 540), (960, 540), (960, 540), (960, 540), (960, 540), (960, 540), (960, 540), (960, 540), (960, 540), (960, 540), (960, 540), (960, 540), (960, 540), (960, 540), (960, 540), (960, 540), (960, 540), (960, 540), (960, 540), (960, 540), (960, 540), (960, 540), (960, 540), (960, 540), (960, 540), (960, 540), (960, 540), (960, 540), (960, 540), (960, 540), (960, 540), (960, 540), (960, 540), (960, 540), (960, 540), (960, 540), (960, 540), (961, 540), (993, 574), (1033, 613), (1084, 657), (1148, 704), (1292, 800)]",38.06565109873044,"[9, 8, 2, 5, 1, 4, 3, 6, 7]","(0, 0.25)",ENG001D,ENG,D,English,Fri Aug 24 11:23:53 2018,Mouse
1,0,4,0,58,8,4,0,-481,441,40,134,0,500,200,8000,"[(960, 540), (960, 540), (960, 540), (960, 540), (960, 540), (960, 540), (960, 540), (960, 540), (960, 540), (960, 540), (960, 540), (960, 540), (960, 540), (960, 540), (960, 540), (960, 540), (960, 540), (960, 540), (960, 540), (960, 540), (960, 540), (960, 540), (960, 540), (960, 540), (960, 540), (960, 540), (960, 540), (960, 540), (960, 540), (960, 540), (960, 540), (960, 540), (960, 540), (960, 540), (960, 540), (960, 540), (960, 540), (960, 540), (960, 540), (960, 540), (960, 540), (960, 540), (960, 540), (960, 540), (949, 519), (917, 479), (867, 423), (745, 309), (675, 255)]",225.0,"[9, 8, 2, 5, 1, 4, 3, 6, 7]","(0, 0.25)",ENG001D,ENG,D,English,Fri Aug 24 11:23:53 2018,Mouse
1,0,4,0,59,7,7,1,460,390,70,135,0,500,200,8000,"[(960, 540), (960, 540), (960, 540), (960, 540), (960, 540), (960, 540), (960, 540), (960, 540), (960, 540), (960, 540), (960, 540), (960, 540), (960, 540), (960, 540), (960, 540), (960, 540), (960, 540), (960, 540), (960, 540), (960, 540), (960, 540), (960, 540), (960, 540), (960, 540), (960, 540), (960, 540), (960, 540), (960, 540), (960, 540), (960, 540), (960, 540), (960, 540), (960, 540), (960, 540), (960, 540), (960, 540), (960, 540), (960, 540), (960, 538), (964, 535), (992, 530), (1094, 518), (1157, 508), (1224, 499), (1290, 487), (1401, 454)]",348.9651651827,"[9, 8, 2, 5, 1, 4, 3, 6, 7]","(0, 0.25)",ENG001D,ENG,D,English,Fri Aug 24 11:23:53 2018,Mouse
1,0,4,0,60,9,9,1,311,21,290,135,0,500,200,8000,"[(960, 540), (960, 540), (958, 540), (958, 539), (958, 538), (958, 538), (958, 538), (958, 538), (958, 538), (958, 538), (958, 538), (958, 538), (958, 538), (958, 538), (958, 538), (958, 538), (958, 538), (958, 538), (958, 538), (958, 538), (958, 538), (958, 538), (958, 538), (958, 538), (962, 540), (983, 551), (1012, 567), (1112, 611), (1174, 641), (1239, 670), (1298, 693), (1419, 744)]",23.962488974578186,"[9, 8, 2, 5, 1, 4, 3, 6, 7]","(0, 0.25)",ENG001D,ENG,D,English,Fri Aug 24 11:23:53 2018,Mouse
1,0,4,0,61,1,7,0,-730,390,340,134,0,500,200,8000,"[(960, 540), (960, 540), (960, 540), (960, 540), (960, 540), (960, 540), (960, 540), (960, 540), (960, 540), (960, 540), (960, 540), (960, 540), (960, 540), (960, 540), (960, 540), (960, 540), (960, 540), (960, 540), (960, 540), (960, 540), (960, 540), (960, 540), (960, 540), (960, 540), (960, 540), (960, 540), (960, 540), (960, 540), (960, 540), (960, 540), (960, 540), (960, 540), (960, 540), (960, 540), (960, 540), (960, 540), (960, 540), (960, 540), (960, 539), (960, 538), (960, 537), (960, 537), (960, 537), (960, 537), (960, 537), (960, 537), (960, 537), (960, 537), (960, 537), (960, 537), (960, 537), (960, 537), (960, 537), (960, 537), (960, 537), (960, 537), (959, 536), (959, 536), (959, 536), (959, 536), (959, 536), (959, 536), (959, 536), (959, 536), (959, 536), (960, 533), (984, 507), (999, 489), (1027, 459), (1065, 422), (1175, 349), (1240, 321), (1307, 293)]",324.55614709061075,"[9, 8, 2, 5, 1, 4, 3, 6, 7]","(0, 0.25)",ENG001D,ENG,D,English,Fri Aug 24 11:23:53 2018,Mouse
1,0,4,0,62,4,4,1,690,620,70,135,0,500,200,8000,"[(960, 540), (960, 540), (960, 540), (960, 540), (960, 540), (960, 540), (960, 540), (960, 540), (960, 540), (960, 540), (960, 540), (960, 540), (960, 540), (960, 540), (960, 540), (960, 540), (960, 540), (960, 540), (960, 540), (960, 540), (960, 540), (960, 540), (960, 540), (960, 540), (960, 540), (960, 540), (960, 540), (960, 540), (960, 540), (960, 540), (960, 540), (960, 540), (960, 540), (960, 540), (960, 540), (960, 540), (960, 540), (960, 540), (960, 540), (960, 540), (960, 540), (960, 540), (960, 540), (960, 540), (960, 540), (960, 540), (960, 540), (960, 540), (960, 540), (960, 540), (960, 540), (960, 540), (960, 540), (960, 540), (960, 540), (960, 540), (960, 540), (960, 540), (960, 540), (960, 540), (960, 540), (957, 542), (950, 530), (929, 497), (873, 403), (833, 358), (781, 304), (726, 265), (600, 198)]",223.53119928561418,"[9, 8, 2, 5, 1, 4, 3, 6, 7]","(0, 0.25)",ENG001D,ENG,D,English,Fri Aug 24 11:23:53 2018,Mouse
1,0,4,0,63,6,4,0,-502,442,60,135,0,500,200,8000,"[(960, 540), (960, 540), (960, 540), (960, 540), (960, 540), (960, 540), (960, 540), (960, 540), (960, 540), (960, 540), (960, 540), (960, 540), (960, 540), (960, 540), (960, 540), (960, 540), (960, 540), (960, 540), (960, 540), (960, 540), (960, 540), (960, 540), (960, 540), (960, 540), (960, 540), (960, 540), (960, 540), (960, 540), (960, 540), (960, 540), (960, 540), (960, 540), (960, 540), (960, 540), (960, 540), (960, 540), (960, 540), (960, 540), (960, 540), (960, 540), (960, 540), (960, 540), (960, 540), (960, 540), (955, 535), (937, 521), (909, 502), (798, 427), (724, 385), (634, 336), (541, 287)]",211.12436095940598,"[9, 8, 2, 5, 1, 4, 3, 6, 7]","(0, 0.25)",ENG001D,ENG,D,English,Fri Aug 24 11:23:53 2018,Mouse
1,0,4,0,64,5,5,1,421,391,30,136,0,500,200,8000,"[(960, 540), (960, 540), (960, 540), (960, 540), (960, 540), (960, 540), (960, 540), (960, 540), (960, 540), (960, 540), (960, 540), (960, 540), (960, 540), (960, 540), (960, 540), (960, 540), (960, 540), (960, 540), (960, 540), (960, 540), (960, 540), (960, 540), (960, 540), (960, 540), (960, 540), (960, 540), (960, 540), (960, 540), (960, 540), (960, 540), (960, 540), (960, 540), (960, 540), (960, 540), (960, 540), (960, 540), (960, 540), (960, 540), (960, 540), (955, 546), (840, 637), (750, 722), (657, 817)]",137.5667131350596,"[9, 8, 2, 5, 1, 4, 3, 6, 7]","(0, 0.25)",ENG001D,ENG,D,English,Fri Aug 24 11:23:53 2018,Mouse
1,0,4,0,65,7,7,1,381,331,50,136,0,500,200,8000,"[(960, 540), (960, 540), (960, 540), (960, 540), (960, 540), (960, 540), (960, 540), (960, 540), (960, 540), (960, 540), (960, 540), (960, 540), (960, 540), (960, 540), (960, 540), (960, 540), (960, 540), (960, 540), (960, 540), (960, 540), (960, 540), (960, 540), (960, 540), (960, 540), (960, 540), (960, 540), (960, 540), (960, 540), (960, 540), (960, 540), (960, 540), (960, 540), (960, 540), (1012, 507), (1064, 480), (1119, 449), (1176, 417), (1283, 374), (1346, 359)]",334.877559647714,"[9, 8, 2, 5, 1, 4, 3, 6, 7]","(0, 0.25)",ENG001D,ENG,D,English,Fri Aug 24 11:23:53 2018,Mouse
1,0,4,0,66,9,9,1,321,271,50,135,0,500,200,8000,"[(960, 540), (960, 540), (960, 540), (960, 540), (960, 540), (960, 540), (960, 540), (960, 540), (960, 540), (960, 540), (960, 540), (960, 540), (960, 540), (960, 540), (960, 540), (960, 540), (960, 540), (960, 540), (960, 540), (960, 540), (960, 540), (960, 540), (960, 540), (960, 540), (960, 540), (960, 540), (960, 540), (961, 540), (976, 549), (1017, 573), (1159, 630), (1251, 664), (1340, 689)]",21.410407051818325,"[9, 8, 2, 5, 1, 4, 3, 6, 7]","(0, 0.25)",ENG001D,ENG,D,English,Fri Aug 24 11:23:53 2018,Mouse
1,0,4,0,67,9,4,0,-1520,1400,120,134,0,500,200,8000,"[(960, 540), (960, 540), (960, 540), (960, 540), (960, 540), (960, 540), (960, 540), (960, 540), (960, 540), (960, 540), (960, 540), (960, 540), (960, 540), (960, 540), (960, 540), (960, 540), (960, 540), (960, 540), (960, 540), (960, 540), (960, 540), (960, 540), (960, 540), (960, 540), (960, 540), (960, 540), (960, 540), (960, 540), (960, 540), (960, 540), (960, 540), (960, 540), (960, 540), (960, 540), (960, 540), (960, 540), (960, 540), (960, 540), (960, 540), (960, 540), (960, 540), (960, 540), (960, 540), (960, 540), (960, 540), (960, 540), (960, 540), (960, 540), (960, 540), (960, 540), (960, 540), (960, 540), (960, 540), (960, 540), (960, 540), (960, 540), (960, 540), (960, 540), (960, 540), (960, 540), (960, 540), (960, 540), (960, 540), (960, 540), (960, 540), (960, 540), (960, 540), (960, 540), (960, 540), (960, 540), (960, 540), (960, 540), (960, 540), (960, 540), (960, 540), (960, 540), (960, 540), (960, 540), (960, 540), (960, 540), (960, 540), (960, 540), (960, 540), (960, 540), (960, 540), (960, 540), (960, 540), (960, 540), (960, 540), (960, 540), (960, 540), (960, 540), (960, 540), (960, 540), (960, 540), (960, 540), (960, 540), (960, 540), (960, 540), (960, 540), (960, 540), (960, 540), (960, 540), (960, 540), (960, 540), (960, 540), (960, 540), (960, 540), (960, 540), (960, 540), (960, 540), (960, 540), (960, 540), (960, 540), (960, 540), (960, 540), (960, 540), (960, 540), (960, 540), (960, 540), (960, 540), (960, 540), (960, 540), (960, 540), (960, 540), (960, 540), (960, 540), (960, 540), (960, 540), (960, 540), (960, 540), (960, 540), (960, 540), (960, 540), (960, 540), (960, 540), (960, 540), (960, 540), (960, 540), (959, 536), (943, 518), (935, 507), (926, 489), (908, 466), (863, 423), (840, 405), (812, 386), (779, 368), (717, 336), (691, 324), (656, 308), (624, 292)]",216.43085812016236,"[9, 8, 2, 5, 1, 4, 3, 6, 7]","(0, 0.25)",ENG001D,ENG,D,English,Fri Aug 24 11:23:53 2018,Mouse
1,0,4,0,68,9,4,0,-1081,1021,60,135,0,500,200,8000,"[(960, 540), (960, 540), (960, 540), (960, 540), (960, 540), (960, 540), (960, 540), (960, 540), (960, 540), (960, 540), (960, 540), (960, 540), (960, 540), (960, 540), (960, 540), (960, 540), (960, 540), (960, 540), (960, 540), (960, 540), (960, 540), (960, 540), (960, 540), (960, 540), (960, 540), (960, 540), (960, 540), (960, 540), (960, 540), (960, 540), (960, 540), (960, 540), (960, 540), (960, 540), (960, 540), (960, 540), (960, 540), (960, 540), (960, 540), (960, 540), (960, 540), (960, 540), (960, 540), (960, 540), (960, 540), (960, 540), (960, 540), (960, 540), (960, 540), (960, 540), (960, 540), (960, 540), (960, 540), (960, 540), (960, 540), (960, 540), (960, 540), (960, 540), (960, 540), (960, 540), (960, 540), (960, 540), (960, 540), (960, 540), (960, 540), (960, 540), (960, 540), (960, 540), (960, 540), (960, 540), (960, 540), (960, 540), (960, 540), (960, 540), (960, 540), (960, 540), (960, 540), (960, 540), (960, 540), (960, 540), (960, 540), (960, 540), (960, 540), (960, 540), (960, 540), (960, 540), (960, 540), (960, 540), (960, 540), (960, 540), (960, 540), (960, 540), (960, 540), (960, 540), (960, 540), (960, 540), (960, 540), (960, 540), (960, 540), (960, 540), (960, 540), (960, 540), (954, 539), (935, 531), (867, 495), (816, 470), (764, 441), (699, 408), (555, 342)]",206.05349531049094,"[9, 8, 2, 5, 1, 4, 3, 6, 7]","(0, 0.25)",ENG001D,ENG,D,English,Fri Aug 24 11:23:53 2018,Mouse
1,0,4,0,69,5,5,1,391,351,40,136,0,500,200,8000,"[(960, 540), (960, 540), (960, 540), (960, 540), (960, 540), (960, 540), (960, 540), (960, 540), (960, 540), (960, 540), (960, 540), (960, 540), (960, 540), (960, 540), (960, 540), (960, 540), (960, 540), (960, 540), (960, 540), (960, 540), (960, 540), (960, 540), (960, 540), (960, 540), (960, 540), (960, 540), (960, 540), (960, 540), (960, 540), (960, 540), (960, 540), (960, 540), (960, 540), (960, 540), (930, 557), (871, 605), (806, 663), (749, 723), (630, 831)]",138.5935661878652,"[9, 8, 2, 5, 1, 4, 3, 6, 7]","(0, 0.25)",ENG001D,ENG,D,English,Fri Aug 24 11:23:53 2018,Mouse
1,0,4,0,70,6,6,1,507,447,60,136,0,500,200,8000,"[(960, 540), (960, 540), (960, 540), (960, 540), (960, 540), (960, 540), (960, 540), (960, 540), (960, 540), (960, 540), (960, 540), (960, 540), (960, 540), (960, 540), (960, 540), (960, 540), (960, 540), (960, 540), (960, 540), (960, 540), (960, 540), (960, 540), (960, 540), (960, 540), (960, 540), (960, 540), (960, 540), (960, 540), (960, 540), (960, 540), (960, 540), (960, 540), (960, 540), (960, 540), (960, 540), (960, 540), (960, 540), (960, 540), (960, 540), (960, 540), (960, 540), (960, 540), (960, 540), (960, 540), (958, 539), (959, 515), (984, 426), (1008, 359), (1042, 283), (1080, 207), (1166, 69)]",293.62299593300963,"[9, 8, 2, 5, 1, 4, 3, 6, 7]","(0, 0.25)",ENG001D,ENG,D,English,Fri Aug 24 11:23:53 2018,Mouse
1,0,4,0,71,2,2,1,680,630,50,135,0,500,200,8000,"[(960, 540), (960, 540), (960, 540), (960, 540), (960, 540), (960, 540), (960, 540), (960, 540), (960, 540), (960, 540), (960, 540), (960, 540), (960, 540), (960, 540), (960, 540), (960, 540), (960, 540), (960, 540), (960, 540), (960, 540), (960, 540), (960, 540), (960, 540), (960, 540), (960, 540), (960, 540), (960, 540), (960, 540), (960, 540), (960, 540), (960, 540), (960, 540), (960, 540), (960, 540), (960, 540), (960, 540), (960, 540), (960, 540), (960, 540), (960, 540), (960, 540), (960, 540), (960, 540), (960, 540), (960, 540), (960, 540), (960, 540), (960, 540), (960, 540), (960, 540), (960, 540), (960, 540), (960, 540), (960, 540), (960, 540), (960, 540), (960, 540), (960, 540), (960, 540), (960, 540), (960, 540), (960, 540), (952, 554), (943, 590), (927, 640), (908, 701), (858, 848), (840, 923)]",107.3966047261581,"[9, 8, 2, 5, 1, 4, 3, 6, 7]","(0, 0.25)",ENG001D,ENG,D,English,Fri Aug 24 11:23:53 2018,Mouse
1,0,4,0,72,1,4,0,-780,710,70,134,0,500,200,8000,"[(960, 540), (960, 540), (960, 540), (960, 540), (960, 540), (960, 540), (960, 540), (960, 540), (960, 540), (960, 540), (960, 540), (960, 540), (960, 540), (960, 540), (960, 540), (960, 540), (960, 540), (960, 540), (960, 540), (960, 540), (960, 540), (960, 540), (960, 540), (960, 540), (960, 540), (960, 540), (960, 540), (960, 540), (960, 540), (960, 540), (960, 540), (960, 540), (960, 540), (960, 540), (960, 540), (960, 540), (960, 540), (960, 540), (960, 540), (960, 540), (960, 540), (960, 540), (960, 540), (960, 540), (960, 540), (960, 540), (960, 540), (960, 540), (960, 540), (960, 540), (960, 540), (960, 540), (960, 540), (960, 540), (960, 540), (960, 540), (960, 540), (960, 540), (960, 540), (960, 540), (960, 540), (960, 540), (960, 540), (960, 540), (960, 540), (960, 540), (960, 540), (960, 540), (960, 540), (960, 540), (959, 538), (952, 528), (939, 512), (883, 448), (851, 406), (814, 361), (770, 318), (665, 221)]",227.23843489684305,"[9, 8, 2, 5, 1, 4, 3, 6, 7]","(0, 0.25)",ENG001D,ENG,D,English,Fri Aug 24 11:23:53 2018,Mouse
1,0,4,0,73,4,4,1,809,749,60,135,0,500,200,8000,"[(960, 540), (960, 540), (960, 540), (960, 540), (960, 540), (960, 540), (960, 540), (960, 540), (960, 540), (960, 540), (960, 540), (960, 540), (960, 540), (960, 540), (960, 540), (960, 540), (960, 540), (960, 540), (960, 540), (960, 540), (960, 540), (960, 540), (960, 540), (960, 540), (960, 540), (960, 540), (960, 540), (960, 540), (960, 540), (960, 540), (960, 540), (960, 540), (960, 540), (960, 540), (960, 540), (960, 540), (960, 540), (960, 540), (960, 540), (960, 540), (960, 540), (960, 540), (960, 540), (960, 540), (960, 540), (960, 540), (960, 540), (960, 540), (960, 540), (960, 540), (960, 540), (960, 540), (960, 540), (960, 540), (960, 540), (960, 540), (960, 540), (960, 540), (960, 540), (960, 540), (960, 540), (960, 540), (960, 540), (960, 540), (960, 540), (960, 540), (960, 540), (960, 540), (960, 540), (960, 540), (960, 540), (960, 540), (960, 540), (960, 540), (960, 541), (948, 529), (923, 500), (893, 458), (807, 346), (752, 289), (685, 233)]",228.1471146040936,"[9, 8, 2, 5, 1, 4, 3, 6, 7]","(0, 0.25)",ENG001D,ENG,D,English,Fri Aug 24 11:23:53 2018,Mouse
1,0,4,0,74,6,6,1,1180,1140,40,135,0,500,200,8000,"[(960, 540), (960, 540), (960, 540), (960, 540), (960, 540), (960, 540), (960, 540), (960, 540), (960, 540), (960, 540), (960, 540), (960, 540), (960, 540), (960, 540), (960, 540), (960, 540), (960, 540), (960, 540), (960, 540), (960, 540), (960, 540), (960, 540), (960, 540), (960, 540), (960, 540), (960, 540), (960, 540), (960, 540), (960, 540), (960, 540), (960, 540), (960, 540), (960, 540), (960, 540), (960, 540), (960, 540), (960, 540), (960, 540), (960, 540), (960, 540), (960, 540), (960, 540), (960, 540), (960, 540), (960, 540), (960, 540), (960, 540), (960, 540), (960, 540), (960, 540), (960, 540), (960, 540), (960, 540), (960, 540), (960, 540), (960, 540), (960, 540), (960, 540), (960, 540), (960, 540), (960, 540), (960, 540), (960, 540), (960, 540), (960, 540), (960, 540), (960, 540), (960, 540), (960, 540), (960, 540), (960, 540), (960, 540), (960, 540), (960, 540), (960, 540), (960, 540), (960, 540), (960, 540), (960, 540), (960, 540), (960, 540), (960, 540), (960, 540), (960, 540), (960, 540), (960, 540), (960, 540), (960, 540), (960, 540), (960, 540), (960, 540), (960, 540), (960, 540), (960, 540), (960, 540), (960, 540), (960, 540), (960, 540), (960, 540), (960, 540), (960, 540), (960, 540), (960, 540), (960, 540), (960, 540), (960, 540), (960, 540), (960, 540), (960, 540), (960, 540), (960, 540), (960, 540), (960, 540), (972, 527), (1001, 473), (1033, 413), (1123, 267), (1177, 195)]",302.16929786483604,"[9, 8, 2, 5, 1, 4, 3, 6, 7]","(0, 0.25)",ENG001D,ENG,D,English,Fri Aug 24 11:23:53 2018,Mouse
1,0,4,0,75,6,4,0,-600,540,60,134,0,500,200,8000,"[(960, 540), (960, 540), (960, 540), (960, 540), (960, 540), (960, 540), (960, 540), (960, 540), (960, 540), (960, 540), (960, 540), (960, 540), (960, 540), (960, 540), (960, 540), (960, 540), (960, 540), (960, 540), (960, 540), (960, 540), (960, 540), (960, 540), (960, 540), (960, 540), (960, 540), (960, 540), (960, 540), (960, 540), (960, 540), (960, 540), (960, 540), (960, 540), (960, 540), (960, 540), (960, 540), (960, 540), (960, 540), (960, 540), (960, 540), (960, 540), (960, 540), (960, 540), (960, 540), (960, 540), (960, 540), (960, 540), (960, 540), (960, 540), (960, 540), (960, 540), (960, 540), (960, 540), (960, 540), (948, 540), (919, 539), (869, 525), (819, 512), (693, 462), (638, 428), (575, 387)]",201.673001410184,"[9, 8, 2, 5, 1, 4, 3, 6, 7]","(0, 0.25)",ENG001D,ENG,D,English,Fri Aug 24 11:23:53 2018,Mouse
1,0,4,0,76,9,4,0,-460,370,90,135,0,500,200,8000,"[(960, 540), (960, 540), (960, 540), (960, 540), (960, 540), (960, 540), (960, 540), (960, 540), (960, 540), (960, 540), (960, 540), (960, 540), (960, 540), (960, 540), (960, 540), (960, 540), (960, 540), (960, 540), (960, 540), (960, 540), (960, 540), (960, 540), (960, 540), (960, 540), (960, 540), (960, 540), (960, 540), (960, 540), (960, 540), (960, 540), (960, 540), (960, 540), (960, 540), (960, 540), (960, 540), (960, 540), (958, 532), (951, 524), (942, 515), (934, 505), (894, 466), (864, 444), (825, 417), (767, 387), (659, 331), (608, 308)]",213.3885135761115,"[9, 8, 2, 5, 1, 4, 3, 6, 7]","(0, 0.25)",ENG001D,ENG,D,English,Fri Aug 24 11:23:53 2018,Mouse
1,0,4,0,77,5,5,1,381,341,40,136,0,500,200,8000,"[(960, 540), (960, 540), (960, 540), (960, 540), (960, 540), (960, 540), (960, 540), (960, 540), (960, 540), (960, 540), (960, 540), (960, 540), (960, 540), (960, 540), (960, 540), (960, 540), (960, 540), (960, 540), (960, 540), (960, 540), (960, 540), (960, 540), (960, 540), (960, 540), (960, 540), (960, 540), (960, 540), (960, 540), (960, 540), (960, 540), (960, 540), (960, 540), (960, 540), (960, 540), (922, 548), (871, 573), (808, 605), (742, 645), (602, 727)]",152.41984743494277,"[9, 8, 2, 5, 1, 4, 3, 6, 7]","(0, 0.25)",ENG001D,ENG,D,English,Fri Aug 24 11:23:53 2018,Mouse
1,0,4,0,78,2,2,1,480,430,50,136,0,500,200,8000,"[(960, 540), (960, 540), (960, 540), (960, 540), (960, 540), (960, 540), (960, 540), (960, 540), (960, 540), (960, 540), (960, 540), (960, 540), (960, 540), (960, 540), (960, 540), (960, 540), (960, 540), (960, 540), (960, 540), (960, 540), (960, 540), (960, 540), (960, 540), (960, 540), (960, 540), (960, 540), (960, 540), (960, 540), (960, 540), (960, 540), (960, 540), (960, 540), (960, 540), (960, 540), (960, 540), (960, 540), (960, 540), (960, 540), (960, 540), (960, 540), (960, 540), (960, 540), (954, 546), (942, 585), (919, 652), (899, 726), (869, 869), (860, 931)]",104.34613348438891,"[9, 8, 2, 5, 1, 4, 3, 6, 7]","(0, 0.25)",ENG001D,ENG,D,English,Fri Aug 24 11:23:53 2018,Mouse
1,0,4,0,79,5,4,0,-1069,589,480,135,0,500,200,8000,"[(960, 540), (960, 540), (960, 540), (960, 540), (960, 540), (960, 540), (960, 540), (960, 540), (960, 540), (960, 540), (960, 540), (960, 540), (960, 540), (960, 540), (960, 540), (960, 540), (960, 540), (960, 540), (960, 540), (960, 540), (960, 540), (960, 540), (960, 540), (960, 540), (960, 540), (960, 540), (960, 540), (960, 540), (960, 540), (960, 540), (960, 540), (960, 540), (960, 540), (960, 540), (960, 540), (960, 540), (960, 540), (960, 540), (960, 540), (960, 540), (960, 540), (960, 540), (960, 540), (960, 540), (960, 540), (960, 540), (960, 540), (960, 540), (960, 540), (960, 540), (960, 540), (960, 540), (960, 540), (960, 540), (960, 540), (960, 540), (960, 540), (960, 540), (959, 540), (956, 540), (950, 543), (940, 549), (938, 550), (935, 552), (934, 552), (932, 553), (932, 553), (932, 553), (932, 553), (932, 553), (932, 553), (932, 553), (932, 553), (932, 553), (932, 553), (932, 553), (932, 553), (932, 553), (932, 553), (932, 553), (932, 553), (932, 553), (932, 553), (932, 553), (932, 553), (932, 553), (932, 553), (932, 553), (932, 553), (932, 553), (932, 553), (932, 553), (932, 553), (930, 545), (929, 543), (927, 539), (925, 536), (919, 529), (911, 521), (901, 512), (890, 503), (858, 472), (833, 454), (796, 427), (757, 395), (676, 321), (633, 277)]",218.80907120506734,"[9, 8, 2, 5, 1, 4, 3, 6, 7]","(0, 0.25)",ENG001D,ENG,D,English,Fri Aug 24 11:23:53 2018,Mouse
1,0,4,0,80,3,3,1,970,900,70,136,0,500,200,8000,"[(960, 540), (960, 540), (960, 540), (960, 540), (960, 540), (960, 540), (960, 540), (960, 540), (960, 540), (960, 540), (960, 540), (960, 540), (960, 540), (960, 540), (960, 540), (960, 540), (960, 540), (960, 540), (960, 540), (960, 540), (960, 540), (960, 540), (960, 540), (960, 540), (960, 540), (960, 540), (960, 540), (960, 540), (960, 540), (960, 540), (960, 540), (960, 540), (960, 540), (960, 540), (960, 540), (960, 540), (960, 540), (960, 540), (960, 540), (960, 540), (960, 540), (960, 540), (960, 540), (960, 540), (960, 540), (960, 540), (960, 540), (960, 540), (960, 540), (960, 540), (960, 540), (960, 540), (960, 540), (960, 540), (960, 540), (960, 540), (960, 540), (960, 540), (960, 540), (960, 540), (960, 540), (960, 540), (960, 540), (960, 540), (960, 540), (960, 540), (960, 540), (960, 540), (960, 540), (960, 540), (960, 540), (960, 540), (960, 540), (960, 540), (960, 540), (960, 540), (960, 540), (960, 540), (960, 540), (960, 540), (960, 540), (960, 540), (960, 540), (960, 540), (960, 540), (960, 540), (960, 540), (960, 540), (960, 540), (957, 519), (953, 493), (946, 452), (940, 406), (916, 302), (900, 249), (880, 198), (864, 151)]",256.13716937880804,"[9, 8, 2, 5, 1, 4, 3, 6, 7]","(0, 0.25)",ENG001D,ENG,D,English,Fri Aug 24 11:23:53 2018,Mouse
1,0,4,0,81,2,2,1,781,731,50,136,0,500,200,8000,"[(960, 540), (960, 540), (960, 540), (960, 540), (960, 540), (960, 540), (960, 540), (960, 540), (960, 540), (960, 540), (960, 540), (960, 540), (960, 540), (960, 540), (960, 540), (960, 540), (960, 540), (960, 540), (960, 540), (960, 540), (960, 540), (960, 540), (960, 540), (960, 540), (960, 540), (960, 540), (960, 540), (960, 540), (960, 540), (960, 540), (960, 540), (960, 540), (960, 540), (960, 540), (960, 540), (960, 540), (960, 540), (960, 540), (960, 540), (960, 540), (960, 540), (960, 540), (960, 540), (960, 540), (960, 540), (960, 540), (960, 540), (960, 540), (960, 540), (960, 540), (960, 540), (960, 540), (960, 540), (960, 540), (960, 540), (960, 540), (960, 540), (960, 540), (960, 540), (960, 540), (960, 540), (960, 540), (960, 540), (960, 540), (960, 540), (960, 540), (960, 540), (960, 540), (960, 540), (960, 540), (960, 540), (960, 540), (960, 540), (960, 549), (958, 580), (942, 641), (892, 817), (862, 909), (849, 993)]",103.76809045148302,"[9, 8, 2, 5, 1, 4, 3, 6, 7]","(0, 0.25)",ENG001D,ENG,D,English,Fri Aug 24 11:23:53 2018,Mouse
1,0,4,0,82,5,5,1,800,760,40,135,0,500,200,8000,"[(960, 540), (960, 540), (960, 540), (960, 540), (960, 540), (960, 540), (960, 540), (960, 540), (960, 540), (960, 540), (960, 540), (960, 540), (960, 540), (960, 540), (960, 540), (960, 540), (960, 540), (960, 540), (960, 540), (960, 540), (960, 540), (960, 540), (960, 540), (960, 540), (960, 540), (960, 540), (960, 540), (960, 540), (960, 540), (960, 540), (960, 540), (960, 540), (960, 540), (960, 540), (960, 540), (960, 540), (960, 540), (960, 540), (960, 540), (960, 540), (960, 540), (960, 540), (960, 540), (960, 540), (960, 540), (960, 540), (960, 540), (960, 540), (960, 540), (960, 540), (960, 540), (960, 540), (960, 540), (960, 540), (960, 540), (960, 540), (960, 540), (960, 540), (960, 540), (960, 540), (960, 540), (960, 540), (960, 540), (960, 540), (960, 540), (960, 540), (960, 540), (960, 540), (960, 540), (960, 540), (960, 540), (960, 540), (960, 540), (960, 540), (960, 540), (941, 551), (835, 631), (768, 690), (700, 756), (633, 829)]",138.53000668789272,"[9, 8, 2, 5, 1, 4, 3, 6, 7]","(0, 0.25)",ENG001D,ENG,D,English,Fri Aug 24 11:23:53 2018,Mouse
1,0,4,0,83,8,6,0,-1390,1320,70,134,0,500,200,8000,"[(960, 540), (960, 540), (960, 540), (960, 540), (960, 540), (960, 540), (960, 540), (960, 540), (960, 540), (960, 540), (960, 540), (960, 540), (960, 540), (960, 540), (960, 540), (960, 540), (960, 540), (960, 540), (960, 540), (960, 540), (960, 540), (960, 540), (960, 540), (960, 540), (960, 540), (960, 540), (960, 540), (960, 540), (960, 540), (960, 540), (960, 540), (960, 540), (960, 540), (960, 540), (960, 540), (960, 540), (960, 540), (960, 540), (960, 540), (960, 540), (960, 540), (960, 540), (960, 540), (960, 540), (960, 540), (960, 540), (960, 540), (960, 540), (960, 540), (960, 540), (960, 540), (960, 540), (960, 540), (960, 540), (960, 540), (960, 540), (960, 540), (960, 540), (960, 540), (960, 540), (960, 540), (960, 540), (960, 540), (960, 540), (960, 540), (960, 540), (960, 540), (960, 540), (960, 540), (960, 540), (960, 540), (960, 540), (960, 540), (960, 540), (960, 540), (960, 540), (960, 540), (960, 540), (960, 540), (960, 540), (960, 540), (960, 540), (960, 540), (960, 540), (960, 540), (960, 540), (960, 540), (960, 540), (960, 540), (960, 540), (960, 540), (960, 540), (960, 540), (960, 540), (960, 540), (960, 540), (960, 540), (960, 540), (960, 540), (960, 540), (960, 540), (960, 540), (960, 540), (960, 540), (960, 540), (960, 540), (960, 540), (960, 540), (960, 540), (960, 540), (960, 540), (960, 540), (960, 540), (960, 540), (960, 540), (960, 540), (960, 540), (960, 540), (960, 540), (960, 540), (960, 540), (960, 540), (960, 540), (960, 540), (960, 540), (960, 540), (960, 540), (960, 540), (960, 540), (960, 540), (960, 540), (964, 533), (972, 514), (989, 484), (1017, 440), (1081, 323), (1114, 258), (1149, 195), (1188, 134)]",299.3175365773467,"[9, 8, 2, 5, 1, 4, 3, 6, 7]","(0, 0.25)",ENG001D,ENG,D,English,Fri Aug 24 11:23:53 2018,Mouse
1,0,4,0,84,8,7,0,-520,480,40,135,0,500,200,8000,"[(960, 540), (960, 540), (960, 540), (960, 540), (960, 540), (960, 540), (960, 540), (960, 540), (960, 540), (960, 540), (960, 540), (960, 540), (960, 540), (960, 540), (960, 540), (960, 540), (960, 540), (960, 540), (960, 540), (960, 540), (960, 540), (960, 540), (960, 540), (960, 540), (960, 540), (960, 540), (960, 540), (960, 540), (960, 540), (960, 540), (960, 540), (960, 540), (960, 540), (960, 540), (960, 540), (960, 540), (960, 540), (960, 540), (960, 540), (960, 540), (960, 540), (960, 540), (960, 540), (960, 540), (960, 540), (960, 540), (960, 540), (1020, 530), (1074, 520), (1139, 510), (1214, 490), (1385, 441)]",346.8872883299464,"[9, 8, 2, 5, 1, 4, 3, 6, 7]","(0, 0.25)",ENG001D,ENG,D,English,Fri Aug 24 11:23:53 2018,Mouse
1,0,4,0,85,5,5,1,521,451,70,136,0,500,200,8000,"[(960, 540), (960, 540), (960, 540), (960, 540), (960, 540), (960, 540), (960, 540), (960, 540), (960, 540), (960, 540), (960, 540), (960, 540), (960, 540), (960, 540), (960, 540), (960, 540), (960, 540), (960, 540), (960, 540), (960, 540), (960, 540), (960, 540), (960, 540), (960, 540), (960, 540), (960, 540), (960, 540), (960, 540), (960, 540), (960, 540), (960, 540), (960, 540), (960, 540), (960, 540), (960, 540), (960, 540), (960, 540), (960, 540), (960, 540), (960, 540), (960, 540), (960, 540), (960, 540), (960, 540), (960, 540), (957, 542), (944, 552), (881, 604), (836, 641), (788, 676), (743, 710), (644, 775), (595, 799)]",144.64090587754902,"[9, 8, 2, 5, 1, 4, 3, 6, 7]","(0, 0.25)",ENG001D,ENG,D,English,Fri Aug 24 11:23:53 2018,Mouse
1,0,4,0,86,5,5,1,371,301,70,136,0,500,200,8000,"[(960, 540), (960, 540), (960, 540), (960, 540), (960, 540), (960, 540), (960, 540), (960, 540), (960, 540), (960, 540), (960, 540), (960, 540), (960, 540), (960, 540), (960, 540), (960, 540), (960, 540), (960, 540), (960, 540), (960, 540), (960, 540), (960, 540), (960, 540), (960, 540), (960, 540), (960, 540), (960, 540), (960, 540), (960, 540), (960, 540), (956, 542), (936, 560), (902, 589), (867, 622), (786, 716), (739, 769), (691, 823), (649, 874)]",132.95775999971835,"[9, 8, 2, 5, 1, 4, 3, 6, 7]","(0, 0.25)",ENG001D,ENG,D,English,Fri Aug 24 11:23:53 2018,Mouse
1,0,4,0,87,4,4,1,561,461,100,135,0,500,200,8000,"[(960, 540), (960, 540), (960, 540), (960, 540), (960, 540), (960, 540), (960, 540), (960, 540), (960, 540), (960, 540), (960, 540), (960, 540), (960, 540), (960, 540), (960, 540), (960, 540), (960, 540), (960, 540), (960, 540), (960, 540), (960, 540), (960, 540), (960, 540), (960, 540), (960, 540), (960, 540), (960, 540), (960, 540), (960, 540), (960, 540), (960, 540), (960, 540), (960, 540), (960, 540), (960, 540), (960, 540), (960, 540), (960, 540), (960, 540), (960, 540), (960, 540), (960, 540), (960, 540), (960, 540), (960, 540), (960, 540), (960, 537), (957, 531), (941, 519), (930, 511), (920, 503), (904, 490), (853, 441), (815, 406), (762, 363), (703, 315), (560, 225)]",218.22043205485002,"[9, 8, 2, 5, 1, 4, 3, 6, 7]","(0, 0.25)",ENG001D,ENG,D,English,Fri Aug 24 11:23:53 2018,Mouse
1,0,4,0,88,2,2,1,840,790,50,134,0,500,200,8000,"[(960, 540), (960, 540), (960, 540), (960, 540), (960, 540), (960, 540), (960, 540), (960, 540), (960, 540), (960, 540), (960, 540), (960, 540), (960, 540), (960, 540), (960, 540), (960, 540), (960, 540), (960, 540), (960, 540), (960, 540), (960, 540), (960, 540), (960, 540), (960, 540), (960, 540), (960, 540), (960, 540), (960, 540), (960, 540), (960, 540), (960, 540), (960, 540), (960, 540), (960, 540), (960, 540), (960, 540), (960, 540), (960, 540), (960, 540), (960, 540), (960, 540), (960, 540), (960, 540), (960, 540), (960, 540), (960, 540), (960, 540), (960, 540), (960, 540), (960, 540), (960, 540), (960, 540), (960, 540), (960, 540), (960, 540), (960, 540), (960, 540), (960, 540), (960, 540), (960, 540), (960, 540), (960, 540), (960, 540), (960, 540), (960, 540), (960, 540), (960, 540), (960, 540), (960, 540), (960, 540), (960, 540), (960, 540), (960, 540), (960, 540), (960, 540), (960, 540), (960, 540), (960, 540), (952, 562), (941, 606), (922, 670), (911, 743), (893, 909), (891, 984)]",98.833414651219,"[9, 8, 2, 5, 1, 4, 3, 6, 7]","(0, 0.25)",ENG001D,ENG,D,English,Fri Aug 24 11:23:53 2018,Mouse
1,0,4,0,89,6,6,1,790,700,90,133,0,500,200,8000,"[(960, 540), (960, 540), (960, 540), (960, 540), (960, 540), (960, 540), (960, 540), (960, 540), (960, 540), (960, 540), (960, 540), (960, 540), (960, 540), (960, 540), (960, 540), (960, 540), (960, 540), (960, 540), (960, 540), (960, 540), (960, 540), (960, 540), (960, 540), (960, 540), (960, 540), (960, 540), (960, 540), (960, 540), (960, 540), (960, 540), (960, 540), (960, 540), (960, 540), (960, 540), (960, 540), (960, 540), (960, 540), (960, 540), (960, 540), (960, 540), (960, 540), (960, 540), (960, 540), (960, 540), (960, 540), (960, 540), (960, 540), (960, 540), (960, 540), (960, 540), (960, 540), (960, 540), (960, 540), (960, 540), (960, 540), (960, 540), (960, 540), (960, 540), (960, 540), (960, 540), (960, 540), (960, 540), (960, 540), (960, 540), (960, 540), (960, 540), (960, 540), (960, 540), (960, 540), (960, 539), (960, 534), (960, 523), (966, 507), (997, 435), (1017, 381), (1038, 328), (1065, 276), (1111, 184), (1128, 154)]",293.520272732884,"[9, 8, 2, 5, 1, 4, 3, 6, 7]","(0, 0.25)",ENG001D,ENG,D,English,Fri Aug 24 11:23:53 2018,Mouse
1,0,4,0,90,3,4,0,-579,499,80,132,0,500,200,8000,"[(960, 540), (960, 540), (960, 540), (960, 540), (960, 540), (960, 540), (960, 540), (960, 540), (960, 540), (960, 540), (960, 540), (960, 540), (960, 540), (960, 540), (960, 540), (960, 540), (960, 540), (960, 540), (960, 540), (960, 540), (960, 540), (960, 540), (960, 540), (960, 540), (960, 540), (960, 540), (960, 540), (960, 540), (960, 540), (960, 540), (960, 540), (960, 540), (960, 540), (960, 540), (960, 540), (960, 540), (960, 540), (960, 540), (960, 540), (960, 540), (960, 540), (960, 540), (960, 540), (960, 540), (960, 540), (960, 540), (960, 540), (960, 540), (960, 540), (960, 537), (954, 526), (940, 506), (915, 470), (845, 385), (799, 341), (746, 301), (690, 264), (578, 194)]",222.16899832213474,"[9, 8, 2, 5, 1, 4, 3, 6, 7]","(0, 0.25)",ENG001D,ENG,D,English,Fri Aug 24 11:23:53 2018,Mouse
1,0,4,0,91,7,7,1,389,19,370,133,0,500,200,8000,"[(959, 540), (958, 540), (958, 540), (957, 539), (957, 539), (957, 539), (956, 539), (956, 539), (956, 539), (956, 539), (956, 539), (956, 539), (956, 539), (956, 539), (956, 539), (956, 539), (956, 539), (956, 539), (956, 539), (956, 539), (956, 539), (956, 539), (956, 539), (956, 539), (956, 539), (956, 539), (956, 539), (956, 539), (956, 539), (956, 539), (955, 538), (955, 537), (963, 530), (988, 517), (1082, 477), (1147, 449), (1206, 428), (1261, 414), (1381, 387)]",340.02782153051623,"[9, 8, 2, 5, 1, 4, 3, 6, 7]","(0, 0.25)",ENG001D,ENG,D,English,Fri Aug 24 11:23:53 2018,Mouse
1,0,4,0,92,6,6,1,1230,350,880,133,0,500,200,8000,"[(960, 540), (960, 540), (960, 540), (960, 540), (960, 540), (960, 540), (960, 540), (960, 540), (960, 540), (960, 540), (960, 540), (960, 540), (960, 540), (960, 540), (960, 540), (960, 540), (960, 540), (960, 540), (960, 540), (960, 540), (960, 540), (960, 540), (960, 540), (960, 540), (960, 540), (960, 540), (960, 540), (960, 540), (960, 540), (960, 540), (960, 540), (960, 540), (960, 540), (960, 540), (958, 540), (958, 540), (958, 540), (958, 540), (957, 540), (957, 540), (957, 540), (957, 540), (957, 540), (957, 540), (957, 540), (957, 540), (957, 540), (957, 540), (957, 540), (957, 540), (957, 540), (957, 540), (957, 540), (957, 540), (957, 540), (957, 540), (957, 540), (957, 540), (957, 540), (957, 540), (957, 540), (957, 540), (957, 540), (957, 540), (957, 540), (957, 540), (957, 540), (957, 540), (957, 540), (957, 540), (957, 540), (957, 540), (957, 540), (957, 540), (957, 540), (957, 540), (957, 540), (957, 540), (957, 540), (957, 540), (957, 540), (957, 540), (957, 540), (957, 540), (957, 540), (957, 540), (957, 540), (957, 540), (957, 540), (957, 540), (957, 540), (957, 540), (957, 540), (957, 540), (957, 540), (957, 540), (957, 540), (957, 540), (957, 540), (957, 540), (957, 540), (957, 540), (957, 540), (957, 540), (957, 540), (957, 540), (957, 540), (957, 540), (957, 540), (957, 540), (957, 540), (957, 540), (957, 540), (957, 540), (957, 531), (959, 520), (965, 506), (977, 477), (1014, 394), (1037, 350), (1064, 304), (1092, 255), (1142, 165)]",295.88884483356765,"[9, 8, 2, 5, 1, 4, 3, 6, 7]","(0, 0.25)",ENG001D,ENG,D,English,Fri Aug 24 11:23:53 2018,Mouse
1,0,4,0,93,6,6,1,311,251,60,132,0,500,200,8000,"[(960, 540), (960, 540), (960, 540), (960, 540), (960, 540), (960, 540), (960, 540), (960, 540), (960, 540), (960, 540), (960, 540), (960, 540), (960, 540), (960, 540), (960, 540), (960, 540), (960, 540), (960, 540), (960, 540), (960, 540), (960, 540), (960, 540), (960, 540), (960, 540), (960, 540), (960, 536), (963, 513), (1011, 394), (1051, 329), (1088, 263), (1127, 200), (1202, 86)]",298.0593847683445,"[9, 8, 2, 5, 1, 4, 3, 6, 7]","(0, 0.25)",ENG001D,ENG,D,English,Fri Aug 24 11:23:53 2018,Mouse
1,0,4,0,94,1,2,0,-1271,141,1130,131,0,500,200,8000,"[(960, 540), (960, 540), (960, 540), (960, 540), (960, 540), (960, 540), (960, 540), (960, 540), (960, 540), (960, 540), (960, 540), (960, 540), (960, 540), (960, 540), (959, 540), (959, 539), (959, 539), (958, 537), (958, 537), (958, 537), (958, 537), (958, 537), (958, 537), (958, 537), (958, 537), (958, 537), (958, 537), (958, 537), (958, 537), (958, 537), (958, 537), (958, 537), (958, 537), (958, 537), (958, 537), (958, 537), (958, 537), (958, 537), (958, 537), (958, 537), (958, 537), (958, 537), (958, 537), (958, 537), (958, 537), (958, 537), (958, 537), (958, 537), (958, 537), (958, 537), (958, 537), (958, 537), (958, 537), (958, 537), (958, 537), (958, 537), (958, 537), (958, 537), (958, 537), (958, 537), (958, 537), (958, 537), (958, 537), (958, 537), (958, 537), (958, 537), (958, 537), (958, 537), (958, 537), (958, 537), (958, 537), (958, 537), (958, 537), (958, 537), (958, 537), (958, 537), (958, 537), (958, 537), (958, 537), (958, 537), (958, 537), (958, 537), (958, 537), (958, 537), (958, 537), (958, 537), (958, 537), (958, 537), (958, 537), (958, 537), (958, 537), (958, 537), (958, 537), (958, 537), (958, 537), (958, 537), (958, 537), (958, 537), (958, 537), (958, 537), (958, 537), (958, 537), (958, 537), (958, 537), (958, 537), (958, 537), (958, 537), (958, 537), (958, 537), (958, 537), (958, 537), (958, 537), (958, 537), (958, 537), (958, 537), (958, 537), (958, 537), (958, 537), (958, 537), (958, 537), (958, 537), (958, 537), (958, 537), (952, 576), (942, 636), (931, 707), (920, 802), (906, 1013)]",96.51296903097945,"[9, 8, 2, 5, 1, 4, 3, 6, 7]","(0, 0.25)",ENG001D,ENG,D,English,Fri Aug 24 11:23:53 2018,Mouse
1,0,4,0,95,3,4,0,-471,421,50,132,0,500,200,8000,"[(960, 540), (960, 540), (960, 540), (960, 540), (960, 540), (960, 540), (960, 540), (960, 540), (960, 540), (960, 540), (960, 540), (960, 540), (960, 540), (960, 540), (960, 540), (960, 540), (960, 540), (960, 540), (960, 540), (960, 540), (960, 540), (960, 540), (960, 540), (960, 540), (960, 540), (960, 540), (960, 540), (960, 540), (960, 540), (960, 540), (960, 540), (960, 540), (960, 540), (960, 540), (960, 540), (960, 540), (960, 540), (960, 540), (960, 540), (960, 540), (960, 540), (960, 540), (959, 537), (919, 446), (877, 377), (832, 311), (776, 243), (668, 142)]",233.73368224107688,"[9, 8, 2, 5, 1, 4, 3, 6, 7]","(0, 0.25)",ENG001D,ENG,D,English,Fri Aug 24 11:23:53 2018,Mouse
1,0,4,0,96,2,4,0,-309,229,80,133,0,500,200,8000,"[(960, 540), (960, 540), (960, 540), (960, 540), (960, 540), (960, 540), (960, 540), (960, 540), (960, 540), (960, 540), (960, 540), (960, 540), (960, 540), (960, 540), (960, 540), (960, 540), (960, 540), (960, 540), (960, 540), (960, 540), (960, 540), (960, 540), (956, 539), (946, 534), (931, 526), (903, 506), (837, 452), (787, 414), (737, 377), (691, 335), (588, 259)]",217.06653618572932,"[9, 8, 2, 5, 1, 4, 3, 6, 7]","(0, 0.25)",ENG001D,ENG,D,English,Fri Aug 24 11:23:53 2018,Mouse
1,0,4,0,97,8,2,0,-880,830,50,134,0,500,200,8000,"[(960, 540), (960, 540), (960, 540), (960, 540), (960, 540), (960, 540), (960, 540), (960, 540), (960, 540), (960, 540), (960, 540), (960, 540), (960, 540), (960, 540), (960, 540), (960, 540), (960, 540), (960, 540), (960, 540), (960, 540), (960, 540), (960, 540), (960, 540), (960, 540), (960, 540), (960, 540), (960, 540), (960, 540), (960, 540), (960, 540), (960, 540), (960, 540), (960, 540), (960, 540), (960, 540), (960, 540), (960, 540), (960, 540), (960, 540), (960, 540), (960, 540), (960, 540), (960, 540), (960, 540), (960, 540), (960, 540), (960, 540), (960, 540), (960, 540), (960, 540), (960, 540), (960, 540), (960, 540), (960, 540), (960, 540), (960, 540), (960, 540), (960, 540), (960, 540), (960, 540), (960, 540), (960, 540), (960, 540), (960, 540), (960, 540), (960, 540), (960, 540), (960, 540), (960, 540), (960, 540), (960, 540), (960, 540), (960, 540), (960, 540), (960, 540), (960, 540), (960, 540), (960, 540), (960, 540), (960, 540), (960, 540), (960, 540), (960, 575), (960, 633), (951, 703), (938, 785), (927, 938), (927, 997)]",94.13016332636606,"[9, 8, 2, 5, 1, 4, 3, 6, 7]","(0, 0.25)",ENG001D,ENG,D,English,Fri Aug 24 11:23:53 2018,Mouse
1,0,4,0,98,7,7,1,340,280,60,135,0,500,200,8000,"[(960, 540), (960, 540), (960, 540), (960, 540), (960, 540), (960, 540), (960, 540), (960, 540), (960, 540), (960, 540), (960, 540), (960, 540), (960, 540), (960, 540), (960, 540), (960, 540), (960, 540), (960, 540), (960, 540), (960, 540), (960, 540), (960, 540), (960, 540), (960, 540), (960, 540), (960, 540), (960, 540), (960, 539), (976, 533), (1075, 509), (1136, 490), (1203, 471), (1275, 449), (1404, 415)]",344.2764151212971,"[9, 8, 2, 5, 1, 4, 3, 6, 7]","(0, 0.25)",ENG001D,ENG,D,English,Fri Aug 24 11:23:53 2018,Mouse
1,0,4,0,99,4,4,1,580,500,80,135,0,500,200,8000,"[(960, 540), (960, 540), (960, 540), (960, 540), (960, 540), (960, 540), (960, 540), (960, 540), (960, 540), (960, 540), (960, 540), (960, 540), (960, 540), (960, 540), (960, 540), (960, 540), (960, 540), (960, 540), (960, 540), (960, 540), (960, 540), (960, 540), (960, 540), (960, 540), (960, 540), (960, 540), (960, 540), (960, 540), (960, 540), (960, 540), (960, 540), (960, 540), (960, 540), (960, 540), (960, 540), (960, 540), (960, 540), (960, 540), (960, 540), (960, 540), (960, 540), (960, 540), (960, 540), (960, 540), (960, 540), (960, 540), (960, 540), (960, 540), (960, 540), (958, 538), (921, 511), (903, 486), (872, 454), (835, 420), (743, 355), (693, 322), (652, 292), (610, 266)]",218.05586948900674,"[9, 8, 2, 5, 1, 4, 3, 6, 7]","(0, 0.25)",ENG001D,ENG,D,English,Fri Aug 24 11:23:53 2018,Mouse
1,0,4,0,100,7,7,1,290,220,70,134,0,500,200,8000,"[(960, 540), (960, 540), (960, 540), (960, 540), (960, 540), (960, 540), (960, 540), (960, 540), (960, 540), (960, 540), (960, 540), (960, 540), (960, 540), (960, 540), (960, 540), (960, 540), (960, 540), (960, 540), (960, 540), (960, 540), (960, 540), (960, 538), (971, 530), (1039, 505), (1088, 491), (1130, 478), (1190, 472), (1312, 453), (1377, 443)]",346.90507557331995,"[9, 8, 2, 5, 1, 4, 3, 6, 7]","(0, 0.25)",ENG001D,ENG,D,English,Fri Aug 24 11:23:53 2018,Mouse
1,0,4,0,101,7,7,1,621,581,40,133,0,500,200,8000,"[(960, 540), (960, 540), (960, 540), (960, 540), (960, 540), (960, 540), (960, 540), (960, 540), (960, 540), (960, 540), (960, 540), (960, 540), (960, 540), (960, 540), (960, 540), (960, 540), (960, 540), (960, 540), (960, 540), (960, 540), (960, 540), (960, 540), (960, 540), (960, 540), (960, 540), (960, 540), (960, 540), (960, 540), (960, 540), (960, 540), (960, 540), (960, 540), (960, 540), (960, 540), (960, 540), (960, 540), (960, 540), (960, 540), (960, 540), (960, 540), (960, 540), (960, 540), (960, 540), (960, 540), (960, 540), (960, 540), (960, 540), (960, 540), (960, 540), (960, 540), (960, 540), (960, 540), (960, 540), (960, 540), (960, 540), (960, 540), (960, 540), (960, 540), (1042, 527), (1110, 516), (1199, 494), (1290, 466), (1464, 414)]",345.96375653207355,"[9, 8, 2, 5, 1, 4, 3, 6, 7]","(0, 0.25)",ENG001D,ENG,D,English,Fri Aug 24 11:23:53 2018,Mouse
1,0,4,0,102,4,4,1,510,450,60,132,0,500,200,8000,"[(960, 540), (960, 540), (960, 540), (960, 540), (960, 540), (960, 540), (960, 540), (960, 540), (960, 540), (960, 540), (960, 540), (960, 540), (960, 540), (960, 540), (960, 540), (960, 540), (960, 540), (960, 540), (960, 540), (960, 540), (960, 540), (960, 540), (960, 540), (960, 540), (960, 540), (960, 540), (960, 540), (960, 540), (960, 540), (960, 540), (960, 540), (960, 540), (960, 540), (960, 540), (960, 540), (960, 540), (960, 540), (960, 540), (960, 540), (960, 540), (960, 540), (960, 540), (960, 540), (960, 540), (950, 537), (932, 521), (872, 470), (830, 440), (783, 407), (730, 374), (614, 292)]",215.63155391689415,"[9, 8, 2, 5, 1, 4, 3, 6, 7]","(0, 0.25)",ENG001D,ENG,D,English,Fri Aug 24 11:23:53 2018,Mouse
1,0,4,0,103,7,7,1,430,360,70,131,0,500,200,8000,"[(960, 540), (960, 540), (960, 540), (960, 540), (960, 540), (960, 540), (960, 540), (960, 540), (960, 540), (960, 540), (960, 540), (960, 540), (960, 540), (960, 540), (960, 540), (960, 540), (960, 540), (960, 540), (960, 540), (960, 540), (960, 540), (960, 540), (960, 540), (960, 540), (960, 540), (960, 540), (960, 540), (960, 540), (960, 540), (960, 540), (960, 540), (960, 540), (960, 540), (960, 540), (960, 540), (959, 538), (967, 529), (1000, 516), (1124, 465), (1183, 438), (1253, 414), (1312, 391), (1436, 359)]",339.1805883084269,"[9, 8, 2, 5, 1, 4, 3, 6, 7]","(0, 0.25)",ENG001D,ENG,D,English,Fri Aug 24 11:23:53 2018,Mouse
1,0,4,0,104,5,4,0,-580,510,70,130,0,500,200,8000,"[(960, 540), (960, 540), (960, 540), (960, 540), (960, 540), (960, 540), (960, 540), (960, 540), (960, 540), (960, 540), (960, 540), (960, 540), (960, 540), (960, 540), (960, 540), (960, 540), (960, 540), (960, 540), (960, 540), (960, 540), (960, 540), (960, 540), (960, 540), (960, 540), (960, 540), (960, 540), (960, 540), (960, 540), (960, 540), (960, 540), (960, 540), (960, 540), (960, 540), (960, 540), (960, 540), (960, 540), (960, 540), (960, 540), (960, 540), (960, 540), (960, 540), (960, 540), (960, 540), (960, 540), (960, 540), (960, 540), (960, 540), (960, 540), (960, 540), (960, 540), (958, 540), (951, 534), (932, 513), (895, 482), (789, 410), (726, 376), (658, 338), (584, 298)]",212.76602217320706,"[9, 8, 2, 5, 1, 4, 3, 6, 7]","(0, 0.25)",ENG001D,ENG,D,English,Fri Aug 24 11:23:53 2018,Mouse
1,0,4,0,105,7,2,0,-832,792,40,131,0,500,200,8000,"[(960, 540), (960, 540), (960, 540), (960, 540), (960, 540), (960, 540), (960, 540), (960, 540), (960, 540), (960, 540), (960, 540), (960, 540), (960, 540), (960, 540), (960, 540), (960, 540), (960, 540), (960, 540), (960, 540), (960, 540), (960, 540), (960, 540), (960, 540), (960, 540), (960, 540), (960, 540), (960, 540), (960, 540), (960, 540), (960, 540), (960, 540), (960, 540), (960, 540), (960, 540), (960, 540), (960, 540), (960, 540), (960, 540), (960, 540), (960, 540), (960, 540), (960, 540), (960, 540), (960, 540), (960, 540), (960, 540), (960, 540), (960, 540), (960, 540), (960, 540), (960, 540), (960, 540), (960, 540), (960, 540), (960, 540), (960, 540), (960, 540), (960, 540), (960, 540), (960, 540), (960, 540), (960, 540), (960, 540), (960, 540), (960, 540), (960, 540), (960, 540), (960, 540), (960, 540), (960, 540), (960, 540), (960, 540), (960, 540), (960, 540), (960, 540), (960, 540), (960, 540), (960, 540), (960, 540), (959, 560), (914, 688), (877, 777), (840, 864), (811, 961)]",109.48985104423977,"[9, 8, 2, 5, 1, 4, 3, 6, 7]","(0, 0.25)",ENG001D,ENG,D,English,Fri Aug 24 11:23:53 2018,Mouse
1,0,4,0,106,2,4,0,-910,840,70,132,0,500,200,8000,"[(960, 540), (960, 540), (960, 540), (960, 540), (960, 540), (960, 540), (960, 540), (960, 540), (960, 540), (960, 540), (960, 540), (960, 540), (960, 540), (960, 540), (960, 540), (960, 540), (960, 540), (960, 540), (960, 540), (960, 540), (960, 540), (960, 540), (960, 540), (960, 540), (960, 540), (960, 540), (960, 540), (960, 540), (960, 540), (960, 540), (960, 540), (960, 540), (960, 540), (960, 540), (960, 540), (960, 540), (960, 540), (960, 540), (960, 540), (960, 540), (960, 540), (960, 540), (960, 540), (960, 540), (960, 540), (960, 540), (960, 540), (960, 540), (960, 540), (960, 540), (960, 540), (960, 540), (960, 540), (960, 540), (960, 540), (960, 540), (960, 540), (960, 540), (960, 540), (960, 540), (960, 540), (960, 540), (960, 540), (960, 540), (960, 540), (960, 540), (960, 540), (960, 540), (960, 540), (960, 540), (960, 540), (960, 540), (960, 540), (960, 540), (960, 540), (960, 540), (960, 540), (960, 540), (960, 540), (960, 540), (960, 540), (960, 540), (960, 540), (960, 539), (956, 533), (940, 517), (911, 489), (830, 413), (771, 363), (712, 317), (646, 273)]",220.3751282689769,"[9, 8, 2, 5, 1, 4, 3, 6, 7]","(0, 0.25)",ENG001D,ENG,D,English,Fri Aug 24 11:23:53 2018,Mouse
