NativeLangNumber,LanuageNumber,SessionNumber,Block,TrialNum,ConditionNumber,Response,Accuracy,RT,MovementOnsetTime,TimeInMotion,SignalContrast,SignalContrastNumber,StimDisplayTime,MaskTime,MaxResponseTime,MousePositionXY,MouseAngle,WheelOrder,NoiseMuSigma,ParticipantID,LanuageTested,SessionTested,NativeLanuage,Date,ResponseDevice
1,0,2,0,1,7,7,1,731,391,340,153,0,500,200,8000,"[(960, 540), (960, 540), (960, 540), (960, 540), (960, 540), (960, 540), (960, 540), (960, 540), (960, 540), (960, 540), (960, 540), (960, 540), (960, 540), (960, 540), (960, 540), (960, 540), (960, 540), (960, 540), (960, 540), (960, 540), (960, 540), (960, 540), (960, 540), (960, 540), (960, 540), (960, 540), (960, 540), (960, 540), (960, 540), (960, 540), (960, 540), (960, 540), (960, 540), (960, 540), (960, 540), (960, 540), (960, 540), (960, 540), (960, 540), (960, 539), (962, 539), (966, 539), (968, 540), (968, 540), (970, 542), (974, 544), (976, 545), (981, 547), (987, 551), (1000, 558), (1008, 562), (1016, 568), (1026, 573), (1048, 582), (1060, 588), (1072, 593), (1081, 595), (1105, 601), (1116, 605), (1129, 607), (1139, 610), (1161, 616), (1171, 620), (1180, 624), (1191, 629), (1214, 639), (1228, 646), (1241, 649), (1253, 652), (1287, 660), (1299, 663), (1312, 664), (1324, 667), (1348, 670)]",18.523504825841957,"[7, 1, 8, 3, 9, 4, 6, 2, 5]","(0, 0.25)",ENG010B,ENG,B,English,Fri Aug 31 09:58:09 2018,Mouse
1,0,2,0,2,2,2,1,810,480,330,153,0,500,200,8000,"[(960, 540), (960, 540), (960, 540), (960, 540), (960, 540), (960, 540), (960, 540), (960, 540), (960, 540), (960, 540), (960, 540), (960, 540), (960, 540), (960, 540), (960, 540), (960, 540), (960, 540), (960, 540), (960, 540), (960, 540), (960, 540), (960, 540), (960, 540), (960, 540), (960, 540), (960, 540), (960, 540), (960, 540), (960, 540), (960, 540), (960, 540), (960, 540), (960, 540), (960, 540), (960, 540), (960, 540), (960, 540), (960, 540), (960, 540), (960, 540), (960, 540), (960, 540), (960, 540), (960, 540), (960, 540), (960, 540), (960, 540), (963, 538), (965, 532), (969, 524), (979, 502), (983, 492), (989, 480), (995, 469), (1009, 444), (1018, 433), (1025, 422), (1032, 411), (1045, 392), (1052, 381), (1054, 372), (1060, 362), (1069, 342), (1073, 331), (1079, 318), (1086, 303), (1100, 282), (1106, 272), (1111, 261), (1115, 255), (1122, 239), (1125, 231), (1126, 225), (1127, 217), (1131, 206), (1132, 200), (1134, 196), (1134, 193), (1136, 185), (1137, 183), (1139, 180)]",296.43758580446536,"[7, 1, 8, 3, 9, 4, 6, 2, 5]","(0, 0.25)",ENG010B,ENG,B,English,Fri Aug 31 09:58:09 2018,Mouse
1,0,2,0,3,6,6,1,1359,999,360,152,0,500,200,8000,"[(960, 540), (960, 540), (960, 540), (960, 540), (960, 540), (960, 540), (960, 540), (960, 540), (960, 540), (960, 540), (960, 540), (960, 540), (960, 540), (960, 540), (960, 540), (960, 540), (960, 540), (960, 540), (960, 540), (960, 540), (960, 540), (960, 540), (960, 540), (960, 540), (960, 540), (960, 540), (960, 540), (960, 540), (960, 540), (960, 540), (960, 540), (960, 540), (960, 540), (960, 540), (960, 540), (960, 540), (960, 540), (960, 540), (960, 540), (960, 540), (960, 540), (960, 540), (960, 540), (960, 540), (960, 540), (960, 540), (960, 540), (960, 540), (960, 540), (960, 540), (960, 540), (960, 540), (960, 540), (960, 540), (960, 540), (960, 540), (960, 540), (960, 540), (960, 540), (960, 540), (960, 540), (960, 540), (960, 540), (960, 540), (960, 540), (960, 540), (960, 540), (960, 540), (960, 540), (960, 540), (960, 540), (960, 540), (960, 540), (960, 540), (960, 540), (960, 540), (960, 540), (960, 540), (960, 540), (960, 540), (960, 540), (960, 540), (960, 540), (960, 540), (960, 540), (960, 540), (960, 540), (960, 540), (960, 540), (960, 540), (960, 540), (960, 540), (960, 540), (960, 540), (960, 540), (960, 540), (960, 540), (960, 540), (960, 540), (962, 539), (964, 536), (965, 532), (967, 530), (968, 528), (972, 514), (976, 506), (977, 496), (977, 487), (979, 470), (981, 461), (982, 452), (983, 442), (986, 420), (987, 409), (987, 398), (987, 386), (987, 363), (987, 346), (987, 333), (987, 318), (986, 297), (985, 285), (984, 274), (981, 265), (977, 249), (974, 242), (969, 233), (965, 225), (955, 210), (950, 202), (947, 199), (943, 190), (932, 170), (926, 160), (920, 147), (916, 136)]",263.78436410029735,"[7, 1, 8, 3, 9, 4, 6, 2, 5]","(0, 0.25)",ENG010B,ENG,B,English,Fri Aug 31 09:58:09 2018,Mouse
1,0,2,0,4,2,2,1,470,310,160,151,0,500,200,8000,"[(960, 540), (960, 540), (960, 540), (960, 540), (960, 540), (960, 540), (960, 540), (960, 540), (960, 540), (960, 540), (960, 540), (960, 540), (960, 540), (960, 540), (960, 540), (960, 540), (960, 540), (960, 540), (960, 540), (960, 540), (960, 540), (960, 540), (960, 540), (960, 540), (960, 540), (960, 540), (960, 540), (960, 540), (960, 540), (960, 540), (965, 538), (979, 529), (985, 525), (988, 523), (994, 519), (1007, 513), (1011, 509), (1019, 502), (1024, 495), (1030, 478), (1032, 468), (1032, 451), (1038, 389), (1060, 229), (1073, 190), (1090, 165), (1105, 145)]",290.1576108945448,"[7, 1, 8, 3, 9, 4, 6, 2, 5]","(0, 0.25)",ENG010B,ENG,B,English,Fri Aug 31 09:58:09 2018,Mouse
1,0,2,0,5,4,4,1,840,510,330,150,0,500,200,8000,"[(960, 540), (960, 540), (960, 540), (960, 540), (960, 540), (960, 540), (960, 540), (960, 540), (960, 540), (960, 540), (960, 540), (960, 540), (960, 540), (960, 540), (960, 540), (960, 540), (960, 540), (960, 540), (960, 540), (960, 540), (960, 540), (960, 540), (960, 540), (960, 540), (960, 540), (960, 540), (960, 540), (960, 540), (960, 540), (960, 540), (960, 540), (960, 540), (960, 540), (960, 540), (960, 540), (960, 540), (960, 540), (960, 540), (960, 540), (960, 540), (960, 540), (960, 540), (960, 540), (960, 540), (960, 540), (960, 540), (960, 540), (960, 540), (960, 540), (960, 540), (960, 539), (959, 539), (957, 537), (955, 534), (951, 531), (944, 526), (940, 523), (936, 522), (930, 519), (917, 512), (909, 507), (902, 503), (896, 501), (880, 490), (873, 485), (868, 480), (863, 475), (849, 462), (841, 453), (835, 444), (832, 438), (824, 428), (820, 422), (816, 416), (810, 409), (799, 398), (789, 390), (777, 384), (764, 374), (724, 347), (705, 335), (680, 317), (655, 304), (612, 279)]",216.86989764584402,"[7, 1, 8, 3, 9, 4, 6, 2, 5]","(0, 0.25)",ENG010B,ENG,B,English,Fri Aug 31 09:58:09 2018,Mouse
1,0,2,0,6,4,4,1,671,70,601,149,0,500,200,8000,"[(960, 540), (960, 540), (960, 540), (960, 540), (960, 540), (960, 540), (961, 540), (961, 540), (961, 540), (961, 540), (961, 540), (961, 540), (961, 540), (961, 540), (961, 540), (961, 540), (961, 540), (961, 540), (961, 540), (961, 540), (961, 540), (961, 540), (961, 540), (961, 540), (961, 540), (961, 540), (961, 540), (961, 540), (961, 540), (962, 540), (960, 535), (955, 531), (951, 529), (946, 525), (933, 516), (925, 512), (919, 510), (912, 506), (899, 500), (893, 497), (888, 494), (880, 489), (862, 477), (853, 468), (843, 461), (829, 453), (798, 430), (780, 417), (770, 407), (761, 398), (748, 386), (744, 381), (743, 378), (740, 375), (740, 371), (739, 366), (736, 360), (729, 353), (715, 340), (704, 333), (694, 329), (684, 323), (669, 313), (664, 308), (659, 304), (655, 300), (645, 292)]",218.21341464116855,"[7, 1, 8, 3, 9, 4, 6, 2, 5]","(0, 0.25)",ENG010B,ENG,B,English,Fri Aug 31 09:58:09 2018,Mouse
1,0,2,0,7,8,8,1,650,340,310,148,0,500,200,8000,"[(960, 540), (960, 540), (960, 540), (960, 540), (960, 540), (960, 540), (960, 540), (960, 540), (960, 540), (960, 540), (960, 540), (960, 540), (960, 540), (960, 540), (960, 540), (960, 540), (960, 540), (960, 540), (960, 540), (960, 540), (960, 540), (960, 540), (960, 540), (960, 540), (960, 540), (960, 540), (960, 540), (960, 540), (960, 540), (960, 540), (960, 540), (960, 540), (960, 540), (961, 542), (961, 544), (961, 545), (961, 545), (960, 547), (960, 547), (960, 547), (960, 547), (960, 547), (960, 548), (959, 550), (959, 553), (958, 556), (957, 568), (955, 577), (954, 585), (953, 596), (952, 617), (952, 628), (952, 639), (952, 651), (952, 681), (952, 703), (952, 734), (952, 781), (952, 842), (948, 867), (943, 881), (939, 895), (931, 922), (928, 935), (924, 948)]",95.04245106917092,"[7, 1, 8, 3, 9, 4, 6, 2, 5]","(0, 0.25)",ENG010B,ENG,B,English,Fri Aug 31 09:58:09 2018,Mouse
1,0,2,0,8,1,1,1,960,610,350,147,0,500,200,8000,"[(960, 540), (960, 540), (960, 540), (960, 540), (960, 540), (960, 540), (960, 540), (960, 540), (960, 540), (960, 540), (960, 540), (960, 540), (960, 540), (960, 540), (960, 540), (960, 540), (960, 540), (960, 540), (960, 540), (960, 540), (960, 540), (960, 540), (960, 540), (960, 540), (960, 540), (960, 540), (960, 540), (960, 540), (960, 540), (960, 540), (960, 540), (960, 540), (960, 540), (960, 540), (960, 540), (960, 540), (960, 540), (960, 540), (960, 540), (960, 540), (960, 540), (960, 540), (960, 540), (960, 540), (960, 540), (960, 540), (960, 540), (960, 540), (960, 540), (960, 540), (960, 540), (960, 540), (960, 540), (960, 540), (960, 540), (960, 540), (960, 540), (960, 540), (960, 540), (960, 540), (960, 542), (960, 547), (963, 553), (968, 560), (976, 572), (982, 578), (989, 586), (1000, 598), (1029, 619), (1046, 632), (1066, 646), (1086, 659), (1118, 686), (1131, 698), (1139, 709), (1146, 718), (1154, 734), (1156, 741), (1160, 749), (1164, 755), (1169, 764), (1171, 768), (1173, 770), (1175, 773), (1179, 779), (1183, 784), (1188, 789), (1194, 797), (1199, 805), (1203, 810), (1205, 812), (1207, 816), (1212, 825), (1217, 834), (1223, 841), (1227, 851)]",49.353220490631784,"[7, 1, 8, 3, 9, 4, 6, 2, 5]","(0, 0.25)",ENG010B,ENG,B,English,Fri Aug 31 09:58:09 2018,Mouse
1,0,2,0,9,2,2,1,791,321,470,146,0,500,200,8000,"[(960, 540), (960, 540), (960, 540), (960, 540), (960, 540), (960, 540), (960, 540), (960, 540), (960, 540), (960, 540), (960, 540), (960, 540), (960, 540), (960, 540), (960, 540), (960, 540), (960, 540), (960, 540), (960, 540), (960, 540), (960, 540), (960, 540), (960, 540), (960, 540), (960, 540), (960, 540), (960, 540), (960, 540), (960, 540), (960, 540), (960, 540), (960, 540), (959, 540), (959, 540), (959, 538), (960, 537), (963, 529), (965, 523), (968, 516), (972, 508), (979, 492), (984, 483), (990, 475), (995, 465), (1008, 443), (1022, 421), (1035, 404), (1045, 388), (1058, 371), (1066, 358), (1078, 343), (1087, 332), (1105, 306), (1111, 291), (1117, 276), (1123, 264), (1132, 242), (1137, 232), (1139, 225), (1142, 216), (1147, 207), (1147, 204), (1147, 203), (1148, 202), (1148, 202), (1149, 199), (1149, 199), (1149, 199), (1150, 197), (1151, 196), (1151, 196), (1151, 196), (1151, 196), (1151, 196), (1151, 196), (1152, 195), (1153, 194), (1155, 192), (1155, 191), (1157, 188)]",299.2339546169866,"[7, 1, 8, 3, 9, 4, 6, 2, 5]","(0, 0.25)",ENG010B,ENG,B,English,Fri Aug 31 09:58:09 2018,Mouse
1,0,2,0,10,6,6,1,1080,620,460,145,0,500,200,8000,"[(960, 540), (960, 540), (960, 540), (960, 540), (960, 540), (960, 540), (960, 540), (960, 540), (960, 540), (960, 540), (960, 540), (960, 540), (960, 540), (960, 540), (960, 540), (960, 540), (960, 540), (960, 540), (960, 540), (960, 540), (960, 540), (960, 540), (960, 540), (960, 540), (960, 540), (960, 540), (960, 540), (960, 540), (960, 540), (960, 540), (960, 540), (960, 540), (960, 540), (960, 540), (960, 540), (960, 540), (960, 540), (960, 540), (960, 540), (960, 540), (960, 540), (960, 540), (960, 540), (960, 540), (960, 540), (960, 540), (960, 540), (960, 540), (960, 540), (960, 540), (960, 540), (960, 540), (960, 540), (960, 540), (960, 540), (960, 540), (960, 540), (960, 540), (960, 540), (960, 540), (960, 540), (960, 538), (960, 530), (960, 513), (960, 504), (960, 496), (960, 487), (960, 473), (960, 467), (960, 462), (959, 457), (957, 445), (956, 443), (956, 440), (956, 437), (956, 432), (956, 425), (956, 419), (956, 414), (956, 400), (956, 393), (956, 385), (953, 377), (947, 362), (944, 356), (940, 348), (936, 342), (930, 327), (927, 321), (925, 316), (923, 308), (921, 296), (918, 287), (916, 281), (916, 271), (916, 255), (916, 245), (916, 239), (916, 230), (916, 211), (916, 203), (916, 194), (916, 184), (916, 169), (916, 162), (916, 156), (916, 150), (915, 141)]",263.56526084896325,"[7, 1, 8, 3, 9, 4, 6, 2, 5]","(0, 0.25)",ENG010B,ENG,B,English,Fri Aug 31 09:58:09 2018,Mouse
1,0,2,0,11,8,8,1,471,211,260,144,0,500,200,8000,"[(960, 540), (960, 540), (960, 540), (960, 540), (960, 540), (960, 540), (960, 540), (960, 540), (960, 540), (960, 540), (960, 540), (960, 540), (960, 540), (960, 540), (960, 540), (960, 540), (960, 540), (960, 540), (960, 540), (960, 540), (960, 540), (961, 540), (961, 540), (961, 541), (961, 542), (961, 543), (961, 543), (961, 547), (961, 547), (960, 550), (960, 552), (958, 561), (957, 567), (954, 574), (954, 581), (950, 601), (947, 610), (943, 622), (941, 634), (931, 671), (928, 695), (927, 718), (920, 748), (919, 799), (919, 835), (919, 868), (919, 902), (919, 971)]",95.43405854154048,"[7, 1, 8, 3, 9, 4, 6, 2, 5]","(0, 0.25)",ENG010B,ENG,B,English,Fri Aug 31 09:58:09 2018,Mouse
1,0,2,0,12,6,6,1,1132,752,380,143,0,500,200,8000,"[(960, 540), (960, 540), (960, 540), (960, 540), (960, 540), (960, 540), (960, 540), (960, 540), (960, 540), (960, 540), (960, 540), (960, 540), (960, 540), (960, 540), (960, 540), (960, 540), (960, 540), (960, 540), (960, 540), (960, 540), (960, 540), (960, 540), (960, 540), (960, 540), (960, 540), (960, 540), (960, 540), (960, 540), (960, 540), (960, 540), (960, 540), (960, 540), (960, 540), (960, 540), (960, 540), (960, 540), (960, 540), (960, 540), (960, 540), (960, 540), (960, 540), (960, 540), (960, 540), (960, 540), (960, 540), (960, 540), (960, 540), (960, 540), (960, 540), (960, 540), (960, 540), (960, 540), (960, 540), (960, 540), (960, 540), (960, 540), (960, 540), (960, 540), (960, 540), (960, 540), (960, 540), (960, 540), (960, 540), (960, 540), (960, 540), (960, 540), (960, 540), (960, 540), (960, 540), (960, 540), (960, 540), (960, 540), (960, 540), (960, 540), (960, 540), (960, 541), (960, 541), (960, 541), (960, 541), (960, 541), (960, 541), (960, 541), (960, 541), (960, 541), (960, 541), (960, 541), (960, 541), (959, 537), (959, 535), (959, 532), (958, 529), (956, 522), (953, 516), (953, 512), (950, 504), (947, 494), (944, 489), (943, 481), (940, 474), (938, 454), (938, 445), (938, 434), (938, 422), (935, 393), (933, 372), (932, 355), (932, 335), (932, 290), (931, 267), (931, 245), (928, 221), (925, 167), (920, 145), (919, 130)]",264.28940686250036,"[7, 1, 8, 3, 9, 4, 6, 2, 5]","(0, 0.25)",ENG010B,ENG,B,English,Fri Aug 31 09:58:09 2018,Mouse
1,0,2,0,13,4,4,1,500,40,460,142,0,500,200,8000,"[(960, 540), (960, 540), (960, 540), (959, 539), (959, 539), (959, 539), (959, 539), (959, 539), (958, 539), (957, 539), (956, 539), (954, 539), (952, 539), (950, 540), (949, 540), (948, 541), (948, 541), (946, 542), (946, 542), (944, 543), (942, 544), (940, 544), (939, 544), (938, 544), (934, 545), (933, 545), (931, 545), (931, 545), (930, 545), (928, 545), (928, 545), (926, 545), (922, 543), (917, 540), (910, 535), (901, 531), (881, 519), (866, 511), (846, 499), (833, 492), (804, 476), (792, 469), (779, 460), (764, 450), (737, 428), (719, 412), (702, 393), (681, 372), (640, 330), (627, 317)]",213.80902053053222,"[7, 1, 8, 3, 9, 4, 6, 2, 5]","(0, 0.25)",ENG010B,ENG,B,English,Fri Aug 31 09:58:09 2018,Mouse
1,0,2,0,14,9,9,1,440,20,420,141,0,500,200,8000,"[(959, 540), (958, 540), (957, 541), (956, 541), (956, 541), (954, 543), (954, 543), (952, 543), (952, 543), (950, 544), (950, 544), (948, 545), (947, 545), (944, 547), (943, 547), (942, 547), (940, 548), (938, 549), (936, 550), (936, 550), (934, 551), (932, 552), (932, 552), (930, 553), (928, 554), (922, 555), (917, 557), (913, 558), (908, 559), (893, 562), (886, 563), (876, 564), (865, 566), (843, 566), (834, 566), (821, 566), (809, 566), (773, 566), (742, 566), (717, 566), (686, 566), (604, 562), (566, 555), (532, 549)]",178.79535974085238,"[7, 1, 8, 3, 9, 4, 6, 2, 5]","(0, 0.25)",ENG010B,ENG,B,English,Fri Aug 31 09:58:09 2018,Mouse
1,0,2,0,15,2,2,1,891,611,280,140,0,500,200,8000,"[(960, 540), (960, 540), (960, 540), (960, 540), (960, 540), (960, 540), (960, 540), (960, 540), (960, 540), (960, 540), (960, 540), (960, 540), (960, 540), (960, 540), (960, 540), (960, 540), (960, 540), (960, 540), (960, 540), (960, 540), (960, 540), (960, 540), (960, 540), (960, 540), (960, 540), (960, 540), (960, 540), (960, 540), (960, 540), (960, 540), (960, 540), (960, 540), (960, 540), (960, 540), (960, 540), (960, 540), (960, 540), (960, 540), (960, 540), (960, 540), (960, 540), (960, 540), (960, 540), (960, 540), (960, 540), (960, 540), (960, 540), (960, 540), (960, 540), (960, 540), (960, 540), (960, 540), (960, 540), (960, 540), (960, 540), (960, 540), (960, 540), (960, 540), (960, 540), (960, 540), (960, 540), (959, 536), (960, 531), (965, 524), (971, 515), (984, 495), (992, 483), (1000, 472), (1010, 460), (1023, 441), (1031, 429), (1037, 422), (1042, 413), (1054, 399), (1058, 392), (1062, 385), (1066, 378), (1077, 366), (1081, 359), (1085, 353), (1089, 344), (1097, 328), (1101, 317), (1104, 306), (1106, 294), (1113, 257), (1114, 236), (1115, 219), (1116, 204), (1120, 169)]",293.32893492856476,"[7, 1, 8, 3, 9, 4, 6, 2, 5]","(0, 0.25)",ENG010B,ENG,B,English,Fri Aug 31 09:58:09 2018,Mouse
1,0,2,0,16,3,8,0,-921,241,680,139,0,500,200,8000,"[(960, 540), (960, 540), (960, 540), (960, 540), (960, 540), (960, 540), (960, 540), (960, 540), (960, 540), (960, 540), (960, 540), (960, 540), (960, 540), (960, 540), (960, 540), (960, 540), (960, 540), (960, 540), (960, 540), (960, 540), (960, 540), (960, 540), (960, 540), (960, 540), (959, 542), (959, 542), (959, 543), (959, 544), (959, 544), (959, 545), (959, 546), (959, 547), (959, 547), (959, 547), (959, 547), (959, 548), (959, 548), (959, 548), (959, 548), (959, 548), (959, 548), (959, 548), (959, 548), (959, 548), (959, 548), (959, 548), (959, 548), (959, 548), (959, 548), (959, 548), (959, 548), (959, 548), (959, 548), (959, 548), (959, 548), (959, 549), (957, 550), (957, 550), (957, 551), (957, 552), (956, 554), (956, 554), (955, 555), (954, 558), (954, 558), (953, 559), (953, 560), (953, 560), (952, 561), (952, 563), (950, 565), (949, 570), (948, 572), (946, 577), (946, 579), (943, 594), (940, 603), (938, 614), (933, 625), (928, 654), (927, 669), (922, 695), (921, 721), (921, 774), (921, 793), (919, 814), (919, 833), (919, 865), (919, 884), (919, 899), (919, 913), (919, 937), (919, 946)]",95.76647781084141,"[7, 1, 8, 3, 9, 4, 6, 2, 5]","(0, 0.25)",ENG010B,ENG,B,English,Fri Aug 31 09:58:09 2018,Mouse
1,0,2,0,17,6,6,1,790,140,650,140,0,500,200,8000,"[(960, 540), (960, 540), (960, 540), (960, 540), (960, 540), (960, 540), (960, 540), (960, 540), (960, 540), (960, 540), (960, 540), (960, 540), (960, 540), (959, 538), (959, 538), (959, 536), (959, 535), (958, 533), (958, 532), (958, 532), (958, 531), (958, 529), (958, 529), (958, 527), (958, 526), (958, 526), (958, 525), (958, 525), (958, 525), (958, 524), (958, 524), (958, 524), (958, 523), (958, 522), (958, 522), (958, 522), (958, 521), (958, 520), (958, 518), (957, 516), (957, 514), (957, 510), (956, 508), (954, 506), (953, 503), (953, 498), (952, 497), (952, 494), (950, 491), (950, 487), (950, 486), (950, 483), (950, 479), (950, 469), (950, 461), (950, 451), (949, 443), (947, 423), (947, 414), (945, 401), (945, 391), (945, 368), (945, 357), (945, 346), (945, 334), (945, 305), (942, 288), (941, 270), (939, 258), (936, 230), (936, 219), (936, 209), (933, 195), (930, 174), (928, 167), (926, 158), (923, 152), (921, 145), (920, 142)]",264.2609015019104,"[7, 1, 8, 3, 9, 4, 6, 2, 5]","(0, 0.25)",ENG010B,ENG,B,English,Fri Aug 31 09:58:09 2018,Mouse
1,0,2,0,18,8,8,1,372,142,230,140,0,500,200,8000,"[(960, 540), (960, 540), (960, 540), (960, 540), (960, 540), (960, 540), (960, 540), (960, 540), (960, 540), (960, 540), (960, 540), (960, 540), (960, 540), (960, 540), (960, 542), (960, 543), (960, 545), (958, 547), (956, 553), (955, 557), (953, 563), (952, 569), (950, 587), (947, 594), (946, 605), (945, 618), (941, 645), (941, 662), (941, 684), (941, 706), (941, 762), (941, 790), (940, 819), (938, 844), (931, 890), (928, 908), (928, 923), (928, 939)]",94.58533589856111,"[7, 1, 8, 3, 9, 4, 6, 2, 5]","(0, 0.25)",ENG010B,ENG,B,English,Fri Aug 31 09:58:09 2018,Mouse
1,0,2,0,19,7,7,1,399,199,200,139,0,500,200,8000,"[(960, 540), (960, 540), (960, 540), (960, 540), (960, 540), (960, 540), (960, 540), (960, 540), (960, 540), (960, 540), (960, 540), (960, 540), (960, 540), (960, 540), (960, 540), (960, 540), (960, 540), (960, 540), (960, 540), (961, 540), (961, 540), (962, 540), (964, 539), (968, 538), (970, 538), (973, 538), (976, 538), (984, 537), (990, 537), (999, 537), (1010, 537), (1043, 537), (1071, 545), (1110, 558), (1152, 572), (1221, 591), (1254, 600), (1280, 608), (1310, 616), (1353, 629)]",12.760148764953641,"[7, 1, 8, 3, 9, 4, 6, 2, 5]","(0, 0.25)",ENG010B,ENG,B,English,Fri Aug 31 09:58:09 2018,Mouse
1,0,2,0,20,9,9,1,1111,511,600,138,0,500,200,8000,"[(960, 540), (960, 540), (960, 540), (960, 540), (960, 540), (960, 540), (960, 540), (960, 540), (960, 540), (960, 540), (960, 540), (960, 540), (960, 540), (960, 540), (960, 540), (960, 540), (960, 540), (960, 540), (960, 540), (960, 540), (960, 540), (960, 540), (960, 540), (960, 540), (960, 540), (960, 540), (960, 540), (960, 540), (960, 540), (960, 540), (960, 540), (960, 540), (960, 540), (960, 540), (960, 540), (960, 540), (960, 540), (960, 540), (960, 540), (960, 540), (960, 540), (960, 540), (960, 540), (960, 540), (960, 540), (960, 540), (960, 540), (960, 540), (960, 540), (960, 540), (960, 540), (960, 541), (958, 541), (957, 541), (957, 541), (956, 541), (956, 541), (955, 541), (954, 541), (954, 541), (954, 541), (954, 541), (954, 541), (954, 541), (954, 541), (954, 541), (954, 541), (954, 540), (954, 540), (953, 540), (953, 539), (953, 539), (952, 539), (952, 539), (952, 539), (952, 538), (952, 538), (951, 538), (950, 537), (949, 537), (947, 537), (946, 537), (944, 535), (941, 535), (938, 535), (935, 535), (933, 535), (921, 535), (915, 535), (907, 535), (900, 535), (882, 535), (873, 535), (863, 535), (852, 535), (824, 535), (811, 535), (794, 535), (779, 535), (749, 535), (734, 535), (720, 535), (705, 535), (671, 535), (654, 535), (639, 535), (625, 535), (599, 535), (587, 535), (576, 535), (565, 534), (545, 532)]",181.10436017206536,"[7, 1, 8, 3, 9, 4, 6, 2, 5]","(0, 0.25)",ENG010B,ENG,B,English,Fri Aug 31 09:58:09 2018,Mouse
1,0,2,0,21,1,1,1,930,230,700,137,0,500,200,8000,"[(960, 540), (960, 540), (960, 540), (960, 540), (960, 540), (960, 540), (960, 540), (960, 540), (960, 540), (960, 540), (960, 540), (960, 540), (960, 540), (960, 540), (960, 540), (960, 540), (960, 540), (960, 540), (960, 540), (960, 540), (960, 540), (960, 540), (959, 540), (957, 540), (956, 538), (956, 538), (956, 538), (956, 538), (956, 538), (956, 538), (956, 538), (956, 538), (956, 538), (956, 538), (956, 538), (956, 538), (956, 538), (956, 538), (956, 538), (956, 538), (956, 538), (956, 538), (956, 538), (956, 538), (956, 538), (956, 538), (956, 538), (956, 538), (956, 538), (956, 538), (956, 538), (956, 538), (956, 538), (956, 538), (956, 538), (956, 538), (956, 538), (956, 540), (956, 543), (956, 544), (956, 545), (956, 547), (957, 553), (959, 556), (964, 561), (971, 570), (983, 581), (989, 586), (997, 592), (1000, 596), (1013, 607), (1015, 609), (1019, 614), (1022, 617), (1030, 627), (1034, 632), (1038, 640), (1042, 647), (1049, 660), (1049, 666), (1055, 677), (1059, 685), (1066, 706), (1069, 716), (1072, 726), (1075, 737), (1081, 760), (1082, 774), (1084, 789), (1088, 811), (1102, 876), (1114, 905), (1124, 928)]",67.08717160322834,"[7, 1, 8, 3, 9, 4, 6, 2, 5]","(0, 0.25)",ENG010B,ENG,B,English,Fri Aug 31 09:58:09 2018,Mouse
1,0,2,0,22,2,2,1,790,450,340,136,0,500,200,8000,"[(960, 540), (960, 540), (960, 540), (960, 540), (960, 540), (960, 540), (960, 540), (960, 540), (960, 540), (960, 540), (960, 540), (960, 540), (960, 540), (960, 540), (960, 540), (960, 540), (960, 540), (960, 540), (960, 540), (960, 540), (960, 540), (960, 540), (960, 540), (960, 540), (960, 540), (960, 540), (960, 540), (960, 540), (960, 540), (960, 540), (960, 540), (960, 540), (960, 540), (960, 540), (960, 540), (960, 540), (960, 540), (960, 540), (960, 540), (960, 540), (960, 540), (960, 540), (960, 540), (960, 540), (959, 539), (959, 537), (959, 536), (960, 534), (963, 530), (964, 528), (965, 525), (966, 523), (969, 518), (969, 518), (969, 517), (971, 515), (971, 514), (972, 513), (972, 512), (974, 510), (978, 504), (981, 501), (986, 493), (993, 483), (1010, 456), (1019, 442), (1030, 425), (1041, 408), (1065, 374), (1078, 357), (1089, 343), (1097, 331), (1117, 304), (1128, 287), (1136, 275), (1146, 262), (1162, 228), (1167, 215), (1175, 196)]",302.0053832080835,"[7, 1, 8, 3, 9, 4, 6, 2, 5]","(0, 0.25)",ENG010B,ENG,B,English,Fri Aug 31 09:58:09 2018,Mouse
1,0,2,0,23,8,2,0,-590,220,370,135,0,500,200,8000,"[(960, 540), (960, 540), (960, 540), (960, 540), (960, 540), (960, 540), (960, 540), (960, 540), (960, 540), (960, 540), (960, 540), (960, 540), (960, 540), (960, 540), (960, 540), (960, 540), (960, 540), (960, 540), (960, 540), (960, 540), (960, 540), (959, 541), (959, 541), (959, 541), (959, 541), (959, 541), (959, 541), (959, 541), (959, 541), (959, 541), (959, 541), (959, 541), (959, 541), (959, 541), (959, 541), (959, 541), (959, 541), (959, 541), (959, 541), (959, 540), (961, 537), (962, 534), (964, 530), (966, 528), (971, 519), (975, 512), (979, 503), (982, 495), (991, 477), (996, 466), (1005, 447), (1018, 425), (1044, 374), (1063, 344), (1082, 311), (1097, 284), (1127, 230), (1139, 204), (1149, 178)]",297.5690365468844,"[7, 1, 8, 3, 9, 4, 6, 2, 5]","(0, 0.25)",ENG010B,ENG,B,English,Fri Aug 31 09:58:09 2018,Mouse
1,0,2,0,24,1,7,0,-641,341,300,136,0,500,200,8000,"[(960, 540), (960, 540), (960, 540), (960, 540), (960, 540), (960, 540), (960, 540), (960, 540), (960, 540), (960, 540), (960, 540), (960, 540), (960, 540), (960, 540), (960, 540), (960, 540), (960, 540), (960, 540), (960, 540), (960, 540), (960, 540), (960, 540), (960, 540), (960, 540), (960, 540), (960, 540), (960, 540), (960, 540), (960, 540), (960, 540), (960, 540), (960, 540), (960, 540), (960, 540), (959, 541), (959, 543), (960, 546), (974, 553), (983, 557), (990, 561), (1003, 567), (1040, 582), (1064, 593), (1090, 604), (1113, 614), (1158, 633), (1181, 643), (1199, 650), (1216, 655), (1242, 659), (1251, 660), (1261, 661), (1269, 663), (1278, 665), (1281, 665), (1283, 665), (1283, 665), (1285, 665), (1287, 665), (1289, 666), (1293, 666), (1306, 669), (1316, 670), (1325, 672), (1337, 676)]",19.83653908330931,"[7, 1, 8, 3, 9, 4, 6, 2, 5]","(0, 0.25)",ENG010B,ENG,B,English,Fri Aug 31 09:58:09 2018,Mouse
1,0,2,0,25,3,3,1,880,480,400,137,0,500,200,8000,"[(960, 540), (960, 540), (960, 540), (960, 540), (960, 540), (960, 540), (960, 540), (960, 540), (960, 540), (960, 540), (960, 540), (960, 540), (960, 540), (960, 540), (960, 540), (960, 540), (960, 540), (960, 540), (960, 540), (960, 540), (960, 540), (960, 540), (960, 540), (960, 540), (960, 540), (960, 540), (960, 540), (960, 540), (960, 540), (960, 540), (960, 540), (960, 540), (960, 540), (960, 540), (960, 540), (960, 540), (960, 540), (960, 540), (960, 540), (960, 540), (960, 540), (960, 540), (960, 540), (960, 540), (960, 540), (960, 540), (960, 540), (960, 541), (960, 542), (958, 543), (958, 543), (955, 545), (954, 545), (952, 547), (952, 547), (950, 550), (949, 551), (948, 551), (948, 552), (947, 553), (947, 554), (947, 554), (946, 555), (945, 556), (945, 557), (944, 557), (944, 557), (942, 560), (941, 562), (939, 565), (936, 568), (926, 577), (918, 583), (907, 589), (899, 596), (878, 612), (862, 626), (853, 634), (844, 644), (816, 677), (803, 694), (787, 717), (770, 735), (734, 781), (724, 795), (708, 818), (696, 831), (678, 847)]",132.56954968842476,"[7, 1, 8, 3, 9, 4, 6, 2, 5]","(0, 0.25)",ENG010B,ENG,B,English,Fri Aug 31 09:58:09 2018,Mouse
1,0,2,0,26,7,2,0,-3291,81,3210,137,0,500,200,8000,"[(960, 540), (960, 540), (960, 540), (960, 540), (960, 540), (960, 540), (960, 540), (960, 540), (960, 539), (960, 539), (960, 539), (960, 539), (960, 539), (960, 539), (961, 539), (961, 539), (961, 539), (961, 539), (961, 538), (961, 538), (962, 538), (962, 538), (962, 537), (963, 537), (963, 537), (964, 536), (964, 536), (964, 536), (964, 536), (964, 536), (964, 536), (964, 536), (964, 536), (964, 536), (964, 536), (964, 536), (964, 536), (964, 536), (964, 536), (964, 536), (964, 536), (964, 536), (964, 536), (964, 536), (964, 536), (964, 536), (964, 536), (964, 536), (964, 536), (964, 536), (964, 536), (964, 536), (964, 536), (964, 536), (964, 536), (964, 536), (964, 536), (964, 536), (964, 536), (964, 536), (964, 536), (964, 536), (964, 536), (964, 536), (964, 536), (964, 536), (964, 536), (964, 536), (964, 536), (964, 536), (964, 536), (964, 536), (964, 536), (964, 536), (964, 536), (964, 536), (964, 536), (964, 536), (964, 536), (966, 535), (966, 535), (966, 535), (966, 535), (967, 533), (968, 533), (969, 533), (969, 532), (970, 532), (971, 531), (971, 531), (972, 530), (972, 530), (972, 530), (972, 530), (972, 530), (972, 530), (972, 530), (972, 530), (972, 530), (972, 530), (972, 530), (972, 530), (972, 530), (972, 530), (972, 530), (972, 530), (972, 530), (972, 530), (972, 530), (972, 530), (972, 530), (972, 530), (972, 530), (972, 530), (972, 530), (972, 530), (972, 530), (972, 530), (972, 530), (972, 530), (972, 530), (972, 530), (972, 530), (972, 530), (972, 530), (972, 530), (972, 530), (972, 530), (972, 530), (972, 530), (972, 530), (972, 530), (972, 530), (972, 530), (972, 530), (972, 530), (972, 530), (972, 530), (972, 530), (972, 530), (972, 530), (972, 530), (972, 530), (972, 530), (972, 530), (972, 530), (972, 530), (972, 530), (972, 530), (972, 530), (972, 530), (972, 530), (972, 530), (972, 530), (972, 530), (972, 530), (972, 530), (972, 530), (972, 530), (972, 530), (972, 530), (972, 530), (972, 530), (972, 530), (972, 530), (972, 530), (972, 530), (972, 530), (972, 530), (972, 530), (972, 530), (972, 530), (972, 530), (972, 530), (972, 530), (972, 530), (972, 530), (972, 530), (972, 530), (972, 530), (972, 530), (972, 530), (972, 530), (972, 530), (972, 530), (972, 530), (972, 530), (972, 530), (972, 530), (972, 530), (972, 530), (972, 530), (972, 530), (972, 530), (972, 530), (972, 530), (972, 530), (972, 530), (972, 530), (972, 530), (972, 530), (972, 530), (972, 530), (972, 530), (972, 530), (972, 530), (972, 530), (972, 530), (972, 530), (972, 530), (972, 530), (972, 530), (972, 530), (972, 530), (972, 530), (972, 530), (972, 530), (972, 530), (972, 530), (972, 530), (972, 530), (972, 530), (972, 530), (972, 530), (972, 530), (972, 530), (972, 530), (972, 530), (972, 530), (972, 530), (972, 530), (972, 530), (972, 530), (972, 530), (972, 530), (972, 530), (972, 530), (972, 530), (972, 530), (972, 530), (972, 530), (972, 530), (972, 530), (972, 530), (972, 530), (972, 530), (972, 530), (972, 530), (972, 530), (972, 530), (972, 530), (972, 530), (972, 530), (972, 530), (972, 530), (972, 530), (972, 530), (972, 530), (972, 530), (972, 530), (972, 530), (972, 530), (972, 530), (972, 530), (972, 530), (972, 530), (972, 530), (972, 530), (972, 530), (972, 530), (972, 530), (972, 530), (972, 530), (972, 530), (972, 530), (972, 530), (972, 530), (972, 530), (972, 530), (972, 530), (972, 530), (972, 530), (972, 530), (972, 530), (972, 530), (972, 530), (972, 530), (972, 530), (972, 530), (972, 530), (972, 530), (972, 530), (972, 530), (972, 530), (972, 530), (972, 530), (972, 530), (973, 529), (973, 526), (973, 520), (974, 518), (976, 512), (978, 507), (983, 496), (985, 493), (987, 487), (988, 485), (992, 478), (995, 472), (996, 470), (1000, 465), (1006, 452), (1009, 446), (1010, 441), (1012, 435), (1020, 420), (1025, 413), (1031, 401), (1038, 388), (1050, 361), (1058, 345), (1068, 329), (1079, 305), (1098, 273), (1105, 255), (1113, 237), (1119, 224), (1129, 199), (1134, 189), (1137, 179)]",296.118930652656,"[7, 1, 8, 3, 9, 4, 6, 2, 5]","(0, 0.25)",ENG010B,ENG,B,English,Fri Aug 31 09:58:09 2018,Mouse
1,0,2,0,27,8,8,1,490,170,320,138,0,500,200,8000,"[(960, 540), (960, 540), (960, 540), (960, 540), (960, 540), (960, 540), (960, 540), (960, 540), (960, 540), (960, 540), (960, 540), (960, 540), (960, 540), (960, 540), (960, 540), (960, 540), (958, 544), (957, 546), (957, 547), (955, 550), (953, 557), (951, 560), (950, 563), (949, 565), (947, 570), (946, 575), (946, 579), (944, 584), (941, 598), (939, 605), (936, 615), (934, 625), (927, 645), (923, 655), (918, 667), (912, 682), (905, 707), (900, 723), (896, 744), (893, 768), (881, 813), (873, 840), (871, 854), (865, 872), (860, 896), (860, 905), (859, 915), (858, 923), (856, 944)]",104.43597497897521,"[7, 1, 8, 3, 9, 4, 6, 2, 5]","(0, 0.25)",ENG010B,ENG,B,English,Fri Aug 31 09:58:09 2018,Mouse
1,0,2,0,28,6,6,1,670,70,600,138,0,500,200,8000,"[(960, 540), (960, 540), (960, 540), (960, 540), (960, 540), (960, 540), (960, 539), (960, 538), (960, 538), (960, 536), (960, 534), (960, 534), (960, 533), (960, 532), (960, 531), (960, 531), (960, 530), (960, 529), (960, 528), (960, 528), (960, 527), (960, 526), (960, 525), (960, 524), (960, 523), (960, 522), (960, 520), (960, 519), (960, 519), (960, 517), (960, 516), (960, 514), (960, 514), (960, 513), (960, 510), (960, 508), (960, 507), (960, 506), (960, 501), (960, 498), (960, 496), (960, 492), (960, 487), (960, 484), (958, 478), (958, 474), (956, 460), (955, 450), (955, 442), (953, 432), (951, 413), (949, 401), (947, 387), (945, 373), (944, 332), (944, 307), (944, 276), (944, 256), (940, 220), (939, 207), (935, 193), (934, 185), (929, 165), (927, 155), (927, 150), (925, 144), (924, 131)]",264.9698143322786,"[7, 1, 8, 3, 9, 4, 6, 2, 5]","(0, 0.25)",ENG010B,ENG,B,English,Fri Aug 31 09:58:09 2018,Mouse
1,0,2,0,29,5,5,1,751,22,729,137,0,500,200,8000,"[(960, 540), (960, 540), (959, 540), (959, 540), (959, 540), (959, 540), (959, 540), (959, 540), (959, 540), (959, 540), (959, 540), (959, 540), (959, 540), (959, 540), (959, 540), (959, 540), (959, 540), (959, 540), (959, 540), (959, 540), (959, 540), (959, 540), (959, 540), (959, 540), (959, 540), (959, 540), (959, 540), (959, 540), (959, 540), (959, 540), (959, 540), (959, 540), (959, 540), (959, 540), (959, 540), (959, 540), (959, 540), (959, 540), (959, 540), (959, 540), (959, 540), (959, 540), (959, 540), (958, 542), (958, 542), (958, 542), (958, 542), (958, 544), (958, 544), (958, 545), (958, 545), (959, 545), (959, 545), (959, 545), (959, 545), (960, 545), (960, 545), (961, 545), (962, 545), (965, 545), (969, 545), (973, 545), (981, 545), (1003, 544), (1018, 537), (1037, 532), (1057, 527), (1107, 513), (1135, 505), (1165, 496), (1202, 485), (1269, 462), (1293, 451), (1313, 444), (1330, 433), (1348, 418)]",342.5451322067714,"[7, 1, 8, 3, 9, 4, 6, 2, 5]","(0, 0.25)",ENG010B,ENG,B,English,Fri Aug 31 09:58:09 2018,Mouse
1,0,2,0,30,3,3,1,540,30,510,136,0,500,200,8000,"[(960, 540), (960, 540), (959, 540), (959, 542), (958, 542), (958, 542), (957, 543), (957, 544), (956, 545), (956, 545), (956, 545), (956, 545), (956, 545), (956, 545), (955, 546), (955, 546), (955, 547), (955, 547), (953, 548), (953, 549), (953, 550), (952, 551), (951, 551), (950, 552), (950, 552), (949, 553), (948, 554), (947, 554), (947, 554), (947, 554), (946, 554), (945, 555), (943, 556), (942, 557), (939, 559), (936, 561), (932, 563), (929, 566), (916, 575), (910, 580), (902, 586), (896, 592), (877, 606), (862, 621), (848, 631), (830, 646), (787, 682), (765, 694), (742, 714), (724, 729), (695, 762), (678, 782), (666, 799), (653, 817)]",137.94069146878644,"[7, 1, 8, 3, 9, 4, 6, 2, 5]","(0, 0.25)",ENG010B,ENG,B,English,Fri Aug 31 09:58:09 2018,Mouse
1,0,2,0,31,8,8,1,490,150,340,135,0,500,200,8000,"[(960, 540), (960, 540), (960, 540), (960, 540), (960, 540), (960, 540), (960, 540), (960, 540), (960, 540), (960, 540), (960, 540), (960, 540), (960, 540), (960, 540), (960, 541), (960, 544), (960, 546), (960, 548), (960, 551), (961, 554), (961, 555), (961, 557), (961, 561), (961, 564), (961, 568), (961, 571), (961, 577), (961, 593), (961, 604), (957, 616), (953, 628), (943, 667), (936, 690), (934, 708), (932, 720), (930, 750), (930, 767), (930, 778), (930, 787), (932, 804), (934, 814), (936, 826), (936, 840), (936, 871), (936, 891), (936, 906), (936, 921), (934, 938), (932, 946)]",93.94518622903756,"[7, 1, 8, 3, 9, 4, 6, 2, 5]","(0, 0.25)",ENG010B,ENG,B,English,Fri Aug 31 09:58:09 2018,Mouse
1,0,2,0,32,1,3,0,-769,549,220,134,0,500,200,8000,"[(960, 540), (960, 540), (960, 540), (960, 540), (960, 540), (960, 540), (960, 540), (960, 540), (960, 540), (960, 540), (960, 540), (960, 540), (960, 540), (960, 540), (960, 540), (960, 540), (960, 540), (960, 540), (960, 540), (960, 540), (960, 540), (960, 540), (960, 540), (960, 540), (960, 540), (960, 540), (960, 540), (960, 540), (960, 540), (960, 540), (960, 540), (960, 540), (960, 540), (960, 540), (960, 540), (960, 540), (960, 540), (960, 540), (960, 540), (960, 540), (960, 540), (960, 540), (960, 540), (960, 540), (960, 540), (960, 540), (960, 540), (960, 540), (960, 540), (960, 540), (960, 540), (960, 540), (960, 540), (960, 540), (959, 540), (958, 540), (956, 540), (950, 545), (943, 549), (936, 552), (929, 556), (904, 573), (889, 585), (878, 594), (871, 601), (854, 615), (844, 623), (836, 630), (827, 637), (808, 657), (793, 667), (771, 679), (746, 694), (686, 728), (659, 743), (632, 758), (610, 771)]",146.57518881739622,"[7, 1, 8, 3, 9, 4, 6, 2, 5]","(0, 0.25)",ENG010B,ENG,B,English,Fri Aug 31 09:58:09 2018,Mouse
1,0,2,0,33,2,4,0,-850,90,760,135,0,500,200,8000,"[(960, 540), (960, 540), (960, 540), (960, 540), (960, 540), (960, 540), (960, 540), (960, 540), (961, 540), (962, 540), (963, 540), (963, 540), (963, 540), (963, 540), (963, 540), (963, 540), (963, 540), (963, 540), (963, 540), (963, 540), (963, 540), (963, 540), (963, 540), (963, 540), (963, 540), (963, 540), (963, 540), (963, 540), (963, 540), (963, 540), (963, 540), (963, 540), (963, 540), (963, 540), (963, 540), (963, 540), (963, 540), (963, 540), (963, 540), (963, 540), (963, 540), (963, 540), (963, 540), (964, 539), (964, 537), (964, 532), (964, 524), (963, 503), (956, 487), (947, 473), (938, 461), (897, 430), (870, 415), (846, 400), (822, 389), (771, 361), (748, 344), (731, 333), (711, 318), (680, 296), (672, 291), (670, 288), (668, 286), (667, 285), (667, 285), (666, 285), (666, 285), (666, 285), (666, 285), (666, 285), (666, 285), (666, 285), (666, 285), (666, 285), (666, 285), (666, 285), (666, 285), (666, 285), (666, 285), (666, 285), (666, 285), (666, 285), (664, 283), (659, 279), (657, 277)]",220.95754929386197,"[7, 1, 8, 3, 9, 4, 6, 2, 5]","(0, 0.25)",ENG010B,ENG,B,English,Fri Aug 31 09:58:09 2018,Mouse
1,0,2,0,34,7,7,1,311,141,170,136,0,500,200,8000,"[(960, 540), (960, 540), (960, 540), (960, 540), (960, 540), (960, 540), (960, 540), (960, 540), (960, 540), (960, 540), (960, 540), (960, 540), (960, 540), (960, 540), (968, 545), (976, 549), (982, 553), (991, 557), (1008, 568), (1020, 574), (1030, 579), (1038, 585), (1060, 593), (1072, 598), (1087, 604), (1102, 611), (1141, 622), (1166, 630), (1192, 638), (1228, 647), (1308, 669), (1347, 682)]",20.14935287674245,"[7, 1, 8, 3, 9, 4, 6, 2, 5]","(0, 0.25)",ENG010B,ENG,B,English,Fri Aug 31 09:58:09 2018,Mouse
1,0,2,0,35,3,3,1,451,341,110,136,0,500,200,8000,"[(960, 540), (960, 540), (960, 540), (960, 540), (960, 540), (960, 540), (960, 540), (960, 540), (960, 540), (960, 540), (960, 540), (960, 540), (960, 540), (960, 540), (960, 540), (960, 540), (960, 540), (960, 540), (960, 540), (960, 540), (960, 540), (960, 540), (960, 540), (960, 540), (960, 540), (960, 540), (960, 540), (960, 540), (960, 540), (960, 540), (960, 540), (960, 540), (960, 540), (960, 540), (960, 541), (957, 545), (948, 550), (938, 556), (902, 575), (880, 591), (841, 618), (794, 649), (732, 717), (691, 762), (656, 793), (622, 819)]",140.46224246187364,"[7, 1, 8, 3, 9, 4, 6, 2, 5]","(0, 0.25)",ENG010B,ENG,B,English,Fri Aug 31 09:58:09 2018,Mouse
1,0,2,0,36,4,3,0,-589,469,120,135,0,500,200,8000,"[(960, 540), (960, 540), (960, 540), (960, 540), (960, 540), (960, 540), (960, 540), (960, 540), (960, 540), (960, 540), (960, 540), (960, 540), (960, 540), (960, 540), (960, 540), (960, 540), (960, 540), (960, 540), (960, 540), (960, 540), (960, 540), (960, 540), (960, 540), (960, 540), (960, 540), (960, 540), (960, 540), (960, 540), (960, 540), (960, 540), (960, 540), (960, 540), (960, 540), (960, 540), (960, 540), (960, 540), (960, 540), (960, 540), (960, 540), (960, 540), (960, 540), (960, 540), (960, 540), (960, 540), (960, 540), (960, 540), (959, 541), (945, 554), (937, 561), (927, 570), (916, 579), (883, 614), (867, 630), (838, 655), (807, 679), (748, 722), (714, 746), (677, 777), (637, 811)]",140.00303770504652,"[7, 1, 8, 3, 9, 4, 6, 2, 5]","(0, 0.25)",ENG010B,ENG,B,English,Fri Aug 31 09:58:09 2018,Mouse
1,0,2,0,37,1,2,0,-481,281,200,136,0,500,200,8000,"[(960, 540), (960, 540), (960, 540), (960, 540), (960, 540), (960, 540), (960, 540), (960, 540), (960, 540), (960, 540), (960, 540), (960, 540), (960, 540), (960, 540), (960, 540), (960, 540), (960, 540), (960, 540), (960, 540), (960, 540), (960, 540), (960, 540), (960, 540), (960, 540), (960, 540), (960, 540), (960, 540), (960, 540), (962, 540), (963, 538), (964, 537), (964, 534), (965, 532), (966, 530), (967, 529), (971, 524), (977, 517), (982, 512), (988, 508), (996, 502), (1011, 489), (1020, 479), (1028, 472), (1040, 459), (1077, 411), (1109, 369), (1137, 327), (1166, 288), (1232, 196)]",308.33334010909863,"[7, 1, 8, 3, 9, 4, 6, 2, 5]","(0, 0.25)",ENG010B,ENG,B,English,Fri Aug 31 09:58:09 2018,Mouse
1,0,2,0,38,6,6,1,810,100,710,137,0,500,200,8000,"[(960, 540), (960, 540), (960, 540), (960, 540), (960, 540), (960, 540), (960, 540), (960, 540), (960, 540), (960, 541), (960, 541), (960, 541), (960, 541), (960, 541), (960, 541), (960, 541), (960, 541), (960, 541), (960, 541), (960, 541), (960, 541), (960, 541), (960, 541), (960, 541), (960, 541), (960, 541), (960, 541), (960, 541), (960, 541), (960, 541), (960, 541), (960, 541), (960, 541), (960, 541), (960, 541), (960, 541), (960, 541), (960, 541), (960, 541), (960, 541), (960, 541), (960, 541), (960, 541), (960, 541), (960, 541), (960, 541), (960, 541), (960, 541), (960, 541), (960, 541), (960, 541), (960, 541), (959, 541), (957, 541), (952, 541), (949, 541), (946, 540), (943, 539), (937, 536), (935, 534), (932, 532), (930, 528), (926, 520), (926, 513), (925, 506), (924, 498), (924, 476), (923, 459), (923, 446), (923, 429), (923, 392), (923, 376), (923, 359), (923, 345), (923, 304), (926, 280), (926, 252), (926, 227), (926, 174), (926, 157), (926, 134)]",265.21300087904996,"[7, 1, 8, 3, 9, 4, 6, 2, 5]","(0, 0.25)",ENG010B,ENG,B,English,Fri Aug 31 09:58:09 2018,Mouse
1,0,2,0,39,5,5,1,680,210,470,137,0,500,200,8000,"[(960, 540), (960, 540), (960, 540), (960, 540), (960, 540), (960, 540), (960, 540), (960, 540), (960, 540), (960, 540), (960, 540), (960, 540), (960, 540), (960, 540), (960, 540), (960, 540), (960, 540), (960, 540), (960, 540), (960, 540), (960, 539), (960, 539), (960, 539), (959, 539), (956, 539), (954, 539), (953, 539), (952, 539), (951, 539), (950, 539), (950, 539), (950, 539), (950, 539), (950, 539), (950, 539), (950, 539), (949, 539), (949, 539), (949, 539), (949, 539), (949, 539), (949, 539), (949, 539), (949, 539), (949, 539), (949, 539), (949, 539), (949, 539), (949, 539), (949, 539), (949, 539), (949, 539), (960, 536), (972, 533), (976, 529), (989, 522), (1011, 513), (1029, 506), (1053, 493), (1083, 476), (1149, 449), (1175, 439), (1200, 431), (1231, 423), (1281, 409), (1309, 400), (1327, 392), (1345, 385)]",338.07041224982464,"[7, 1, 8, 3, 9, 4, 6, 2, 5]","(0, 0.25)",ENG010B,ENG,B,English,Fri Aug 31 09:58:09 2018,Mouse
1,0,2,0,40,5,3,0,-1220,760,460,136,0,500,200,8000,"[(960, 540), (960, 540), (960, 540), (960, 540), (960, 540), (960, 540), (960, 540), (960, 540), (960, 540), (960, 540), (960, 540), (960, 540), (960, 540), (960, 540), (960, 540), (960, 540), (960, 540), (960, 540), (960, 540), (960, 540), (960, 540), (960, 540), (960, 540), (960, 540), (960, 540), (960, 540), (960, 540), (960, 540), (960, 540), (960, 540), (960, 540), (960, 540), (960, 540), (960, 540), (960, 540), (960, 540), (960, 540), (960, 540), (960, 540), (960, 540), (960, 540), (960, 540), (960, 540), (960, 540), (960, 540), (960, 540), (960, 540), (960, 540), (960, 540), (960, 540), (960, 540), (960, 540), (960, 540), (960, 540), (960, 540), (960, 540), (960, 540), (960, 540), (960, 540), (960, 540), (960, 540), (960, 540), (960, 540), (960, 540), (960, 540), (960, 540), (960, 540), (960, 540), (960, 540), (960, 540), (960, 540), (960, 540), (960, 540), (960, 540), (960, 540), (959, 540), (958, 541), (958, 541), (957, 541), (957, 541), (957, 541), (957, 541), (957, 541), (955, 542), (955, 542), (955, 542), (955, 542), (954, 542), (953, 543), (953, 543), (953, 543), (953, 543), (953, 543), (953, 543), (953, 543), (952, 543), (952, 543), (952, 543), (952, 543), (952, 543), (952, 543), (952, 543), (950, 543), (947, 545), (943, 546), (940, 549), (934, 552), (917, 562), (910, 567), (904, 572), (895, 578), (876, 591), (864, 599), (855, 606), (841, 617), (806, 647), (782, 671), (755, 698), (726, 721), (680, 761), (662, 776), (637, 793)]",141.92905035969193,"[7, 1, 8, 3, 9, 4, 6, 2, 5]","(0, 0.25)",ENG010B,ENG,B,English,Fri Aug 31 09:58:09 2018,Mouse
1,0,2,0,41,8,8,1,340,50,290,137,0,500,200,8000,"[(960, 540), (960, 540), (960, 540), (960, 540), (961, 549), (963, 553), (966, 559), (969, 563), (972, 571), (973, 572), (974, 574), (974, 574), (974, 574), (974, 574), (974, 574), (974, 574), (974, 574), (974, 574), (975, 578), (977, 581), (977, 587), (977, 593), (977, 599), (977, 605), (970, 624), (966, 637), (964, 650), (962, 670), (949, 719), (941, 750), (930, 783), (919, 822), (901, 896), (888, 938)]",100.25416467790419,"[7, 1, 8, 3, 9, 4, 6, 2, 5]","(0, 0.25)",ENG010B,ENG,B,English,Fri Aug 31 09:58:09 2018,Mouse
1,0,2,0,42,9,9,1,450,210,240,137,0,500,200,8000,"[(960, 540), (960, 540), (960, 540), (960, 540), (960, 540), (960, 540), (960, 540), (960, 540), (960, 540), (960, 540), (960, 540), (960, 540), (960, 540), (960, 540), (960, 540), (960, 540), (960, 540), (960, 540), (960, 540), (960, 540), (960, 538), (959, 537), (959, 537), (959, 537), (958, 536), (958, 535), (958, 535), (956, 533), (956, 533), (952, 533), (947, 531), (942, 531), (935, 530), (918, 530), (906, 530), (891, 530), (873, 530), (831, 530), (811, 530), (788, 530), (769, 530), (677, 530), (625, 530), (572, 530), (522, 530)]",181.30789560166377,"[7, 1, 8, 3, 9, 4, 6, 2, 5]","(0, 0.25)",ENG010B,ENG,B,English,Fri Aug 31 09:58:09 2018,Mouse
1,0,2,0,43,8,3,0,-721,311,410,136,0,500,200,8000,"[(960, 540), (960, 540), (960, 540), (960, 540), (960, 540), (960, 540), (960, 540), (960, 540), (960, 540), (960, 540), (960, 540), (960, 540), (960, 540), (960, 540), (960, 540), (960, 540), (960, 540), (960, 540), (960, 540), (960, 540), (960, 540), (960, 540), (960, 540), (960, 540), (960, 540), (960, 540), (960, 540), (960, 540), (960, 540), (960, 540), (960, 540), (956, 543), (938, 558), (930, 564), (920, 573), (912, 585), (896, 608), (890, 619), (883, 631), (879, 640), (870, 653), (868, 656), (863, 662), (851, 668), (824, 681), (810, 688), (791, 702), (771, 715), (749, 733), (737, 743), (728, 752), (721, 758), (709, 767), (707, 770), (705, 772), (705, 773), (704, 775), (704, 775), (703, 776), (701, 777), (696, 783), (693, 788), (692, 791), (690, 796), (686, 801), (686, 803), (685, 803), (685, 804), (682, 806), (682, 808), (679, 811), (678, 813), (670, 819)]",136.1075133160561,"[7, 1, 8, 3, 9, 4, 6, 2, 5]","(0, 0.25)",ENG010B,ENG,B,English,Fri Aug 31 09:58:09 2018,Mouse
1,0,2,0,44,8,8,1,381,31,350,137,0,500,200,8000,"[(960, 540), (960, 540), (960, 540), (958, 543), (957, 548), (956, 554), (955, 559), (951, 571), (951, 574), (950, 579), (949, 582), (947, 587), (947, 589), (946, 593), (946, 594), (942, 603), (939, 609), (936, 617), (932, 625), (922, 641), (918, 649), (916, 657), (912, 667), (910, 684), (910, 690), (910, 695), (910, 699), (907, 711), (906, 717), (905, 728), (901, 740), (892, 773), (888, 794), (885, 815), (882, 836), (882, 881), (882, 901), (882, 916), (882, 937)]",101.1155219469261,"[7, 1, 8, 3, 9, 4, 6, 2, 5]","(0, 0.25)",ENG010B,ENG,B,English,Fri Aug 31 09:58:09 2018,Mouse
1,0,2,0,45,3,3,1,540,360,180,137,0,500,200,8000,"[(960, 540), (960, 540), (960, 540), (960, 540), (960, 540), (960, 540), (960, 540), (960, 540), (960, 540), (960, 540), (960, 540), (960, 540), (960, 540), (960, 540), (960, 540), (960, 540), (960, 540), (960, 540), (960, 540), (960, 540), (960, 540), (960, 540), (960, 540), (960, 540), (960, 540), (960, 540), (960, 540), (960, 540), (960, 540), (960, 540), (960, 540), (960, 540), (960, 540), (960, 540), (960, 540), (958, 542), (957, 543), (956, 543), (953, 545), (948, 548), (943, 552), (941, 553), (938, 558), (930, 570), (927, 576), (921, 584), (914, 590), (884, 610), (862, 624), (836, 643), (797, 668), (713, 717), (667, 737), (619, 757)]",147.52880770915152,"[7, 1, 8, 3, 9, 4, 6, 2, 5]","(0, 0.25)",ENG010B,ENG,B,English,Fri Aug 31 09:58:09 2018,Mouse
1,0,2,0,46,5,5,1,1060,460,600,136,0,500,200,8000,"[(960, 540), (960, 540), (960, 540), (960, 540), (960, 540), (960, 540), (960, 540), (960, 540), (960, 540), (960, 540), (960, 540), (960, 540), (960, 540), (960, 540), (960, 540), (960, 540), (960, 540), (960, 540), (960, 540), (960, 540), (960, 540), (960, 540), (960, 540), (960, 540), (960, 540), (960, 540), (960, 540), (960, 540), (960, 540), (960, 540), (960, 540), (960, 540), (960, 540), (960, 540), (960, 540), (960, 540), (960, 540), (960, 540), (960, 540), (960, 540), (960, 540), (960, 540), (960, 540), (960, 540), (960, 540), (959, 540), (956, 540), (953, 540), (949, 537), (948, 537), (943, 534), (940, 534), (937, 532), (935, 531), (935, 530), (934, 529), (932, 527), (931, 524), (930, 524), (929, 521), (926, 518), (926, 517), (926, 517), (926, 517), (926, 517), (926, 517), (926, 517), (926, 517), (925, 516), (925, 516), (925, 515), (925, 515), (925, 514), (925, 514), (925, 513), (925, 513), (927, 511), (927, 511), (927, 511), (928, 510), (930, 510), (931, 508), (934, 506), (939, 504), (952, 501), (958, 497), (965, 494), (969, 492), (983, 487), (993, 482), (1005, 478), (1017, 472), (1046, 462), (1072, 450), (1098, 440), (1123, 434), (1167, 422), (1187, 417), (1208, 406), (1224, 398), (1251, 385), (1264, 378), (1278, 369), (1286, 364), (1307, 353), (1314, 349)]",331.6510073540674,"[7, 1, 8, 3, 9, 4, 6, 2, 5]","(0, 0.25)",ENG010B,ENG,B,English,Fri Aug 31 09:58:09 2018,Mouse
1,0,2,0,47,2,2,1,511,21,490,135,0,500,200,8000,"[(960, 540), (960, 540), (959, 541), (959, 541), (959, 541), (959, 541), (959, 541), (959, 542), (958, 542), (958, 542), (957, 543), (956, 543), (956, 543), (956, 543), (956, 543), (956, 543), (956, 543), (956, 543), (956, 543), (956, 543), (956, 543), (956, 543), (955, 543), (953, 540), (953, 537), (953, 532), (952, 522), (952, 517), (952, 512), (952, 506), (952, 494), (955, 486), (959, 480), (966, 473), (973, 457), (977, 449), (983, 439), (989, 428), (1003, 403), (1010, 392), (1015, 380), (1023, 365), (1044, 326), (1051, 312), (1061, 294), (1068, 280), (1088, 245), (1097, 233), (1108, 219), (1118, 204), (1136, 181), (1142, 168)]",296.0700675563207,"[7, 1, 8, 3, 9, 4, 6, 2, 5]","(0, 0.25)",ENG010B,ENG,B,English,Fri Aug 31 09:58:09 2018,Mouse
1,0,2,0,48,4,3,0,-649,549,100,134,0,500,200,8000,"[(960, 540), (960, 540), (960, 540), (960, 540), (960, 540), (960, 540), (960, 540), (960, 540), (960, 540), (960, 540), (960, 540), (960, 540), (960, 540), (960, 540), (960, 540), (960, 540), (960, 540), (960, 540), (960, 540), (960, 540), (960, 540), (960, 540), (960, 540), (960, 540), (960, 540), (960, 540), (960, 540), (960, 540), (960, 540), (960, 540), (960, 540), (960, 540), (960, 540), (960, 540), (960, 540), (960, 540), (960, 540), (960, 540), (960, 540), (960, 540), (960, 540), (960, 540), (960, 540), (960, 540), (960, 540), (960, 540), (960, 540), (960, 540), (960, 540), (960, 540), (960, 540), (960, 540), (960, 540), (960, 540), (961, 540), (960, 541), (958, 547), (938, 571), (926, 586), (905, 614), (883, 645), (826, 723), (792, 768), (754, 821), (699, 875)]",127.92231596541399,"[7, 1, 8, 3, 9, 4, 6, 2, 5]","(0, 0.25)",ENG010B,ENG,B,English,Fri Aug 31 09:58:09 2018,Mouse
1,0,2,0,49,1,5,0,-1020,560,460,135,0,500,200,8000,"[(960, 540), (960, 540), (960, 540), (960, 540), (960, 540), (960, 540), (960, 540), (960, 540), (960, 540), (960, 540), (960, 540), (960, 540), (960, 540), (960, 540), (960, 540), (960, 540), (960, 540), (960, 540), (960, 540), (960, 540), (960, 540), (960, 540), (960, 540), (960, 540), (960, 540), (960, 540), (960, 540), (960, 540), (960, 540), (960, 540), (960, 540), (960, 540), (960, 540), (960, 540), (960, 540), (960, 540), (960, 540), (960, 540), (960, 540), (960, 540), (960, 540), (960, 540), (960, 540), (960, 540), (960, 540), (960, 540), (960, 540), (960, 540), (960, 540), (960, 540), (960, 540), (960, 540), (960, 540), (960, 540), (960, 540), (961, 538), (961, 536), (961, 535), (961, 535), (961, 535), (961, 535), (961, 535), (961, 534), (961, 534), (961, 534), (961, 534), (961, 534), (961, 534), (961, 533), (961, 533), (961, 533), (961, 533), (961, 533), (961, 533), (961, 533), (961, 533), (961, 533), (961, 533), (961, 533), (961, 533), (961, 533), (961, 533), (961, 533), (961, 533), (961, 533), (961, 533), (961, 532), (966, 529), (968, 527), (970, 525), (974, 523), (986, 516), (993, 512), (1005, 506), (1017, 500), (1065, 482), (1098, 471), (1129, 463), (1164, 454), (1254, 440), (1313, 434), (1370, 426)]",344.4614749709679,"[7, 1, 8, 3, 9, 4, 6, 2, 5]","(0, 0.25)",ENG010B,ENG,B,English,Fri Aug 31 09:58:09 2018,Mouse
1,0,2,0,50,6,6,1,1350,120,1230,136,0,500,200,8000,"[(960, 540), (960, 540), (960, 540), (960, 540), (960, 540), (960, 540), (960, 540), (960, 540), (960, 540), (960, 540), (960, 540), (960, 541), (960, 541), (960, 541), (960, 541), (960, 541), (960, 541), (960, 541), (960, 541), (960, 541), (960, 541), (960, 541), (960, 541), (960, 541), (960, 541), (960, 541), (960, 541), (960, 541), (960, 541), (960, 541), (960, 541), (960, 541), (960, 541), (960, 541), (960, 541), (960, 541), (960, 542), (960, 542), (959, 543), (959, 543), (958, 544), (957, 545), (956, 546), (956, 546), (955, 546), (955, 546), (954, 548), (954, 548), (954, 548), (954, 548), (954, 548), (954, 548), (954, 548), (954, 548), (954, 548), (954, 548), (954, 548), (954, 548), (954, 548), (954, 548), (954, 548), (954, 548), (954, 548), (954, 548), (954, 548), (954, 548), (954, 548), (954, 548), (953, 548), (951, 548), (948, 548), (946, 549), (938, 551), (936, 551), (934, 551), (932, 551), (927, 552), (927, 552), (925, 552), (923, 552), (918, 553), (916, 553), (912, 555), (910, 555), (906, 555), (905, 555), (903, 555), (903, 555), (903, 555), (903, 555), (903, 555), (903, 555), (903, 555), (903, 555), (903, 555), (903, 555), (903, 555), (903, 555), (903, 555), (903, 555), (902, 555), (902, 554), (903, 550), (904, 547), (909, 532), (914, 525), (915, 517), (919, 509), (924, 489), (925, 482), (928, 474), (928, 464), (928, 452), (928, 445), (928, 439), (928, 434), (928, 417), (928, 410), (928, 404), (928, 394), (925, 377), (922, 370), (920, 361), (917, 350), (912, 333), (910, 323), (909, 314), (907, 304), (905, 275), (902, 260), (900, 244), (900, 222), (900, 180), (900, 152), (900, 129)]",261.694323794444,"[7, 1, 8, 3, 9, 4, 6, 2, 5]","(0, 0.25)",ENG010B,ENG,B,English,Fri Aug 31 09:58:09 2018,Mouse
1,0,2,0,51,2,2,1,290,50,240,136,0,500,200,8000,"[(960, 540), (960, 540), (960, 540), (960, 540), (961, 540), (962, 540), (962, 540), (963, 540), (964, 538), (964, 534), (966, 532), (968, 528), (972, 519), (975, 513), (978, 509), (980, 505), (988, 496), (995, 491), (1001, 487), (1011, 481), (1042, 462), (1066, 449), (1090, 429), (1114, 405), (1158, 351), (1177, 323), (1190, 289), (1200, 255), (1217, 196)]",306.7631520227014,"[7, 1, 8, 3, 9, 4, 6, 2, 5]","(0, 0.25)",ENG010B,ENG,B,English,Fri Aug 31 09:58:09 2018,Mouse
1,0,2,0,52,5,5,1,410,20,390,135,0,500,200,8000,"[(960, 542), (959, 543), (958, 546), (958, 546), (958, 546), (957, 548), (957, 548), (957, 548), (956, 549), (956, 549), (956, 549), (956, 549), (956, 549), (956, 549), (956, 549), (956, 549), (956, 549), (956, 549), (956, 549), (956, 549), (956, 549), (956, 549), (956, 549), (956, 549), (956, 549), (957, 549), (963, 546), (969, 543), (975, 539), (983, 536), (1013, 525), (1033, 519), (1058, 512), (1083, 505), (1150, 484), (1182, 472), (1216, 457), (1243, 442), (1298, 408), (1327, 385), (1350, 365)]",335.83337015701454,"[7, 1, 8, 3, 9, 4, 6, 2, 5]","(0, 0.25)",ENG010B,ENG,B,English,Fri Aug 31 09:58:09 2018,Mouse
1,0,2,0,53,9,6,0,-1050,201,849,134,0,500,200,8000,"[(960, 540), (960, 540), (960, 540), (960, 540), (960, 540), (960, 540), (960, 540), (960, 540), (960, 540), (960, 540), (960, 540), (960, 540), (960, 540), (960, 540), (960, 540), (960, 540), (960, 540), (960, 540), (960, 540), (960, 540), (959, 540), (958, 540), (958, 540), (958, 540), (958, 540), (957, 541), (957, 541), (957, 541), (957, 541), (957, 541), (957, 541), (957, 541), (957, 541), (957, 541), (957, 541), (957, 541), (957, 541), (957, 541), (957, 541), (957, 541), (957, 541), (957, 541), (957, 541), (957, 541), (957, 541), (957, 541), (957, 541), (957, 541), (957, 541), (957, 541), (957, 541), (957, 541), (957, 541), (957, 541), (957, 541), (957, 541), (957, 541), (957, 541), (957, 541), (957, 541), (957, 541), (957, 541), (957, 541), (957, 541), (957, 541), (957, 542), (957, 542), (956, 544), (954, 545), (948, 548), (947, 549), (946, 549), (946, 549), (946, 549), (946, 549), (946, 549), (946, 549), (946, 549), (946, 549), (946, 546), (946, 539), (941, 519), (940, 506), (939, 494), (934, 452), (933, 437), (929, 417), (929, 400), (925, 369), (922, 353), (919, 341), (916, 329), (911, 310), (908, 301), (906, 294), (905, 287), (899, 267), (899, 260), (895, 249), (891, 237), (885, 213), (882, 200), (879, 188), (876, 175), (868, 149)]",256.7594800848128,"[7, 1, 8, 3, 9, 4, 6, 2, 5]","(0, 0.25)",ENG010B,ENG,B,English,Fri Aug 31 09:58:09 2018,Mouse
1,0,2,0,54,9,9,1,481,31,450,135,0,500,200,8000,"[(960, 540), (960, 540), (960, 540), (959, 540), (959, 540), (959, 540), (959, 540), (959, 540), (959, 540), (959, 540), (959, 540), (959, 540), (959, 540), (959, 540), (959, 540), (959, 541), (959, 541), (959, 541), (959, 541), (958, 542), (958, 542), (958, 542), (958, 543), (957, 543), (956, 544), (956, 544), (955, 546), (950, 551), (946, 553), (943, 556), (938, 558), (923, 565), (913, 571), (905, 574), (898, 577), (874, 588), (864, 590), (848, 595), (835, 597), (793, 608), (770, 611), (740, 616), (714, 617), (666, 619), (642, 622), (623, 622), (606, 622), (574, 622), (546, 622)]",168.79656513477067,"[7, 1, 8, 3, 9, 4, 6, 2, 5]","(0, 0.25)",ENG010B,ENG,B,English,Fri Aug 31 09:58:09 2018,Mouse
1,0,2,0,55,1,1,1,1061,821,240,135,0,500,200,8000,"[(960, 540), (960, 540), (960, 540), (960, 540), (960, 540), (960, 540), (960, 540), (960, 540), (960, 540), (960, 540), (960, 540), (960, 540), (960, 540), (960, 540), (960, 540), (960, 540), (960, 540), (960, 540), (960, 540), (960, 540), (960, 540), (960, 540), (960, 540), (960, 540), (960, 540), (960, 540), (960, 540), (960, 540), (960, 540), (960, 540), (960, 540), (960, 540), (960, 540), (960, 540), (960, 540), (960, 540), (960, 540), (960, 540), (960, 540), (960, 540), (960, 540), (960, 540), (960, 540), (960, 540), (960, 540), (960, 540), (960, 540), (960, 540), (960, 540), (960, 540), (960, 540), (960, 540), (960, 540), (960, 540), (960, 540), (960, 540), (960, 540), (960, 540), (960, 540), (960, 540), (960, 540), (960, 540), (960, 540), (960, 540), (960, 540), (960, 540), (960, 540), (960, 540), (960, 540), (960, 540), (960, 540), (960, 540), (960, 540), (960, 540), (960, 540), (960, 540), (960, 540), (960, 540), (960, 540), (960, 540), (960, 540), (960, 540), (961, 541), (962, 543), (966, 546), (967, 549), (973, 559), (977, 563), (981, 568), (985, 573), (992, 585), (996, 591), (1000, 600), (1006, 609), (1014, 626), (1023, 640), (1032, 653), (1045, 671), (1077, 716), (1096, 744), (1122, 775), (1141, 801), (1168, 836), (1179, 846), (1185, 854), (1192, 863), (1202, 880)]",54.55808108183992,"[7, 1, 8, 3, 9, 4, 6, 2, 5]","(0, 0.25)",ENG010B,ENG,B,English,Fri Aug 31 09:58:09 2018,Mouse
1,0,2,0,56,3,3,1,631,511,120,134,0,500,200,8000,"[(960, 540), (960, 540), (960, 540), (960, 540), (960, 540), (960, 540), (960, 540), (960, 540), (960, 540), (960, 540), (960, 540), (960, 540), (960, 540), (960, 540), (960, 540), (960, 540), (960, 540), (960, 540), (960, 540), (960, 540), (960, 540), (960, 540), (960, 540), (960, 540), (960, 540), (960, 540), (960, 540), (960, 540), (960, 540), (960, 540), (960, 540), (960, 540), (960, 540), (960, 540), (960, 540), (960, 540), (960, 540), (960, 540), (960, 540), (960, 540), (960, 540), (960, 540), (960, 540), (960, 540), (960, 540), (960, 540), (960, 540), (960, 540), (960, 540), (960, 540), (960, 540), (960, 542), (957, 543), (952, 545), (946, 547), (925, 558), (916, 564), (898, 578), (870, 599), (805, 647), (763, 679), (718, 714), (683, 759), (637, 823)]",138.7764215344449,"[7, 1, 8, 3, 9, 4, 6, 2, 5]","(0, 0.25)",ENG010B,ENG,B,English,Fri Aug 31 09:58:09 2018,Mouse
1,0,2,0,57,1,5,0,-690,560,130,133,0,500,200,8000,"[(960, 540), (960, 540), (960, 540), (960, 540), (960, 540), (960, 540), (960, 540), (960, 540), (960, 540), (960, 540), (960, 540), (960, 540), (960, 540), (960, 540), (960, 540), (960, 540), (960, 540), (960, 540), (960, 540), (960, 540), (960, 540), (960, 540), (960, 540), (960, 540), (960, 540), (960, 540), (960, 540), (960, 540), (960, 540), (960, 540), (960, 540), (960, 540), (960, 540), (960, 540), (960, 540), (960, 540), (960, 540), (960, 540), (960, 540), (960, 540), (960, 540), (960, 540), (960, 540), (960, 540), (960, 540), (960, 540), (960, 540), (960, 540), (960, 540), (960, 540), (960, 540), (960, 540), (960, 540), (960, 540), (960, 540), (960, 537), (964, 533), (970, 526), (989, 513), (1003, 503), (1023, 488), (1046, 471), (1100, 439), (1133, 421), (1164, 409), (1199, 394), (1279, 374), (1318, 363), (1354, 352)]",334.4915135021166,"[7, 1, 8, 3, 9, 4, 6, 2, 5]","(0, 0.25)",ENG010B,ENG,B,English,Fri Aug 31 09:58:09 2018,Mouse
1,0,2,0,58,5,2,0,-1080,120,960,134,0,500,200,8000,"[(960, 540), (960, 540), (960, 540), (960, 540), (960, 540), (960, 540), (960, 540), (960, 540), (960, 540), (960, 540), (960, 540), (959, 540), (959, 541), (959, 541), (958, 542), (958, 542), (957, 543), (957, 544), (957, 544), (956, 544), (956, 544), (956, 544), (956, 545), (956, 545), (956, 545), (956, 545), (956, 545), (956, 545), (956, 545), (956, 545), (956, 545), (956, 545), (956, 545), (956, 545), (956, 545), (956, 545), (956, 545), (956, 545), (956, 545), (956, 545), (956, 545), (956, 545), (956, 545), (956, 545), (955, 546), (955, 546), (955, 546), (955, 546), (955, 546), (955, 546), (955, 546), (955, 546), (955, 546), (955, 546), (955, 546), (955, 546), (955, 546), (955, 546), (955, 546), (955, 546), (955, 546), (955, 546), (955, 546), (955, 546), (955, 546), (955, 546), (954, 547), (954, 547), (953, 548), (951, 549), (949, 549), (949, 550), (947, 551), (946, 551), (946, 551), (946, 551), (946, 551), (946, 551), (945, 552), (945, 552), (945, 552), (945, 552), (945, 552), (945, 552), (945, 552), (945, 552), (945, 550), (945, 546), (949, 533), (953, 527), (959, 517), (964, 508), (980, 487), (988, 476), (996, 463), (1007, 449), (1028, 417), (1037, 403), (1044, 392), (1052, 375), (1067, 352), (1074, 340), (1082, 320), (1088, 295), (1106, 244), (1113, 224), (1127, 194), (1131, 175)]",295.102768383091,"[7, 1, 8, 3, 9, 4, 6, 2, 5]","(0, 0.25)",ENG010B,ENG,B,English,Fri Aug 31 09:58:09 2018,Mouse
1,0,2,0,59,3,3,1,440,30,410,135,0,500,200,8000,"[(959, 540), (959, 540), (958, 542), (957, 543), (957, 544), (956, 544), (955, 545), (955, 546), (955, 546), (955, 546), (955, 546), (955, 546), (955, 546), (954, 546), (954, 546), (953, 548), (953, 549), (951, 550), (950, 551), (948, 555), (947, 555), (944, 557), (944, 558), (939, 561), (936, 564), (933, 565), (931, 568), (917, 576), (911, 580), (905, 584), (897, 591), (876, 605), (866, 610), (850, 620), (834, 630), (792, 660), (772, 673), (753, 685), (736, 698), (708, 719), (693, 729), (678, 740), (666, 751), (637, 776)]",143.8462622996264,"[7, 1, 8, 3, 9, 4, 6, 2, 5]","(0, 0.25)",ENG010B,ENG,B,English,Fri Aug 31 09:58:09 2018,Mouse
1,0,2,0,60,4,3,0,-760,150,610,135,0,500,200,8000,"[(960, 540), (960, 540), (960, 540), (960, 540), (960, 540), (960, 540), (960, 540), (960, 540), (960, 540), (960, 540), (960, 540), (960, 540), (960, 540), (960, 540), (959, 541), (959, 541), (959, 541), (959, 541), (958, 542), (958, 542), (958, 542), (958, 542), (958, 542), (958, 542), (958, 542), (958, 542), (958, 542), (958, 542), (958, 542), (958, 542), (958, 542), (958, 542), (958, 542), (958, 542), (957, 543), (957, 543), (956, 544), (955, 546), (954, 549), (953, 552), (950, 556), (949, 559), (942, 566), (937, 571), (933, 577), (927, 583), (917, 597), (910, 605), (903, 614), (898, 620), (884, 634), (876, 642), (867, 648), (858, 656), (839, 673), (827, 681), (817, 691), (807, 700), (772, 731), (751, 748), (724, 763), (714, 769), (699, 778), (695, 781), (689, 786), (686, 788), (682, 792), (680, 793), (679, 795), (678, 796), (675, 801), (675, 802), (674, 804), (672, 807), (669, 812), (667, 814)]",136.91924623396892,"[7, 1, 8, 3, 9, 4, 6, 2, 5]","(0, 0.25)",ENG010B,ENG,B,English,Fri Aug 31 09:58:09 2018,Mouse
1,0,2,0,61,9,9,1,461,41,420,136,0,500,200,8000,"[(960, 540), (960, 540), (960, 540), (960, 540), (960, 541), (960, 541), (960, 541), (960, 541), (960, 541), (960, 541), (960, 541), (960, 541), (960, 541), (960, 541), (960, 541), (960, 541), (960, 541), (960, 541), (960, 541), (960, 541), (960, 542), (960, 543), (959, 545), (958, 545), (958, 545), (956, 546), (953, 548), (950, 549), (947, 550), (944, 551), (935, 553), (928, 556), (922, 557), (915, 558), (898, 562), (884, 563), (869, 564), (856, 567), (818, 571), (796, 576), (770, 577), (736, 579), (679, 582), (654, 582), (632, 582), (609, 582), (562, 582)]",173.97600691768037,"[7, 1, 8, 3, 9, 4, 6, 2, 5]","(0, 0.25)",ENG010B,ENG,B,English,Fri Aug 31 09:58:09 2018,Mouse
1,0,2,0,62,4,9,0,-1150,140,1010,136,0,500,200,8000,"[(960, 540), (960, 540), (960, 540), (960, 540), (960, 540), (960, 540), (960, 540), (960, 540), (960, 540), (960, 540), (960, 540), (960, 540), (960, 540), (959, 540), (959, 540), (959, 540), (959, 540), (959, 540), (959, 540), (959, 540), (959, 540), (959, 540), (959, 540), (959, 540), (959, 540), (957, 540), (957, 540), (957, 540), (957, 540), (957, 541), (957, 541), (957, 541), (957, 541), (957, 541), (957, 541), (957, 541), (957, 541), (957, 541), (957, 541), (957, 541), (957, 541), (957, 541), (957, 541), (957, 541), (957, 541), (957, 541), (957, 541), (957, 541), (957, 541), (957, 541), (957, 541), (957, 541), (957, 541), (957, 541), (957, 541), (957, 541), (957, 541), (957, 541), (957, 541), (957, 541), (957, 541), (957, 541), (957, 541), (957, 541), (957, 541), (957, 541), (957, 541), (957, 541), (957, 541), (957, 541), (957, 541), (957, 541), (957, 541), (957, 541), (957, 541), (957, 541), (957, 541), (957, 541), (957, 541), (957, 541), (957, 541), (957, 541), (956, 541), (956, 541), (956, 541), (956, 541), (956, 541), (956, 541), (956, 541), (956, 541), (956, 541), (956, 541), (955, 541), (954, 541), (949, 542), (945, 544), (941, 545), (938, 545), (932, 549), (927, 551), (922, 554), (914, 555), (884, 559), (859, 559), (834, 559), (806, 559), (753, 559), (722, 559), (700, 559), (672, 559), (630, 559), (608, 559), (582, 559), (566, 559), (529, 559)]",177.4758342472257,"[7, 1, 8, 3, 9, 4, 6, 2, 5]","(0, 0.25)",ENG010B,ENG,B,English,Fri Aug 31 09:58:09 2018,Mouse
1,0,2,0,63,3,3,1,750,300,450,137,0,500,200,8000,"[(960, 540), (960, 540), (960, 540), (960, 540), (960, 540), (960, 540), (960, 540), (960, 540), (960, 540), (960, 540), (960, 540), (960, 540), (960, 540), (960, 540), (960, 540), (960, 540), (960, 540), (960, 540), (960, 540), (960, 540), (960, 540), (960, 540), (960, 540), (960, 540), (960, 540), (960, 540), (960, 540), (960, 540), (960, 540), (959, 541), (953, 544), (949, 547), (945, 551), (939, 556), (928, 565), (921, 572), (912, 579), (903, 586), (885, 595), (876, 599), (867, 604), (856, 608), (835, 617), (825, 624), (817, 632), (808, 641), (795, 657), (787, 666), (780, 672), (774, 678), (760, 693), (752, 702), (747, 709), (744, 713), (741, 718), (739, 720), (739, 723), (738, 725), (735, 732), (735, 735), (733, 737), (732, 739), (727, 744), (724, 746), (720, 749), (716, 750), (708, 758), (701, 762), (695, 765), (689, 770), (678, 776), (675, 779), (667, 783), (659, 788), (641, 794)]",141.47185550384197,"[7, 1, 8, 3, 9, 4, 6, 2, 5]","(0, 0.25)",ENG010B,ENG,B,English,Fri Aug 31 09:58:09 2018,Mouse
1,0,2,0,64,4,2,0,-520,230,290,137,0,500,200,8000,"[(960, 540), (960, 540), (960, 540), (960, 540), (960, 540), (960, 540), (960, 540), (960, 540), (960, 540), (960, 540), (960, 540), (960, 540), (960, 540), (960, 540), (960, 540), (960, 540), (960, 540), (960, 540), (960, 540), (960, 540), (960, 540), (960, 540), (960, 541), (960, 541), (960, 541), (960, 541), (960, 541), (960, 541), (960, 541), (960, 541), (960, 542), (959, 543), (959, 543), (959, 543), (959, 543), (959, 543), (959, 543), (959, 543), (958, 541), (958, 538), (959, 535), (965, 526), (982, 502), (996, 482), (1012, 460), (1033, 431), (1072, 373), (1090, 340), (1111, 305), (1128, 275), (1154, 219), (1166, 188)]",300.3373347864578,"[7, 1, 8, 3, 9, 4, 6, 2, 5]","(0, 0.25)",ENG010B,ENG,B,English,Fri Aug 31 09:58:09 2018,Mouse
1,0,2,0,65,3,3,1,360,20,340,138,0,500,200,8000,"[(958, 542), (952, 548), (947, 552), (943, 556), (940, 558), (930, 566), (924, 571), (919, 576), (912, 581), (895, 592), (886, 598), (876, 603), (863, 610), (842, 619), (832, 623), (822, 627), (813, 632), (793, 646), (782, 654), (771, 662), (763, 667), (747, 678), (737, 684), (727, 688), (721, 694), (705, 702), (697, 706), (690, 711), (682, 714), (665, 724), (658, 727), (652, 732), (645, 737), (634, 747), (629, 751), (622, 757)]",147.29905691273922,"[7, 1, 8, 3, 9, 4, 6, 2, 5]","(0, 0.25)",ENG010B,ENG,B,English,Fri Aug 31 09:58:09 2018,Mouse
1,0,2,0,66,6,6,1,880,570,310,138,0,500,200,8000,"[(960, 540), (960, 540), (960, 540), (960, 540), (960, 540), (960, 540), (960, 540), (960, 540), (960, 540), (960, 540), (960, 540), (960, 540), (960, 540), (960, 540), (960, 540), (960, 540), (960, 540), (960, 540), (960, 540), (960, 540), (960, 540), (960, 540), (960, 540), (960, 540), (960, 540), (960, 540), (960, 540), (960, 540), (960, 540), (960, 540), (960, 540), (960, 540), (960, 540), (960, 540), (960, 540), (960, 540), (960, 540), (960, 540), (960, 540), (960, 540), (960, 540), (960, 540), (960, 540), (960, 540), (960, 540), (960, 540), (960, 540), (960, 540), (960, 540), (960, 540), (960, 540), (960, 540), (960, 540), (960, 540), (960, 540), (960, 540), (957, 539), (956, 533), (956, 528), (956, 524), (956, 519), (956, 518), (956, 516), (956, 512), (956, 500), (956, 490), (956, 479), (956, 470), (956, 451), (956, 443), (956, 430), (956, 417), (956, 390), (956, 378), (955, 365), (953, 353), (946, 332), (942, 320), (940, 309), (935, 299), (928, 278), (927, 269), (924, 256), (922, 242), (912, 202), (908, 181), (902, 161), (895, 144)]",260.67851105077847,"[7, 1, 8, 3, 9, 4, 6, 2, 5]","(0, 0.25)",ENG010B,ENG,B,English,Fri Aug 31 09:58:09 2018,Mouse
1,0,2,0,67,1,1,1,1161,751,410,137,0,500,200,8000,"[(960, 540), (960, 540), (960, 540), (960, 540), (960, 540), (960, 540), (960, 540), (960, 540), (960, 540), (960, 540), (960, 540), (960, 540), (960, 540), (960, 540), (960, 540), (960, 540), (960, 540), (960, 540), (960, 540), (960, 540), (960, 540), (960, 540), (960, 540), (960, 540), (960, 540), (960, 540), (960, 540), (960, 540), (960, 540), (960, 540), (960, 540), (960, 540), (960, 540), (960, 540), (960, 540), (960, 540), (960, 540), (960, 540), (960, 540), (960, 540), (960, 540), (960, 540), (960, 540), (960, 540), (960, 540), (960, 540), (960, 540), (960, 540), (960, 540), (960, 540), (960, 540), (960, 540), (960, 540), (960, 540), (960, 540), (960, 540), (960, 540), (960, 540), (960, 540), (960, 540), (960, 540), (960, 540), (960, 540), (960, 540), (960, 540), (960, 540), (960, 540), (960, 540), (960, 540), (960, 540), (960, 540), (960, 540), (960, 540), (960, 540), (960, 540), (959, 540), (959, 540), (959, 540), (959, 540), (959, 540), (959, 541), (959, 541), (959, 541), (959, 541), (959, 541), (959, 542), (959, 543), (959, 543), (959, 544), (959, 545), (959, 546), (959, 548), (959, 552), (959, 554), (960, 556), (960, 559), (961, 566), (962, 569), (965, 575), (966, 582), (975, 606), (977, 620), (982, 634), (986, 653), (998, 695), (1004, 717), (1011, 735), (1020, 758), (1036, 792), (1042, 803), (1047, 812), (1052, 821), (1067, 841), (1075, 853), (1086, 867), (1100, 886), (1119, 913)]",66.91273534272017,"[7, 1, 8, 3, 9, 4, 6, 2, 5]","(0, 0.25)",ENG010B,ENG,B,English,Fri Aug 31 09:58:09 2018,Mouse
1,0,2,0,68,8,3,0,-360,270,90,136,0,500,200,8000,"[(960, 540), (960, 540), (960, 540), (960, 540), (960, 540), (960, 540), (960, 540), (960, 540), (960, 540), (960, 540), (960, 540), (960, 540), (960, 540), (960, 540), (960, 540), (960, 540), (960, 540), (960, 540), (960, 540), (960, 540), (960, 540), (960, 540), (960, 540), (960, 540), (960, 540), (960, 540), (960, 541), (958, 546), (949, 556), (934, 572), (887, 630), (859, 661), (814, 694), (777, 729), (687, 782), (640, 808)]",140.05382605006437,"[7, 1, 8, 3, 9, 4, 6, 2, 5]","(0, 0.25)",ENG010B,ENG,B,English,Fri Aug 31 09:58:09 2018,Mouse
1,0,2,0,69,4,2,0,-801,431,370,137,0,500,200,8000,"[(960, 540), (960, 540), (960, 540), (960, 540), (960, 540), (960, 540), (960, 540), (960, 540), (960, 540), (960, 540), (960, 540), (960, 540), (960, 540), (960, 540), (960, 540), (960, 540), (960, 540), (960, 540), (960, 540), (960, 540), (960, 540), (960, 540), (960, 540), (960, 540), (960, 540), (960, 540), (960, 540), (960, 540), (960, 540), (960, 540), (960, 540), (960, 540), (960, 540), (960, 540), (960, 540), (960, 540), (960, 540), (960, 540), (960, 540), (960, 540), (960, 540), (960, 540), (960, 540), (960, 539), (960, 537), (960, 536), (961, 530), (962, 526), (964, 524), (965, 519), (969, 509), (970, 507), (970, 504), (973, 501), (977, 491), (977, 489), (978, 488), (979, 486), (981, 483), (981, 482), (982, 480), (982, 479), (985, 475), (985, 475), (985, 474), (986, 472), (987, 471), (989, 469), (989, 469), (989, 468), (995, 461), (999, 456), (1004, 451), (1009, 444), (1024, 428), (1036, 412), (1051, 394), (1067, 372), (1116, 302), (1150, 250), (1181, 195)]",302.6428002524627,"[7, 1, 8, 3, 9, 4, 6, 2, 5]","(0, 0.25)",ENG010B,ENG,B,English,Fri Aug 31 09:58:09 2018,Mouse
1,0,2,0,70,1,1,1,731,271,460,138,0,500,200,8000,"[(960, 540), (960, 540), (960, 540), (960, 540), (960, 540), (960, 540), (960, 540), (960, 540), (960, 540), (960, 540), (960, 540), (960, 540), (960, 540), (960, 540), (960, 540), (960, 540), (960, 540), (960, 540), (960, 540), (960, 540), (960, 540), (960, 540), (960, 540), (960, 540), (960, 540), (960, 540), (960, 540), (958, 541), (956, 542), (953, 543), (952, 543), (951, 544), (951, 544), (951, 544), (951, 544), (951, 544), (951, 544), (951, 544), (951, 544), (951, 544), (950, 544), (949, 545), (948, 546), (948, 546), (947, 548), (945, 553), (945, 553), (944, 556), (943, 558), (942, 562), (942, 564), (942, 566), (942, 569), (942, 578), (942, 584), (942, 587), (942, 593), (948, 606), (956, 623), (971, 648), (987, 673), (1022, 712), (1038, 730), (1050, 742), (1068, 761), (1098, 791), (1114, 807), (1126, 818), (1138, 828), (1156, 845), (1167, 854), (1174, 859), (1182, 865), (1199, 872)]",54.25065930796548,"[7, 1, 8, 3, 9, 4, 6, 2, 5]","(0, 0.25)",ENG010B,ENG,B,English,Fri Aug 31 09:58:09 2018,Mouse
1,0,2,0,71,1,1,1,470,270,200,138,0,500,200,8000,"[(960, 540), (960, 540), (960, 540), (960, 540), (960, 540), (960, 540), (960, 540), (960, 540), (960, 540), (960, 540), (960, 540), (960, 540), (960, 540), (960, 540), (960, 540), (960, 540), (960, 540), (960, 540), (960, 540), (960, 540), (960, 540), (960, 540), (960, 540), (960, 540), (960, 540), (960, 540), (958, 544), (958, 547), (958, 551), (958, 558), (964, 575), (971, 587), (981, 600), (992, 617), (1027, 654), (1052, 678), (1072, 701), (1098, 724), (1136, 756), (1151, 768), (1161, 777), (1174, 790), (1193, 812), (1198, 822), (1204, 834), (1208, 844), (1217, 859)]",51.143600060055405,"[7, 1, 8, 3, 9, 4, 6, 2, 5]","(0, 0.25)",ENG010B,ENG,B,English,Fri Aug 31 09:58:09 2018,Mouse
1,0,2,0,72,7,7,1,431,311,120,137,0,500,200,8000,"[(960, 540), (960, 540), (960, 540), (960, 540), (960, 540), (960, 540), (960, 540), (960, 540), (960, 540), (960, 540), (960, 540), (960, 540), (960, 540), (960, 540), (960, 540), (960, 540), (960, 540), (960, 540), (960, 540), (960, 540), (960, 540), (960, 540), (960, 540), (960, 540), (960, 540), (960, 540), (960, 540), (960, 540), (960, 540), (960, 540), (960, 540), (974, 548), (985, 553), (1001, 558), (1022, 565), (1070, 581), (1098, 591), (1129, 601), (1163, 614), (1226, 640), (1260, 650), (1300, 668), (1329, 680), (1388, 702)]",20.731888492082856,"[7, 1, 8, 3, 9, 4, 6, 2, 5]","(0, 0.25)",ENG010B,ENG,B,English,Fri Aug 31 09:58:09 2018,Mouse
1,0,2,0,73,6,3,0,-410,150,260,136,0,500,200,8000,"[(960, 540), (960, 540), (960, 540), (960, 540), (960, 540), (960, 540), (960, 540), (960, 540), (960, 540), (960, 540), (960, 540), (960, 540), (960, 540), (960, 540), (960, 542), (959, 542), (957, 543), (955, 544), (953, 545), (951, 545), (949, 546), (948, 547), (945, 548), (944, 549), (943, 549), (943, 550), (939, 552), (935, 552), (932, 555), (927, 556), (913, 566), (906, 573), (897, 584), (880, 598), (842, 638), (819, 667), (792, 696), (768, 725), (725, 784), (699, 818), (674, 847)]",132.97182332398063,"[7, 1, 8, 3, 9, 4, 6, 2, 5]","(0, 0.25)",ENG010B,ENG,B,English,Fri Aug 31 09:58:09 2018,Mouse
1,0,2,0,74,2,2,1,720,330,390,137,0,500,200,8000,"[(960, 540), (960, 540), (960, 540), (960, 540), (960, 540), (960, 540), (960, 540), (960, 540), (960, 540), (960, 540), (960, 540), (960, 540), (960, 540), (960, 540), (960, 540), (960, 540), (960, 540), (960, 540), (960, 540), (960, 540), (960, 540), (960, 540), (960, 540), (960, 540), (960, 540), (960, 540), (960, 540), (960, 540), (960, 540), (960, 540), (960, 540), (960, 540), (960, 539), (960, 535), (961, 531), (961, 528), (965, 521), (966, 517), (969, 511), (971, 505), (980, 486), (982, 479), (987, 468), (991, 459), (996, 443), (999, 435), (1002, 424), (1008, 407), (1020, 380), (1030, 361), (1045, 337), (1054, 320), (1071, 293), (1076, 281), (1082, 269), (1087, 257), (1092, 240), (1093, 232), (1096, 226), (1097, 220), (1101, 212), (1102, 210), (1105, 206), (1107, 204), (1114, 197), (1117, 194), (1121, 189), (1123, 186), (1126, 181), (1128, 179), (1128, 178), (1129, 176)]",294.9047688080952,"[7, 1, 8, 3, 9, 4, 6, 2, 5]","(0, 0.25)",ENG010B,ENG,B,English,Fri Aug 31 09:58:09 2018,Mouse
1,0,2,0,75,9,9,1,520,60,460,137,0,500,200,8000,"[(960, 540), (960, 540), (960, 540), (960, 540), (960, 540), (959, 541), (959, 541), (956, 543), (956, 543), (954, 543), (952, 544), (948, 547), (946, 548), (945, 550), (943, 550), (942, 551), (942, 551), (940, 551), (940, 552), (939, 553), (937, 553), (936, 554), (934, 555), (931, 558), (928, 558), (926, 560), (924, 561), (918, 564), (914, 566), (909, 568), (903, 570), (891, 575), (884, 578), (877, 579), (869, 581), (844, 585), (828, 587), (815, 589), (799, 592), (772, 596), (758, 596), (742, 596), (722, 596), (686, 594), (669, 592), (651, 585), (635, 582), (610, 574), (600, 569), (589, 565), (578, 559), (555, 552)]",178.30284381039974,"[7, 1, 8, 3, 9, 4, 6, 2, 5]","(0, 0.25)",ENG010B,ENG,B,English,Fri Aug 31 09:58:09 2018,Mouse
1,0,2,0,76,7,7,1,430,310,120,136,0,500,200,8000,"[(960, 540), (960, 540), (960, 540), (960, 540), (960, 540), (960, 540), (960, 540), (960, 540), (960, 540), (960, 540), (960, 540), (960, 540), (960, 540), (960, 540), (960, 540), (960, 540), (960, 540), (960, 540), (960, 540), (960, 540), (960, 540), (960, 540), (960, 540), (960, 540), (960, 540), (960, 540), (960, 540), (960, 540), (960, 540), (960, 540), (963, 540), (970, 540), (981, 540), (993, 540), (1041, 546), (1074, 553), (1106, 556), (1146, 564), (1225, 578), (1257, 583), (1293, 590), (1323, 599), (1368, 612)]",10.007979801441337,"[7, 1, 8, 3, 9, 4, 6, 2, 5]","(0, 0.25)",ENG010B,ENG,B,English,Fri Aug 31 09:58:09 2018,Mouse
1,0,2,0,77,2,7,0,-970,311,659,135,0,500,200,8000,"[(960, 540), (960, 540), (960, 540), (960, 540), (960, 540), (960, 540), (960, 540), (960, 540), (960, 540), (960, 540), (960, 540), (960, 540), (960, 540), (960, 540), (960, 540), (960, 540), (960, 540), (960, 540), (960, 540), (960, 540), (960, 540), (960, 540), (960, 540), (960, 540), (960, 540), (960, 540), (960, 540), (960, 540), (960, 540), (960, 540), (960, 540), (960, 541), (960, 541), (960, 541), (960, 541), (960, 541), (958, 541), (958, 541), (957, 542), (957, 542), (957, 542), (957, 542), (957, 542), (957, 542), (957, 542), (957, 542), (957, 542), (957, 542), (957, 542), (957, 542), (957, 542), (957, 542), (957, 542), (957, 542), (957, 542), (957, 542), (957, 542), (957, 542), (957, 542), (957, 542), (957, 542), (957, 542), (957, 542), (957, 542), (957, 542), (957, 542), (957, 542), (957, 542), (957, 542), (957, 542), (957, 542), (957, 542), (957, 542), (957, 542), (957, 542), (957, 542), (957, 542), (957, 542), (957, 542), (957, 542), (957, 542), (957, 542), (957, 542), (957, 542), (957, 542), (957, 542), (967, 547), (973, 548), (985, 552), (1001, 556), (1048, 567), (1082, 578), (1123, 587), (1164, 599), (1264, 629), (1308, 638), (1355, 652)]",15.830382781038798,"[7, 1, 8, 3, 9, 4, 6, 2, 5]","(0, 0.25)",ENG010B,ENG,B,English,Fri Aug 31 09:58:09 2018,Mouse
1,0,2,0,78,4,4,1,811,411,400,136,0,500,200,8000,"[(960, 540), (960, 540), (960, 540), (960, 540), (960, 540), (960, 540), (960, 540), (960, 540), (960, 540), (960, 540), (960, 540), (960, 540), (960, 540), (960, 540), (960, 540), (960, 540), (960, 540), (960, 540), (960, 540), (960, 540), (960, 540), (960, 540), (960, 540), (960, 540), (960, 540), (960, 540), (960, 540), (960, 540), (960, 540), (960, 540), (960, 540), (960, 540), (960, 540), (960, 540), (960, 540), (960, 540), (960, 540), (960, 540), (960, 540), (960, 540), (960, 540), (958, 540), (957, 540), (956, 540), (956, 540), (953, 540), (952, 541), (952, 541), (952, 541), (952, 541), (952, 541), (952, 541), (952, 541), (952, 541), (950, 541), (950, 541), (950, 541), (949, 540), (948, 539), (948, 539), (947, 539), (943, 536), (943, 535), (939, 533), (938, 532), (928, 524), (920, 518), (910, 513), (899, 507), (867, 489), (854, 481), (840, 473), (828, 463), (808, 443), (795, 429), (781, 414), (764, 399), (721, 369), (697, 355), (675, 340), (655, 327), (616, 301)]",214.79031478672587,"[7, 1, 8, 3, 9, 4, 6, 2, 5]","(0, 0.25)",ENG010B,ENG,B,English,Fri Aug 31 09:58:09 2018,Mouse
1,0,2,0,79,5,3,0,-391,71,320,136,0,500,200,8000,"[(960, 540), (960, 540), (960, 540), (960, 540), (960, 540), (960, 540), (960, 540), (957, 543), (957, 543), (956, 544), (955, 546), (953, 550), (952, 553), (949, 557), (948, 560), (945, 565), (943, 568), (940, 572), (940, 574), (936, 584), (934, 588), (931, 595), (929, 600), (924, 612), (920, 618), (916, 624), (905, 635), (887, 650), (879, 656), (868, 663), (858, 669), (829, 686), (817, 692), (798, 698), (770, 710), (704, 737), (677, 748), (657, 757), (636, 766), (594, 778)]",146.96512883774884,"[7, 1, 8, 3, 9, 4, 6, 2, 5]","(0, 0.25)",ENG010B,ENG,B,English,Fri Aug 31 09:58:09 2018,Mouse
1,0,2,0,80,9,9,1,400,20,380,137,0,500,200,8000,"[(960, 539), (960, 538), (960, 535), (960, 535), (960, 534), (960, 533), (960, 532), (959, 529), (959, 529), (958, 528), (956, 526), (955, 525), (952, 523), (948, 521), (936, 517), (932, 515), (926, 514), (920, 510), (907, 505), (901, 504), (896, 501), (893, 501), (887, 500), (884, 499), (880, 499), (877, 499), (873, 499), (870, 499), (866, 499), (860, 499), (841, 499), (829, 499), (817, 499), (800, 498), (763, 498), (735, 498), (696, 498), (655, 498), (580, 498), (544, 498)]",185.76513455797237,"[7, 1, 8, 3, 9, 4, 6, 2, 5]","(0, 0.25)",ENG010B,ENG,B,English,Fri Aug 31 09:58:09 2018,Mouse
1,0,2,0,81,7,7,1,349,139,210,137,0,500,200,8000,"[(960, 540), (960, 540), (960, 540), (960, 540), (960, 540), (960, 540), (960, 540), (960, 540), (960, 540), (960, 540), (960, 540), (960, 540), (960, 540), (961, 540), (963, 540), (964, 540), (966, 540), (969, 540), (972, 540), (974, 540), (975, 540), (981, 541), (983, 542), (987, 543), (990, 544), (1006, 547), (1014, 549), (1023, 551), (1036, 552), (1085, 559), (1120, 564), (1163, 572), (1204, 581), (1298, 606), (1353, 616)]",10.944996138289568,"[7, 1, 8, 3, 9, 4, 6, 2, 5]","(0, 0.25)",ENG010B,ENG,B,English,Fri Aug 31 09:58:09 2018,Mouse
1,0,2,0,82,3,3,1,730,540,190,136,0,500,200,8000,"[(960, 540), (960, 540), (960, 540), (960, 540), (960, 540), (960, 540), (960, 540), (960, 540), (960, 540), (960, 540), (960, 540), (960, 540), (960, 540), (960, 540), (960, 540), (960, 540), (960, 540), (960, 540), (960, 540), (960, 540), (960, 540), (960, 540), (960, 540), (960, 540), (960, 540), (960, 540), (960, 540), (960, 540), (960, 540), (960, 540), (960, 540), (960, 540), (960, 540), (960, 540), (960, 540), (960, 540), (960, 540), (960, 540), (960, 540), (960, 540), (960, 540), (960, 540), (960, 540), (960, 540), (960, 540), (960, 540), (960, 540), (960, 540), (960, 540), (960, 540), (960, 540), (960, 540), (960, 540), (959, 541), (957, 541), (955, 542), (953, 543), (946, 546), (942, 548), (937, 550), (930, 553), (914, 562), (900, 572), (879, 589), (851, 612), (804, 650), (787, 665), (757, 683), (734, 701), (686, 734), (663, 750), (644, 764), (626, 777)]",144.64121846875278,"[7, 1, 8, 3, 9, 4, 6, 2, 5]","(0, 0.25)",ENG010B,ENG,B,English,Fri Aug 31 09:58:09 2018,Mouse
1,0,2,0,83,3,3,1,372,12,360,135,0,500,200,8000,"[(960, 539), (960, 538), (960, 537), (960, 537), (960, 536), (960, 535), (960, 534), (960, 534), (960, 534), (960, 534), (960, 534), (960, 534), (960, 534), (960, 534), (960, 534), (960, 534), (960, 534), (960, 534), (960, 534), (961, 534), (961, 534), (961, 534), (961, 534), (961, 534), (961, 535), (958, 537), (955, 538), (951, 540), (932, 551), (916, 563), (895, 575), (872, 591), (813, 634), (777, 657), (730, 685), (697, 705), (623, 737), (594, 749)]",150.2719803210269,"[7, 1, 8, 3, 9, 4, 6, 2, 5]","(0, 0.25)",ENG010B,ENG,B,English,Fri Aug 31 09:58:09 2018,Mouse
1,0,2,0,84,5,4,0,-1179,969,210,134,0,500,200,8000,"[(960, 540), (960, 540), (960, 540), (960, 540), (960, 540), (960, 540), (960, 540), (960, 540), (960, 540), (960, 540), (960, 540), (960, 540), (960, 540), (960, 540), (960, 540), (960, 540), (960, 540), (960, 540), (960, 540), (960, 540), (960, 540), (960, 540), (960, 540), (960, 540), (960, 540), (960, 540), (960, 540), (960, 540), (960, 540), (960, 540), (960, 540), (960, 540), (960, 540), (960, 540), (960, 540), (960, 540), (960, 540), (960, 540), (960, 540), (960, 540), (960, 540), (960, 540), (960, 540), (960, 540), (960, 540), (960, 540), (960, 540), (960, 540), (960, 540), (960, 540), (960, 540), (960, 540), (960, 540), (960, 540), (960, 540), (960, 540), (960, 540), (960, 540), (960, 540), (960, 540), (960, 540), (960, 540), (960, 540), (960, 540), (960, 540), (960, 540), (960, 540), (960, 540), (960, 540), (960, 540), (960, 540), (960, 540), (960, 540), (960, 540), (960, 540), (960, 540), (960, 540), (960, 540), (960, 540), (960, 540), (960, 540), (960, 540), (960, 540), (960, 540), (960, 540), (960, 540), (960, 540), (960, 540), (960, 540), (960, 540), (960, 540), (960, 540), (960, 540), (960, 540), (960, 540), (960, 540), (960, 539), (960, 539), (960, 539), (959, 538), (958, 538), (957, 537), (955, 537), (951, 536), (948, 533), (941, 531), (934, 528), (925, 523), (917, 520), (893, 505), (877, 497), (861, 487), (842, 475), (792, 444), (764, 423), (722, 393), (676, 347), (583, 275)]",215.10406513566815,"[7, 1, 8, 3, 9, 4, 6, 2, 5]","(0, 0.25)",ENG010B,ENG,B,English,Fri Aug 31 09:58:09 2018,Mouse
1,0,2,0,85,3,3,1,420,110,310,135,0,500,200,8000,"[(960, 540), (960, 540), (960, 540), (960, 540), (960, 540), (960, 540), (960, 540), (960, 540), (960, 540), (960, 540), (959, 540), (953, 544), (946, 547), (933, 550), (913, 559), (905, 564), (897, 569), (890, 572), (880, 581), (878, 583), (874, 588), (870, 591), (867, 594), (865, 596), (863, 597), (861, 598), (853, 605), (849, 612), (843, 622), (836, 634), (813, 673), (797, 695), (780, 718), (762, 741), (731, 771), (720, 778), (713, 784), (706, 791), (694, 808), (689, 815), (684, 823), (680, 831)]",133.89636492881306,"[7, 1, 8, 3, 9, 4, 6, 2, 5]","(0, 0.25)",ENG010B,ENG,B,English,Fri Aug 31 09:58:09 2018,Mouse
1,0,2,0,86,8,8,1,391,11,380,135,0,500,200,8000,"[(960, 540), (963, 539), (963, 539), (965, 539), (965, 539), (965, 539), (965, 539), (965, 539), (965, 539), (965, 539), (965, 539), (965, 539), (965, 539), (965, 539), (965, 539), (965, 539), (965, 539), (965, 539), (965, 539), (965, 539), (965, 539), (965, 539), (965, 539), (965, 539), (965, 539), (965, 539), (965, 539), (967, 539), (969, 559), (971, 571), (972, 586), (975, 614), (981, 693), (983, 738), (983, 777), (983, 810), (983, 871), (983, 897), (983, 924), (983, 955)]",86.82781645416125,"[7, 1, 8, 3, 9, 4, 6, 2, 5]","(0, 0.25)",ENG010B,ENG,B,English,Fri Aug 31 09:58:09 2018,Mouse
1,0,2,0,87,9,9,1,560,400,160,134,0,500,200,8000,"[(960, 540), (960, 540), (960, 540), (960, 540), (960, 540), (960, 540), (960, 540), (960, 540), (960, 540), (960, 540), (960, 540), (960, 540), (960, 540), (960, 540), (960, 540), (960, 540), (960, 540), (960, 540), (960, 540), (960, 540), (960, 540), (960, 540), (960, 540), (960, 540), (960, 540), (960, 540), (960, 540), (960, 540), (960, 540), (960, 540), (960, 540), (960, 540), (960, 540), (960, 540), (960, 540), (960, 540), (960, 540), (960, 540), (960, 540), (958, 540), (956, 541), (954, 542), (952, 542), (945, 542), (942, 542), (938, 542), (932, 542), (907, 540), (894, 538), (880, 535), (861, 534), (799, 522), (764, 519), (720, 509), (669, 501), (555, 483)]",188.01123161285602,"[7, 1, 8, 3, 9, 4, 6, 2, 5]","(0, 0.25)",ENG010B,ENG,B,English,Fri Aug 31 09:58:09 2018,Mouse
1,0,2,0,88,5,9,0,-391,111,280,133,0,500,200,8000,"[(960, 540), (960, 540), (960, 540), (960, 540), (960, 540), (960, 540), (960, 540), (960, 540), (960, 540), (960, 540), (960, 540), (961, 541), (961, 541), (961, 541), (961, 541), (961, 541), (961, 541), (961, 541), (961, 541), (961, 541), (961, 541), (961, 541), (961, 541), (961, 541), (962, 541), (962, 541), (962, 541), (955, 544), (949, 546), (943, 547), (933, 550), (903, 552), (871, 556), (840, 556), (801, 556), (721, 556), (679, 556), (632, 556), (579, 556), (488, 556)]",178.05851360908562,"[7, 1, 8, 3, 9, 4, 6, 2, 5]","(0, 0.25)",ENG010B,ENG,B,English,Fri Aug 31 09:58:09 2018,Mouse
1,0,2,0,89,4,3,0,-681,311,370,134,0,500,200,8000,"[(960, 540), (960, 540), (960, 540), (960, 540), (960, 540), (960, 540), (960, 540), (960, 540), (960, 540), (960, 540), (960, 540), (960, 540), (960, 540), (960, 540), (960, 540), (960, 540), (960, 540), (960, 540), (960, 540), (960, 540), (960, 540), (960, 540), (960, 540), (960, 540), (960, 540), (960, 540), (960, 540), (960, 540), (960, 540), (960, 540), (957, 540), (955, 540), (953, 543), (953, 543), (950, 545), (950, 546), (949, 547), (947, 550), (946, 550), (946, 551), (945, 552), (945, 552), (942, 554), (939, 556), (935, 559), (930, 562), (919, 575), (912, 583), (906, 590), (900, 598), (885, 616), (880, 621), (874, 627), (871, 632), (858, 641), (852, 647), (843, 654), (833, 664), (813, 682), (800, 696), (786, 711), (772, 727), (749, 754), (741, 763), (734, 772), (720, 783), (684, 808), (668, 818)]",136.406981878982,"[7, 1, 8, 3, 9, 4, 6, 2, 5]","(0, 0.25)",ENG010B,ENG,B,English,Fri Aug 31 09:58:09 2018,Mouse
1,0,2,0,90,7,7,1,400,140,260,135,0,500,200,8000,"[(960, 540), (960, 540), (960, 540), (960, 540), (960, 540), (960, 540), (960, 540), (960, 540), (960, 540), (960, 540), (960, 540), (960, 540), (960, 540), (962, 540), (963, 540), (963, 540), (963, 540), (964, 540), (964, 540), (965, 540), (965, 540), (966, 540), (966, 540), (966, 540), (967, 540), (969, 540), (971, 540), (973, 540), (977, 540), (987, 540), (995, 540), (1006, 540), (1017, 540), (1050, 542), (1074, 547), (1110, 558), (1160, 572), (1268, 600), (1326, 617), (1385, 623)]",11.050442493163764,"[7, 1, 8, 3, 9, 4, 6, 2, 5]","(0, 0.25)",ENG010B,ENG,B,English,Fri Aug 31 09:58:09 2018,Mouse
1,0,2,0,91,5,3,0,-681,21,660,135,0,500,200,8000,"[(960, 540), (960, 540), (958, 540), (957, 540), (957, 540), (957, 540), (957, 540), (957, 540), (957, 540), (957, 540), (957, 540), (957, 540), (957, 540), (956, 540), (956, 540), (956, 540), (956, 540), (956, 540), (956, 540), (956, 540), (956, 540), (956, 540), (956, 540), (956, 540), (956, 540), (956, 540), (956, 540), (956, 540), (956, 540), (956, 540), (956, 540), (956, 540), (956, 540), (956, 542), (955, 543), (955, 543), (954, 543), (953, 544), (953, 544), (953, 544), (953, 544), (953, 544), (953, 544), (953, 544), (953, 544), (953, 544), (953, 544), (952, 544), (951, 545), (947, 546), (945, 547), (942, 549), (940, 550), (934, 551), (931, 553), (926, 554), (922, 555), (912, 558), (906, 560), (898, 564), (883, 571), (840, 596), (806, 620), (779, 647), (748, 673), (699, 712), (674, 728), (647, 744), (622, 758)]",147.17918105252414,"[7, 1, 8, 3, 9, 4, 6, 2, 5]","(0, 0.25)",ENG010B,ENG,B,English,Fri Aug 31 09:58:09 2018,Mouse
1,0,2,0,92,3,9,0,-380,120,260,136,0,500,200,8000,"[(960, 540), (960, 540), (960, 540), (960, 540), (960, 540), (960, 540), (960, 540), (960, 540), (960, 540), (960, 540), (960, 540), (959, 542), (959, 542), (958, 542), (958, 542), (957, 543), (957, 543), (956, 544), (956, 544), (956, 544), (955, 544), (954, 545), (953, 545), (949, 548), (947, 549), (944, 549), (942, 551), (927, 554), (915, 556), (902, 556), (884, 556), (831, 556), (784, 556), (739, 556), (698, 556), (603, 556), (561, 553), (520, 546)]",179.21874233839137,"[7, 1, 8, 3, 9, 4, 6, 2, 5]","(0, 0.25)",ENG010B,ENG,B,English,Fri Aug 31 09:58:09 2018,Mouse
1,0,2,0,93,9,9,1,341,171,170,137,0,500,200,8000,"[(960, 540), (960, 540), (960, 540), (960, 540), (960, 540), (960, 540), (960, 540), (960, 540), (960, 540), (960, 540), (960, 540), (960, 540), (960, 540), (960, 540), (960, 540), (960, 540), (960, 540), (959, 540), (958, 540), (958, 540), (958, 540), (955, 540), (953, 541), (949, 541), (941, 541), (915, 540), (895, 538), (868, 531), (838, 525), (773, 513), (730, 507), (687, 502), (644, 498), (570, 493), (540, 493)]",186.38510611835065,"[7, 1, 8, 3, 9, 4, 6, 2, 5]","(0, 0.25)",ENG010B,ENG,B,English,Fri Aug 31 09:58:09 2018,Mouse
1,0,2,0,94,9,9,1,300,60,240,137,0,500,200,8000,"[(960, 540), (960, 540), (960, 540), (960, 540), (960, 540), (960, 539), (960, 539), (960, 539), (960, 539), (960, 539), (960, 539), (960, 538), (960, 538), (960, 538), (960, 538), (960, 538), (960, 538), (960, 537), (960, 537), (958, 537), (954, 535), (939, 535), (928, 535), (911, 535), (886, 535), (808, 535), (750, 535), (684, 535), (614, 533), (457, 511)]",183.29968239586603,"[7, 1, 8, 3, 9, 4, 6, 2, 5]","(0, 0.25)",ENG010B,ENG,B,English,Fri Aug 31 09:58:09 2018,Mouse
1,0,2,0,95,9,9,1,270,150,120,136,0,500,200,8000,"[(960, 540), (960, 540), (960, 540), (960, 540), (960, 540), (960, 540), (960, 540), (960, 540), (960, 540), (960, 540), (960, 540), (960, 540), (960, 540), (960, 540), (954, 540), (948, 539), (942, 538), (934, 538), (910, 536), (893, 536), (865, 536), (829, 536), (740, 536), (687, 534), (634, 534), (576, 530), (482, 522)]",182.1565626747148,"[7, 1, 8, 3, 9, 4, 6, 2, 5]","(0, 0.25)",ENG010B,ENG,B,English,Fri Aug 31 09:58:09 2018,Mouse
1,0,2,0,96,9,9,1,330,71,259,135,0,500,200,8000,"[(960, 540), (960, 540), (960, 540), (960, 540), (960, 540), (960, 540), (960, 540), (958, 540), (957, 541), (956, 542), (955, 542), (953, 542), (951, 542), (951, 542), (951, 542), (951, 542), (951, 542), (951, 542), (951, 542), (951, 542), (951, 542), (951, 542), (948, 542), (944, 542), (938, 543), (929, 543), (899, 543), (876, 543), (837, 543), (785, 543), (652, 543), (563, 543), (474, 538)]",180.2357837698766,"[7, 1, 8, 3, 9, 4, 6, 2, 5]","(0, 0.25)",ENG010B,ENG,B,English,Fri Aug 31 09:58:09 2018,Mouse
1,0,2,0,97,5,9,0,-1098,998,100,134,0,500,200,8000,"[(960, 540), (960, 540), (960, 540), (960, 540), (960, 540), (960, 540), (960, 540), (960, 540), (960, 540), (960, 540), (960, 540), (960, 540), (960, 540), (960, 540), (960, 540), (960, 540), (960, 540), (960, 540), (960, 540), (960, 540), (960, 540), (960, 540), (960, 540), (960, 540), (960, 540), (960, 540), (960, 540), (960, 540), (960, 540), (960, 540), (960, 540), (960, 540), (960, 540), (960, 540), (960, 540), (960, 540), (960, 540), (960, 540), (960, 540), (960, 540), (960, 540), (960, 540), (960, 540), (960, 540), (960, 540), (960, 540), (960, 540), (960, 540), (960, 540), (960, 540), (960, 540), (960, 540), (960, 540), (960, 540), (960, 540), (960, 540), (960, 540), (960, 540), (960, 540), (960, 540), (960, 540), (960, 540), (960, 540), (960, 540), (960, 540), (960, 540), (960, 540), (960, 540), (960, 540), (960, 540), (960, 540), (960, 540), (960, 540), (960, 540), (960, 540), (960, 540), (960, 540), (960, 540), (960, 540), (960, 540), (960, 540), (960, 540), (960, 540), (960, 540), (960, 540), (960, 540), (960, 540), (960, 540), (960, 540), (960, 540), (960, 540), (960, 540), (960, 540), (960, 540), (960, 540), (960, 540), (960, 540), (960, 540), (960, 540), (953, 544), (928, 553), (914, 555), (893, 557), (866, 562), (794, 571), (751, 575), (716, 582), (678, 587), (598, 598), (550, 598)]",171.948170519983,"[7, 1, 8, 3, 9, 4, 6, 2, 5]","(0, 0.25)",ENG010B,ENG,B,English,Fri Aug 31 09:58:09 2018,Mouse
1,0,2,0,98,9,9,1,339,19,320,135,0,500,200,8000,"[(960, 540), (961, 540), (961, 540), (961, 540), (961, 540), (962, 541), (962, 541), (962, 541), (962, 541), (962, 541), (962, 541), (962, 541), (962, 542), (961, 543), (961, 543), (960, 543), (958, 543), (954, 544), (949, 544), (944, 544), (938, 544), (919, 545), (908, 545), (895, 545), (876, 545), (826, 545), (795, 545), (770, 545), (737, 545), (673, 545), (645, 545), (614, 545), (583, 545), (533, 545)]",179.32911989427197,"[7, 1, 8, 3, 9, 4, 6, 2, 5]","(0, 0.25)",ENG010B,ENG,B,English,Fri Aug 31 09:58:09 2018,Mouse
