NativeLangNumber,LanuageNumber,SessionNumber,Block,TrialNum,ConditionNumber,Response,Accuracy,RT,MovementOnsetTime,TimeInMotion,SignalContrast,SignalContrastNumber,StimDisplayTime,MaskTime,MaxResponseTime,MousePositionXY,MouseAngle,WheelOrder,NoiseMuSigma,ParticipantID,LanuageTested,SessionTested,NativeLanuage,Date,ResponseDevice
1,0,3,0,1,7,7,1,624,514,110,153,0,500,200,8000,"[(960, 540), (960, 540), (960, 540), (960, 540), (960, 540), (960, 540), (960, 540), (960, 540), (960, 540), (960, 540), (960, 540), (960, 540), (960, 540), (960, 540), (960, 540), (960, 540), (960, 540), (960, 540), (960, 540), (960, 540), (960, 540), (960, 540), (960, 540), (960, 540), (960, 540), (960, 540), (960, 540), (960, 540), (960, 540), (960, 540), (960, 540), (960, 540), (960, 540), (960, 540), (960, 540), (960, 540), (960, 540), (960, 540), (960, 540), (960, 540), (960, 540), (960, 540), (960, 540), (960, 540), (960, 540), (960, 540), (960, 540), (960, 540), (960, 540), (960, 540), (960, 540), (958, 540), (929, 518), (910, 504), (895, 494), (873, 478), (836, 444), (808, 423), (776, 397), (742, 369), (676, 324), (650, 306), (625, 287)]",217.06097385820212,"[2, 6, 1, 5, 8, 7, 9, 4, 3]","(0, 0.25)",ENG006C,ENG,C,English,Fri Aug 24 12:03:02 2018,Mouse
1,0,3,0,2,4,4,1,1230,1090,140,153,0,500,200,8000,"[(960, 540), (960, 540), (960, 540), (960, 540), (960, 540), (960, 540), (960, 540), (960, 540), (960, 540), (960, 540), (960, 540), (960, 540), (960, 540), (960, 540), (960, 540), (960, 540), (960, 540), (960, 540), (960, 540), (960, 540), (960, 540), (960, 540), (960, 540), (960, 540), (960, 540), (960, 540), (960, 540), (960, 540), (960, 540), (960, 540), (960, 540), (960, 540), (960, 540), (960, 540), (960, 540), (960, 540), (960, 540), (960, 540), (960, 540), (960, 540), (960, 540), (960, 540), (960, 540), (960, 540), (960, 540), (960, 540), (960, 540), (960, 540), (960, 540), (960, 540), (960, 540), (960, 540), (960, 540), (960, 540), (960, 540), (960, 540), (960, 540), (960, 540), (960, 540), (960, 540), (960, 540), (960, 540), (960, 540), (960, 540), (960, 540), (960, 540), (960, 540), (960, 540), (960, 540), (960, 540), (960, 540), (960, 540), (960, 540), (960, 540), (960, 540), (960, 540), (960, 540), (960, 540), (960, 540), (960, 540), (960, 540), (960, 540), (960, 540), (960, 540), (960, 540), (960, 540), (960, 540), (960, 540), (960, 540), (960, 540), (960, 540), (960, 540), (960, 540), (960, 540), (960, 540), (960, 540), (960, 540), (960, 540), (960, 540), (960, 540), (960, 540), (960, 540), (960, 540), (960, 540), (960, 540), (960, 540), (960, 540), (960, 540), (962, 537), (967, 532), (972, 528), (978, 521), (1001, 501), (1015, 484), (1037, 455), (1053, 433), (1093, 369), (1103, 341), (1115, 310), (1125, 281), (1144, 232), (1155, 208), (1163, 193)]",300.32824920409814,"[2, 6, 1, 5, 8, 7, 9, 4, 3]","(0, 0.25)",ENG006C,ENG,C,English,Fri Aug 24 12:03:02 2018,Mouse
1,0,3,0,3,7,7,1,900,750,150,152,0,500,200,8000,"[(960, 540), (960, 540), (960, 540), (960, 540), (960, 540), (960, 540), (960, 540), (960, 540), (960, 540), (960, 540), (960, 540), (960, 540), (960, 540), (960, 540), (960, 540), (960, 540), (960, 540), (960, 540), (960, 540), (960, 540), (960, 540), (960, 540), (960, 540), (960, 540), (960, 540), (960, 540), (960, 540), (960, 540), (960, 540), (960, 540), (960, 540), (960, 540), (960, 540), (960, 540), (960, 540), (960, 540), (960, 540), (960, 540), (960, 540), (960, 540), (960, 540), (960, 540), (960, 540), (960, 540), (960, 540), (960, 540), (960, 540), (960, 540), (960, 540), (960, 540), (960, 540), (960, 540), (960, 540), (960, 540), (960, 540), (960, 540), (960, 540), (960, 540), (960, 540), (960, 540), (960, 540), (960, 540), (960, 540), (960, 540), (960, 540), (960, 540), (960, 540), (960, 540), (960, 540), (960, 540), (960, 540), (960, 540), (960, 540), (960, 540), (959, 540), (957, 540), (945, 531), (936, 524), (929, 518), (918, 509), (895, 492), (883, 484), (871, 475), (851, 457), (807, 420), (778, 394), (754, 370), (726, 339), (671, 282), (645, 260)]",221.6335393365702,"[2, 6, 1, 5, 8, 7, 9, 4, 3]","(0, 0.25)",ENG006C,ENG,C,English,Fri Aug 24 12:03:02 2018,Mouse
1,0,3,0,4,1,1,1,580,200,380,151,0,500,200,8000,"[(960, 540), (960, 540), (960, 540), (960, 540), (960, 540), (960, 540), (960, 540), (960, 540), (960, 540), (960, 540), (960, 540), (960, 540), (960, 540), (960, 540), (960, 540), (960, 540), (960, 540), (960, 540), (960, 540), (960, 542), (960, 549), (960, 560), (958, 568), (957, 576), (955, 585), (947, 608), (945, 620), (940, 634), (935, 654), (927, 681), (925, 695), (923, 710), (922, 724), (922, 752), (923, 769), (925, 783), (925, 797), (925, 817), (923, 827), (922, 834), (921, 844), (920, 862), (920, 871), (920, 882), (920, 890), (920, 904), (920, 908), (920, 913), (920, 916), (921, 919), (921, 920), (921, 921), (921, 922), (921, 926), (921, 930), (921, 933), (921, 936), (921, 944)]",95.51394254582497,"[2, 6, 1, 5, 8, 7, 9, 4, 3]","(0, 0.25)",ENG006C,ENG,C,English,Fri Aug 24 12:03:02 2018,Mouse
1,0,3,0,5,3,3,1,1110,950,160,150,0,500,200,8000,"[(960, 540), (960, 540), (960, 540), (960, 540), (960, 540), (960, 540), (960, 540), (960, 540), (960, 540), (960, 540), (960, 540), (960, 540), (960, 540), (960, 540), (960, 540), (960, 540), (960, 540), (960, 540), (960, 540), (960, 540), (960, 540), (960, 540), (960, 540), (960, 540), (960, 540), (960, 540), (960, 540), (960, 540), (960, 540), (960, 540), (960, 540), (960, 540), (960, 540), (960, 540), (960, 540), (960, 540), (960, 540), (960, 540), (960, 540), (960, 540), (960, 540), (960, 540), (960, 540), (960, 540), (960, 540), (960, 540), (960, 540), (960, 540), (960, 540), (960, 540), (960, 540), (960, 540), (960, 540), (960, 540), (960, 540), (960, 540), (960, 540), (960, 540), (960, 540), (960, 540), (960, 540), (960, 540), (960, 540), (960, 540), (960, 540), (960, 540), (960, 540), (960, 540), (960, 540), (960, 540), (960, 540), (960, 540), (960, 540), (960, 540), (960, 540), (960, 540), (960, 540), (960, 540), (960, 540), (960, 540), (960, 540), (960, 540), (960, 540), (960, 540), (960, 540), (960, 540), (960, 540), (960, 540), (960, 540), (960, 540), (960, 540), (960, 540), (960, 540), (960, 540), (972, 531), (982, 527), (992, 523), (1001, 519), (1024, 505), (1037, 500), (1049, 494), (1065, 489), (1106, 475), (1125, 469), (1148, 463), (1173, 455), (1229, 437), (1262, 428), (1296, 419), (1326, 411), (1393, 401)]",342.202530067475,"[2, 6, 1, 5, 8, 7, 9, 4, 3]","(0, 0.25)",ENG006C,ENG,C,English,Fri Aug 24 12:03:02 2018,Mouse
1,0,3,0,6,2,2,1,631,341,290,149,0,500,200,8000,"[(960, 540), (960, 540), (960, 540), (960, 540), (960, 540), (960, 540), (960, 540), (960, 540), (960, 540), (960, 540), (960, 540), (960, 540), (960, 540), (960, 540), (960, 540), (960, 540), (960, 540), (960, 540), (960, 540), (960, 540), (960, 540), (960, 540), (960, 540), (960, 540), (960, 540), (960, 540), (960, 540), (960, 540), (960, 540), (960, 540), (960, 540), (960, 540), (960, 540), (960, 540), (959, 540), (957, 544), (955, 549), (955, 550), (955, 551), (955, 554), (956, 556), (956, 557), (959, 561), (966, 571), (972, 577), (979, 584), (989, 592), (1012, 606), (1025, 613), (1037, 617), (1046, 621), (1071, 624), (1084, 627), (1099, 629), (1114, 632), (1141, 639), (1164, 647), (1183, 652), (1208, 657), (1253, 670), (1279, 675), (1303, 677), (1318, 679), (1348, 684)]",20.361603275386155,"[2, 6, 1, 5, 8, 7, 9, 4, 3]","(0, 0.25)",ENG006C,ENG,C,English,Fri Aug 24 12:03:02 2018,Mouse
1,0,3,0,7,6,6,1,709,409,300,148,0,500,200,8000,"[(960, 540), (960, 540), (960, 540), (960, 540), (960, 540), (960, 540), (960, 540), (960, 540), (960, 540), (960, 540), (960, 540), (960, 540), (960, 540), (960, 540), (960, 540), (960, 540), (960, 540), (960, 540), (960, 540), (960, 540), (960, 540), (960, 540), (960, 540), (960, 540), (960, 540), (960, 540), (960, 540), (960, 540), (960, 540), (960, 540), (960, 540), (960, 540), (960, 540), (960, 540), (960, 540), (960, 540), (960, 540), (960, 540), (960, 540), (960, 540), (961, 540), (966, 554), (968, 564), (972, 578), (976, 591), (979, 603), (985, 627), (990, 638), (996, 652), (1009, 685), (1017, 701), (1031, 723), (1037, 736), (1050, 759), (1055, 769), (1060, 777), (1064, 789), (1076, 810), (1082, 820), (1086, 829), (1090, 836), (1092, 841), (1095, 848), (1096, 850), (1096, 854), (1103, 870), (1107, 880), (1110, 889), (1114, 897), (1118, 907), (1124, 917)]",66.49032079892046,"[2, 6, 1, 5, 8, 7, 9, 4, 3]","(0, 0.25)",ENG006C,ENG,C,English,Fri Aug 24 12:03:02 2018,Mouse
1,0,3,0,8,5,5,1,680,530,150,147,0,500,200,8000,"[(960, 540), (960, 540), (960, 540), (960, 540), (960, 540), (960, 540), (960, 540), (960, 540), (960, 540), (960, 540), (960, 540), (960, 540), (960, 540), (960, 540), (960, 540), (960, 540), (960, 540), (960, 540), (960, 540), (960, 540), (960, 540), (960, 540), (960, 540), (960, 540), (960, 540), (960, 540), (960, 540), (960, 540), (960, 540), (960, 540), (960, 540), (960, 540), (960, 540), (960, 540), (960, 540), (960, 540), (960, 540), (960, 540), (960, 540), (960, 540), (960, 540), (960, 540), (960, 540), (960, 540), (960, 540), (960, 540), (960, 540), (960, 540), (960, 540), (960, 540), (960, 540), (960, 540), (958, 545), (940, 557), (909, 579), (891, 594), (873, 610), (853, 628), (814, 660), (791, 680), (767, 700), (747, 717), (716, 746), (701, 760), (690, 770), (681, 779), (663, 798), (654, 807)]",138.89370755509714,"[2, 6, 1, 5, 8, 7, 9, 4, 3]","(0, 0.25)",ENG006C,ENG,C,English,Fri Aug 24 12:03:02 2018,Mouse
1,0,3,0,9,8,8,1,891,391,500,146,0,500,200,8000,"[(960, 540), (960, 540), (960, 540), (960, 540), (960, 540), (960, 540), (960, 540), (960, 540), (960, 540), (960, 540), (960, 540), (960, 540), (960, 540), (960, 540), (960, 540), (960, 540), (960, 540), (960, 540), (960, 540), (960, 540), (960, 540), (960, 540), (960, 540), (960, 540), (960, 540), (960, 540), (960, 540), (960, 540), (960, 540), (960, 540), (960, 540), (960, 540), (960, 540), (960, 540), (960, 540), (960, 540), (960, 540), (960, 540), (960, 540), (960, 534), (960, 519), (959, 498), (948, 449), (944, 435), (941, 425), (941, 420), (941, 416), (941, 416), (941, 416), (941, 416), (941, 416), (941, 416), (941, 416), (941, 416), (941, 416), (941, 416), (941, 416), (941, 416), (941, 416), (941, 416), (941, 416), (941, 416), (941, 416), (941, 416), (940, 418), (936, 420), (930, 423), (926, 425), (920, 426), (917, 427), (902, 430), (896, 431), (892, 431), (886, 432), (870, 435), (858, 436), (842, 440), (829, 441), (794, 443), (780, 443), (765, 443), (750, 443), (718, 443), (696, 443), (676, 443), (648, 443), (605, 446), (593, 450), (576, 454), (559, 460)]",191.28245248595314,"[2, 6, 1, 5, 8, 7, 9, 4, 3]","(0, 0.25)",ENG006C,ENG,C,English,Fri Aug 24 12:03:02 2018,Mouse
1,0,3,0,10,6,6,1,1220,1060,160,145,0,500,200,8000,"[(960, 540), (960, 540), (960, 540), (960, 540), (960, 540), (960, 540), (960, 540), (960, 540), (960, 540), (960, 540), (960, 540), (960, 540), (960, 540), (960, 540), (960, 540), (960, 540), (960, 540), (960, 540), (960, 540), (960, 540), (960, 540), (960, 540), (960, 540), (960, 540), (960, 540), (960, 540), (960, 540), (960, 540), (960, 540), (960, 540), (960, 540), (960, 540), (960, 540), (960, 540), (960, 540), (960, 540), (960, 540), (960, 540), (960, 540), (960, 540), (960, 540), (960, 540), (960, 540), (960, 540), (960, 540), (960, 540), (960, 540), (960, 540), (960, 540), (960, 540), (960, 540), (960, 540), (960, 540), (960, 540), (960, 540), (960, 540), (960, 540), (960, 540), (960, 540), (960, 540), (960, 540), (960, 540), (960, 540), (960, 540), (960, 540), (960, 540), (960, 540), (960, 540), (960, 540), (960, 540), (960, 540), (960, 540), (960, 540), (960, 540), (960, 540), (960, 540), (960, 540), (960, 540), (960, 540), (960, 540), (960, 540), (960, 540), (960, 540), (960, 540), (960, 540), (960, 540), (960, 540), (960, 540), (960, 540), (960, 540), (960, 540), (960, 540), (960, 540), (960, 540), (960, 540), (960, 540), (960, 540), (960, 540), (960, 540), (960, 540), (960, 540), (960, 540), (960, 540), (960, 540), (960, 540), (960, 545), (961, 554), (973, 571), (977, 581), (983, 593), (986, 602), (996, 623), (1007, 640), (1020, 657), (1034, 675), (1072, 719), (1095, 748), (1118, 774), (1136, 797), (1172, 836), (1189, 854), (1205, 872)]",53.57446206920098,"[2, 6, 1, 5, 8, 7, 9, 4, 3]","(0, 0.25)",ENG006C,ENG,C,English,Fri Aug 24 12:03:02 2018,Mouse
1,0,3,0,11,2,2,1,640,390,250,144,0,500,200,8000,"[(960, 540), (960, 540), (960, 540), (960, 540), (960, 540), (960, 540), (960, 540), (960, 540), (960, 540), (960, 540), (960, 540), (960, 540), (960, 540), (960, 540), (960, 540), (960, 540), (960, 540), (960, 540), (960, 540), (960, 540), (960, 540), (960, 540), (960, 540), (960, 540), (960, 540), (960, 540), (960, 540), (960, 540), (960, 540), (960, 540), (960, 540), (960, 540), (960, 540), (960, 540), (960, 540), (960, 540), (960, 540), (960, 540), (958, 540), (958, 540), (958, 540), (958, 540), (968, 545), (978, 551), (997, 563), (1006, 567), (1017, 572), (1026, 575), (1046, 583), (1060, 586), (1074, 590), (1090, 595), (1126, 604), (1148, 612), (1173, 618), (1201, 626), (1249, 642), (1271, 648), (1289, 654), (1303, 658), (1325, 663), (1332, 667), (1339, 667), (1344, 667)]",18.300557092419414,"[2, 6, 1, 5, 8, 7, 9, 4, 3]","(0, 0.25)",ENG006C,ENG,C,English,Fri Aug 24 12:03:02 2018,Mouse
1,0,3,0,12,8,8,1,870,240,630,143,0,500,200,8000,"[(960, 540), (960, 540), (960, 540), (960, 540), (960, 540), (960, 540), (960, 540), (960, 540), (960, 540), (960, 540), (960, 540), (960, 540), (960, 540), (960, 540), (960, 540), (960, 540), (960, 540), (960, 540), (960, 540), (960, 540), (960, 540), (960, 540), (960, 540), (961, 541), (962, 541), (963, 541), (965, 542), (965, 542), (965, 542), (965, 542), (965, 542), (965, 542), (965, 542), (965, 542), (965, 542), (965, 542), (965, 542), (965, 541), (965, 541), (965, 539), (965, 539), (965, 539), (965, 539), (965, 539), (965, 539), (965, 539), (965, 539), (965, 539), (965, 539), (965, 539), (965, 539), (965, 539), (965, 539), (965, 539), (965, 539), (965, 539), (965, 539), (964, 538), (963, 538), (958, 536), (954, 535), (950, 535), (945, 534), (933, 533), (926, 532), (915, 531), (905, 529), (881, 527), (868, 523), (853, 522), (834, 521), (805, 517), (790, 515), (777, 513), (762, 513), (729, 513), (714, 513), (702, 513), (688, 513), (662, 514), (648, 515), (631, 519), (618, 520), (592, 525), (580, 526), (568, 527), (554, 529)]",181.5519690326724,"[2, 6, 1, 5, 8, 7, 9, 4, 3]","(0, 0.25)",ENG006C,ENG,C,English,Fri Aug 24 12:03:02 2018,Mouse
1,0,3,0,13,6,6,1,652,392,260,142,0,500,200,8000,"[(960, 540), (960, 540), (960, 540), (960, 540), (960, 540), (960, 540), (960, 540), (960, 540), (960, 540), (960, 540), (960, 540), (960, 540), (960, 540), (960, 540), (960, 540), (960, 540), (960, 540), (960, 540), (960, 540), (960, 540), (960, 540), (960, 540), (960, 540), (960, 540), (960, 540), (960, 540), (960, 540), (960, 540), (960, 540), (960, 540), (960, 540), (960, 540), (960, 540), (960, 540), (960, 540), (960, 540), (960, 540), (960, 540), (960, 540), (961, 554), (961, 566), (963, 579), (965, 588), (969, 601), (972, 618), (974, 627), (977, 639), (981, 656), (996, 692), (1003, 710), (1010, 723), (1030, 754), (1044, 769), (1057, 782), (1068, 792), (1094, 814), (1104, 823), (1113, 831), (1121, 838), (1131, 849), (1134, 852), (1136, 857), (1138, 862), (1145, 876), (1149, 886), (1153, 895)]",61.46875625365549,"[2, 6, 1, 5, 8, 7, 9, 4, 3]","(0, 0.25)",ENG006C,ENG,C,English,Fri Aug 24 12:03:02 2018,Mouse
1,0,3,0,14,4,4,1,1350,820,530,141,0,500,200,8000,"[(960, 540), (960, 540), (960, 540), (960, 540), (960, 540), (960, 540), (960, 540), (960, 540), (960, 540), (960, 540), (960, 540), (960, 540), (960, 540), (960, 540), (960, 540), (960, 540), (960, 540), (960, 540), (960, 540), (960, 540), (960, 540), (960, 540), (960, 540), (960, 540), (960, 540), (960, 540), (960, 540), (960, 540), (960, 540), (960, 540), (960, 540), (960, 540), (960, 540), (960, 540), (960, 540), (960, 540), (960, 540), (960, 540), (960, 540), (960, 540), (960, 540), (960, 540), (960, 540), (960, 540), (960, 540), (960, 540), (960, 540), (960, 540), (960, 540), (960, 540), (960, 540), (960, 540), (960, 540), (960, 540), (960, 540), (960, 540), (960, 540), (960, 540), (960, 540), (960, 540), (960, 540), (960, 540), (960, 540), (960, 540), (960, 540), (960, 540), (960, 540), (960, 540), (960, 540), (960, 540), (960, 540), (960, 540), (960, 540), (960, 540), (960, 540), (960, 540), (960, 540), (960, 540), (960, 540), (960, 540), (960, 540), (960, 539), (960, 538), (960, 538), (960, 538), (960, 538), (960, 538), (959, 538), (959, 538), (959, 538), (959, 538), (959, 538), (959, 538), (959, 538), (959, 538), (959, 538), (959, 538), (959, 538), (959, 538), (959, 538), (959, 538), (959, 538), (959, 538), (959, 538), (959, 538), (959, 538), (959, 538), (959, 538), (959, 538), (959, 538), (959, 538), (959, 538), (959, 538), (959, 538), (959, 538), (959, 538), (959, 538), (959, 538), (959, 535), (961, 531), (963, 526), (968, 515), (974, 506), (978, 494), (989, 477), (1026, 419), (1049, 390), (1074, 363), (1098, 343), (1142, 306), (1159, 291), (1177, 276), (1188, 264), (1205, 241), (1213, 229)]",309.1285205755964,"[2, 6, 1, 5, 8, 7, 9, 4, 3]","(0, 0.25)",ENG006C,ENG,C,English,Fri Aug 24 12:03:02 2018,Mouse
1,0,3,0,15,3,3,1,1470,220,1250,140,0,500,200,8000,"[(960, 540), (960, 540), (960, 540), (960, 540), (960, 540), (960, 540), (960, 540), (960, 540), (960, 540), (960, 540), (960, 540), (960, 540), (960, 540), (960, 540), (960, 540), (960, 540), (960, 540), (960, 540), (960, 540), (960, 540), (960, 540), (953, 543), (947, 545), (942, 548), (939, 549), (935, 551), (934, 552), (931, 553), (931, 554), (930, 555), (930, 556), (930, 557), (930, 558), (930, 559), (930, 560), (930, 561), (930, 563), (930, 564), (930, 566), (930, 566), (930, 566), (930, 567), (930, 567), (930, 567), (930, 567), (930, 567), (930, 567), (930, 569), (930, 569), (930, 569), (930, 571), (930, 571), (930, 571), (930, 571), (930, 571), (930, 571), (930, 571), (930, 571), (930, 571), (930, 571), (930, 571), (930, 571), (930, 571), (930, 571), (930, 571), (930, 571), (930, 571), (930, 571), (930, 571), (929, 571), (928, 571), (928, 571), (928, 571), (926, 571), (925, 571), (925, 571), (925, 571), (925, 571), (925, 571), (925, 571), (924, 571), (922, 567), (921, 567), (920, 565), (920, 565), (919, 565), (918, 565), (916, 565), (916, 565), (916, 565), (916, 565), (916, 565), (916, 565), (916, 565), (916, 565), (915, 565), (915, 565), (915, 565), (915, 565), (915, 565), (915, 565), (915, 565), (915, 565), (913, 565), (913, 565), (913, 565), (913, 565), (913, 565), (913, 565), (922, 563), (934, 561), (948, 559), (959, 556), (985, 545), (996, 542), (1007, 536), (1024, 530), (1050, 519), (1061, 516), (1074, 512), (1084, 509), (1107, 503), (1117, 501), (1129, 497), (1143, 491), (1167, 480), (1182, 474), (1199, 468), (1212, 463), (1233, 454), (1240, 451), (1250, 449), (1256, 447), (1270, 445), (1276, 444), (1279, 441), (1287, 439), (1300, 431), (1306, 425), (1314, 420), (1318, 416), (1326, 408), (1330, 406), (1332, 405), (1333, 405), (1335, 403), (1336, 403)]",339.9801967840275,"[2, 6, 1, 5, 8, 7, 9, 4, 3]","(0, 0.25)",ENG006C,ENG,C,English,Fri Aug 24 12:03:02 2018,Mouse
1,0,3,0,16,1,1,1,611,271,340,139,0,500,200,8000,"[(960, 540), (960, 540), (960, 540), (960, 540), (960, 540), (960, 540), (960, 540), (960, 540), (960, 540), (960, 540), (960, 540), (960, 540), (960, 540), (960, 540), (960, 540), (960, 540), (960, 540), (960, 540), (960, 540), (960, 540), (960, 540), (960, 540), (960, 540), (960, 540), (960, 540), (960, 540), (960, 540), (960, 541), (961, 543), (965, 543), (972, 549), (973, 552), (973, 559), (973, 567), (972, 589), (971, 606), (965, 625), (958, 648), (944, 696), (936, 721), (932, 740), (926, 760), (920, 787), (919, 798), (917, 809), (916, 820), (914, 838), (911, 847), (910, 854), (906, 863), (901, 878), (899, 886), (898, 890), (896, 895), (895, 904), (895, 908), (895, 911), (895, 915), (895, 923), (894, 928), (893, 934), (892, 938)]",99.69560992338243,"[2, 6, 1, 5, 8, 7, 9, 4, 3]","(0, 0.25)",ENG006C,ENG,C,English,Fri Aug 24 12:03:02 2018,Mouse
1,0,3,0,17,8,8,1,570,220,350,138,0,500,200,8000,"[(960, 540), (960, 540), (960, 540), (960, 540), (960, 540), (960, 540), (960, 540), (960, 540), (960, 540), (960, 540), (960, 540), (960, 540), (960, 540), (960, 540), (960, 540), (960, 540), (960, 540), (960, 540), (960, 540), (960, 540), (960, 540), (960, 538), (958, 538), (951, 532), (948, 530), (944, 527), (942, 526), (936, 523), (930, 521), (924, 520), (917, 517), (901, 515), (893, 515), (887, 513), (881, 513), (866, 513), (857, 513), (847, 513), (835, 513), (808, 513), (794, 513), (781, 513), (769, 513), (744, 513), (731, 513), (719, 513), (708, 513), (687, 513), (679, 513), (669, 513), (659, 513), (635, 513), (623, 513), (608, 513), (594, 513), (566, 513), (552, 513)]",183.78611203538156,"[2, 6, 1, 5, 8, 7, 9, 4, 3]","(0, 0.25)",ENG006C,ENG,C,English,Fri Aug 24 12:03:02 2018,Mouse
1,0,3,0,18,6,6,1,1150,650,500,137,0,500,200,8000,"[(960, 540), (960, 540), (960, 540), (960, 540), (960, 540), (960, 540), (960, 540), (960, 540), (960, 540), (960, 540), (960, 540), (960, 540), (960, 540), (960, 540), (960, 540), (960, 540), (960, 540), (960, 540), (960, 540), (960, 540), (960, 540), (960, 540), (960, 540), (960, 540), (960, 540), (960, 540), (960, 540), (960, 540), (960, 540), (960, 540), (960, 540), (960, 540), (960, 540), (960, 540), (960, 540), (960, 540), (960, 540), (960, 540), (960, 540), (960, 540), (960, 540), (960, 540), (960, 540), (960, 540), (960, 540), (960, 540), (960, 540), (960, 540), (960, 540), (960, 540), (960, 540), (960, 540), (960, 540), (960, 540), (960, 540), (960, 540), (960, 540), (960, 540), (960, 540), (960, 540), (960, 540), (960, 540), (960, 540), (960, 540), (960, 542), (960, 549), (960, 551), (960, 554), (960, 557), (962, 562), (963, 567), (964, 570), (967, 576), (972, 589), (975, 596), (979, 605), (985, 613), (993, 630), (996, 637), (1003, 646), (1009, 653), (1017, 662), (1021, 666), (1025, 670), (1031, 675), (1041, 683), (1045, 690), (1047, 695), (1051, 701), (1055, 712), (1057, 718), (1060, 724), (1062, 728), (1065, 738), (1068, 744), (1069, 748), (1071, 757), (1074, 767), (1078, 776), (1082, 783), (1085, 790), (1092, 809), (1095, 815), (1099, 822), (1102, 828), (1108, 840), (1112, 847), (1115, 854), (1117, 860), (1123, 873), (1126, 880), (1128, 886), (1133, 895), (1135, 899), (1137, 904)]",64.06802559435314,"[2, 6, 1, 5, 8, 7, 9, 4, 3]","(0, 0.25)",ENG006C,ENG,C,English,Fri Aug 24 12:03:02 2018,Mouse
1,0,3,0,19,9,9,1,730,320,410,136,0,500,200,8000,"[(960, 539), (960, 539), (960, 539), (960, 539), (960, 539), (960, 539), (960, 539), (960, 539), (960, 539), (960, 539), (960, 539), (960, 539), (960, 539), (960, 539), (960, 539), (960, 539), (960, 539), (960, 539), (960, 539), (960, 539), (960, 539), (960, 539), (960, 539), (960, 539), (960, 539), (960, 539), (960, 539), (960, 539), (960, 539), (960, 539), (960, 539), (958, 538), (958, 538), (958, 538), (958, 538), (958, 537), (958, 536), (957, 535), (957, 534), (957, 533), (956, 533), (955, 531), (954, 530), (954, 530), (954, 529), (954, 527), (954, 524), (954, 522), (954, 519), (954, 510), (954, 503), (954, 496), (956, 486), (958, 465), (960, 452), (960, 439), (960, 424), (956, 391), (953, 375), (949, 358), (948, 343), (948, 315), (948, 300), (948, 285), (947, 268), (943, 241), (942, 226), (940, 211), (936, 192), (929, 167), (928, 157), (925, 146), (925, 140)]",264.99935540244155,"[2, 6, 1, 5, 8, 7, 9, 4, 3]","(0, 0.25)",ENG006C,ENG,C,English,Fri Aug 24 12:03:02 2018,Mouse
1,0,3,0,20,6,6,1,1580,190,1390,135,0,500,200,8000,"[(960, 540), (960, 540), (960, 540), (960, 540), (960, 540), (960, 540), (960, 540), (960, 540), (960, 540), (960, 540), (960, 540), (960, 540), (960, 540), (960, 540), (960, 540), (960, 540), (960, 540), (960, 540), (959, 542), (957, 549), (955, 554), (953, 557), (949, 562), (944, 569), (941, 572), (939, 574), (935, 578), (926, 588), (922, 593), (916, 600), (912, 604), (906, 612), (903, 616), (901, 618), (901, 618), (899, 619), (899, 619), (899, 619), (899, 619), (899, 619), (899, 619), (899, 619), (899, 619), (899, 619), (899, 619), (898, 619), (897, 619), (894, 616), (894, 614), (892, 613), (892, 612), (890, 610), (888, 609), (887, 608), (887, 608), (887, 608), (887, 608), (887, 608), (887, 608), (887, 608), (887, 608), (887, 608), (887, 608), (887, 608), (887, 608), (887, 608), (887, 608), (887, 608), (887, 608), (887, 608), (887, 608), (887, 608), (887, 608), (887, 608), (887, 608), (887, 608), (888, 608), (889, 608), (890, 608), (895, 607), (897, 607), (900, 604), (905, 603), (919, 598), (929, 595), (938, 593), (949, 590), (966, 584), (969, 584), (974, 582), (979, 580), (986, 577), (989, 577), (992, 577), (993, 576), (995, 575), (996, 575), (996, 575), (996, 575), (996, 575), (996, 575), (996, 575), (996, 575), (996, 575), (996, 575), (996, 575), (996, 575), (996, 575), (996, 575), (996, 576), (996, 578), (996, 580), (996, 581), (996, 582), (996, 585), (995, 589), (994, 593), (992, 597), (992, 598), (991, 602), (991, 605), (989, 608), (989, 609), (989, 618), (988, 623), (988, 629), (987, 636), (987, 652), (987, 663), (989, 677), (995, 687), (1003, 708), (1007, 722), (1013, 733), (1017, 744), (1024, 759), (1026, 766), (1030, 773), (1033, 780), (1039, 796), (1045, 805), (1047, 810), (1052, 819), (1065, 834), (1069, 839), (1076, 844), (1082, 849), (1093, 858), (1100, 863), (1105, 864), (1111, 869), (1122, 874), (1126, 878), (1132, 881), (1135, 884), (1144, 890), (1145, 892), (1148, 894)]",62.02841541861858,"[2, 6, 1, 5, 8, 7, 9, 4, 3]","(0, 0.25)",ENG006C,ENG,C,English,Fri Aug 24 12:03:02 2018,Mouse
1,0,3,0,21,3,8,0,-571,231,340,134,0,500,200,8000,"[(960, 540), (960, 540), (960, 540), (960, 540), (960, 540), (960, 540), (960, 540), (960, 540), (960, 540), (960, 540), (960, 540), (960, 540), (960, 540), (960, 540), (960, 540), (960, 540), (960, 540), (960, 540), (960, 540), (960, 540), (960, 540), (960, 540), (960, 540), (959, 540), (958, 540), (958, 540), (958, 540), (958, 540), (958, 540), (958, 540), (958, 540), (958, 540), (958, 540), (958, 540), (958, 540), (958, 540), (958, 540), (957, 540), (956, 540), (954, 540), (951, 540), (946, 540), (940, 540), (933, 540), (925, 540), (901, 539), (887, 535), (864, 533), (838, 529), (782, 523), (760, 523), (728, 518), (693, 513), (639, 511), (617, 511), (600, 511), (583, 511), (551, 511)]",184.05574930421992,"[2, 6, 1, 5, 8, 7, 9, 4, 3]","(0, 0.25)",ENG006C,ENG,C,English,Fri Aug 24 12:03:02 2018,Mouse
1,0,3,0,22,7,7,1,430,70,360,135,0,500,200,8000,"[(960, 540), (960, 540), (960, 540), (960, 540), (960, 540), (960, 540), (959, 540), (959, 540), (959, 540), (959, 540), (959, 540), (959, 540), (959, 540), (959, 540), (959, 540), (959, 540), (959, 540), (959, 540), (959, 540), (959, 540), (959, 540), (959, 540), (959, 540), (959, 540), (959, 540), (959, 540), (959, 540), (959, 540), (959, 540), (959, 540), (958, 538), (952, 529), (945, 518), (937, 508), (919, 483), (904, 465), (889, 447), (871, 424), (828, 365), (797, 331), (768, 303), (737, 277), (680, 237)]",227.2592107968365,"[2, 6, 1, 5, 8, 7, 9, 4, 3]","(0, 0.25)",ENG006C,ENG,C,English,Fri Aug 24 12:03:02 2018,Mouse
1,0,3,0,23,8,8,1,941,71,870,135,0,500,200,8000,"[(960, 540), (960, 540), (960, 540), (960, 540), (960, 540), (960, 540), (960, 540), (956, 546), (953, 549), (951, 551), (950, 552), (947, 554), (944, 557), (944, 557), (942, 558), (940, 559), (940, 559), (940, 559), (940, 559), (940, 559), (940, 559), (940, 559), (940, 559), (940, 559), (940, 559), (940, 559), (940, 559), (940, 559), (940, 559), (940, 559), (940, 559), (939, 560), (939, 560), (939, 560), (939, 560), (939, 560), (939, 560), (939, 560), (939, 560), (939, 560), (939, 560), (939, 560), (939, 560), (938, 560), (937, 560), (936, 561), (936, 561), (934, 563), (932, 564), (932, 564), (930, 565), (927, 568), (927, 569), (923, 571), (918, 574), (908, 582), (902, 586), (897, 591), (888, 596), (875, 604), (869, 607), (868, 607), (865, 607), (865, 607), (865, 607), (865, 607), (865, 607), (865, 607), (865, 607), (865, 606), (865, 606), (863, 603), (862, 603), (861, 603), (859, 602), (856, 599), (853, 598), (849, 595), (843, 591), (826, 584), (814, 581), (802, 577), (788, 577), (761, 577), (746, 577), (730, 577), (710, 577), (676, 577), (661, 577), (647, 577), (632, 577), (598, 577), (585, 577), (571, 577), (560, 574)]",175.14153708096572,"[2, 6, 1, 5, 8, 7, 9, 4, 3]","(0, 0.25)",ENG006C,ENG,C,English,Fri Aug 24 12:03:02 2018,Mouse
1,0,3,0,24,5,7,0,-1231,961,270,134,0,500,200,8000,"[(960, 540), (960, 540), (960, 540), (960, 540), (960, 540), (960, 540), (960, 540), (960, 540), (960, 540), (960, 540), (960, 540), (960, 540), (960, 540), (960, 540), (960, 540), (960, 540), (960, 540), (960, 540), (960, 540), (960, 540), (960, 540), (960, 540), (960, 540), (960, 540), (960, 540), (960, 540), (960, 540), (960, 540), (960, 540), (960, 540), (960, 540), (960, 540), (960, 540), (960, 540), (960, 540), (960, 540), (960, 540), (960, 540), (960, 540), (960, 540), (960, 540), (960, 540), (960, 540), (960, 540), (960, 540), (960, 540), (960, 540), (960, 540), (960, 540), (960, 540), (960, 540), (960, 540), (960, 540), (960, 540), (960, 540), (960, 540), (960, 540), (960, 540), (960, 540), (960, 540), (960, 540), (960, 540), (960, 540), (960, 540), (960, 540), (960, 540), (960, 540), (960, 540), (960, 540), (960, 540), (960, 540), (960, 540), (960, 540), (960, 540), (960, 540), (960, 540), (960, 540), (960, 540), (960, 540), (960, 540), (960, 540), (960, 540), (960, 540), (960, 540), (960, 540), (960, 540), (960, 540), (960, 540), (960, 540), (960, 540), (960, 540), (960, 540), (960, 540), (960, 540), (960, 540), (960, 538), (960, 537), (959, 536), (957, 530), (953, 523), (947, 515), (940, 506), (917, 485), (905, 475), (897, 465), (887, 454), (860, 426), (840, 403), (821, 384), (805, 369), (775, 342), (764, 333), (757, 326), (750, 319), (740, 306), (734, 302), (729, 297), (722, 291), (706, 279), (698, 272), (692, 268), (687, 264), (676, 256)]",225.0,"[2, 6, 1, 5, 8, 7, 9, 4, 3]","(0, 0.25)",ENG006C,ENG,C,English,Fri Aug 24 12:03:02 2018,Mouse
1,0,3,0,25,7,7,1,430,160,270,135,0,500,200,8000,"[(960, 540), (960, 540), (960, 540), (960, 540), (960, 540), (960, 540), (960, 540), (960, 540), (960, 540), (960, 540), (960, 540), (960, 540), (960, 540), (960, 540), (960, 540), (956, 540), (953, 539), (949, 536), (945, 534), (929, 527), (919, 523), (907, 517), (894, 511), (868, 497), (854, 488), (841, 480), (829, 473), (802, 456), (785, 445), (774, 438), (761, 431), (739, 416), (727, 408), (720, 402), (706, 392), (689, 374), (682, 363), (676, 353), (671, 341), (661, 318), (659, 307), (651, 294), (646, 283)]",219.29934197242557,"[2, 6, 1, 5, 8, 7, 9, 4, 3]","(0, 0.25)",ENG006C,ENG,C,English,Fri Aug 24 12:03:02 2018,Mouse
1,0,3,0,26,2,7,0,-470,320,150,135,0,500,200,8000,"[(960, 540), (960, 540), (960, 540), (960, 540), (960, 540), (960, 540), (960, 540), (960, 540), (960, 540), (960, 540), (960, 540), (960, 540), (960, 540), (960, 540), (960, 540), (960, 540), (960, 540), (960, 540), (960, 540), (960, 540), (960, 540), (960, 540), (960, 540), (960, 540), (960, 540), (960, 540), (960, 540), (960, 540), (960, 540), (960, 540), (960, 540), (955, 538), (949, 536), (939, 534), (928, 529), (899, 508), (881, 489), (862, 471), (841, 451), (804, 414), (783, 395), (768, 377), (751, 356), (720, 327), (701, 308), (678, 288), (657, 271)]",221.5983093064663,"[2, 6, 1, 5, 8, 7, 9, 4, 3]","(0, 0.25)",ENG006C,ENG,C,English,Fri Aug 24 12:03:02 2018,Mouse
1,0,3,0,27,3,8,0,-531,121,410,136,0,500,200,8000,"[(960, 540), (960, 540), (960, 540), (960, 540), (960, 540), (960, 540), (960, 540), (960, 540), (960, 540), (960, 540), (960, 540), (960, 540), (959, 540), (957, 540), (956, 540), (954, 541), (953, 541), (953, 541), (952, 541), (950, 541), (948, 541), (946, 541), (945, 541), (943, 541), (938, 541), (935, 541), (934, 541), (931, 541), (925, 541), (921, 541), (916, 543), (914, 543), (907, 544), (904, 544), (898, 545), (894, 545), (875, 545), (864, 545), (855, 545), (841, 545), (811, 545), (791, 545), (766, 545), (749, 545), (701, 545), (684, 545), (671, 545), (657, 545), (633, 546), (618, 546), (604, 548), (589, 548), (565, 548), (552, 549)]",178.73632744834174,"[2, 6, 1, 5, 8, 7, 9, 4, 3]","(0, 0.25)",ENG006C,ENG,C,English,Fri Aug 24 12:03:02 2018,Mouse
1,0,3,0,28,6,6,1,940,410,530,137,0,500,200,8000,"[(960, 540), (960, 540), (960, 540), (960, 540), (960, 540), (960, 540), (960, 540), (960, 540), (960, 540), (960, 540), (960, 540), (960, 540), (960, 540), (960, 540), (960, 540), (960, 540), (960, 540), (960, 540), (960, 540), (960, 540), (960, 540), (960, 540), (960, 540), (960, 540), (960, 540), (960, 540), (960, 540), (960, 540), (960, 540), (960, 540), (960, 540), (960, 540), (960, 540), (960, 540), (960, 540), (960, 540), (960, 540), (960, 540), (960, 540), (960, 540), (961, 540), (959, 544), (957, 546), (955, 549), (952, 550), (950, 552), (949, 553), (949, 554), (949, 554), (948, 555), (948, 556), (948, 558), (948, 561), (949, 566), (951, 569), (954, 577), (957, 580), (963, 591), (964, 596), (969, 602), (974, 611), (988, 627), (997, 639), (1006, 649), (1015, 659), (1032, 683), (1042, 695), (1049, 703), (1056, 712), (1066, 724), (1071, 729), (1075, 733), (1080, 741), (1086, 749), (1089, 755), (1091, 760), (1094, 766), (1099, 776), (1100, 783), (1101, 789), (1104, 795), (1110, 811), (1113, 820), (1116, 827), (1121, 836), (1127, 848), (1131, 854), (1133, 857), (1136, 862), (1140, 867), (1142, 871), (1144, 874), (1148, 879), (1156, 890)]",60.751173663453024,"[2, 6, 1, 5, 8, 7, 9, 4, 3]","(0, 0.25)",ENG006C,ENG,C,English,Fri Aug 24 12:03:02 2018,Mouse
1,0,3,0,29,5,5,1,991,681,310,137,0,500,200,8000,"[(960, 540), (960, 540), (960, 540), (960, 540), (960, 540), (960, 540), (960, 540), (960, 540), (960, 540), (960, 540), (960, 540), (960, 540), (960, 540), (960, 540), (960, 540), (960, 540), (960, 540), (960, 540), (960, 540), (960, 540), (960, 540), (960, 540), (960, 540), (960, 540), (960, 540), (960, 540), (960, 540), (960, 540), (960, 540), (960, 540), (960, 540), (960, 540), (960, 540), (960, 540), (960, 540), (960, 540), (960, 540), (960, 540), (960, 540), (960, 540), (960, 540), (960, 540), (960, 540), (960, 540), (960, 540), (960, 540), (960, 540), (960, 540), (960, 540), (960, 540), (960, 540), (960, 540), (960, 540), (960, 540), (960, 540), (960, 540), (960, 540), (960, 540), (960, 540), (960, 540), (960, 540), (960, 540), (960, 540), (960, 540), (960, 540), (960, 540), (960, 540), (960, 540), (959, 540), (959, 541), (957, 542), (953, 544), (952, 545), (952, 546), (950, 548), (946, 550), (945, 551), (943, 553), (940, 556), (929, 564), (921, 569), (911, 576), (902, 583), (877, 598), (868, 605), (857, 612), (845, 619), (829, 630), (824, 635), (816, 642), (813, 646), (805, 658), (801, 666), (793, 676), (782, 690), (751, 724), (730, 741), (709, 760), (686, 778), (654, 804)]",139.21417852273404,"[2, 6, 1, 5, 8, 7, 9, 4, 3]","(0, 0.25)",ENG006C,ENG,C,English,Fri Aug 24 12:03:02 2018,Mouse
1,0,3,0,30,5,5,1,342,62,280,136,0,500,200,8000,"[(960, 540), (960, 540), (960, 540), (960, 540), (960, 540), (960, 540), (951, 543), (945, 546), (938, 549), (932, 553), (924, 558), (909, 567), (899, 573), (889, 580), (863, 595), (849, 604), (830, 614), (816, 623), (805, 631), (786, 648), (776, 658), (770, 667), (755, 688), (748, 696), (742, 704), (736, 712), (730, 719), (717, 732), (709, 739), (701, 746), (692, 753), (672, 770), (660, 781), (653, 787), (636, 802)]",141.03954198916355,"[2, 6, 1, 5, 8, 7, 9, 4, 3]","(0, 0.25)",ENG006C,ENG,C,English,Fri Aug 24 12:03:02 2018,Mouse
1,0,3,0,31,2,2,1,1288,1088,200,135,0,500,200,8000,"[(960, 540), (960, 540), (960, 540), (960, 540), (960, 540), (960, 540), (960, 540), (960, 540), (960, 540), (960, 540), (960, 540), (960, 540), (960, 540), (960, 540), (960, 540), (960, 540), (960, 540), (960, 540), (960, 540), (960, 540), (960, 540), (960, 540), (960, 540), (960, 540), (960, 540), (960, 540), (960, 540), (960, 540), (960, 540), (960, 540), (960, 540), (960, 540), (960, 540), (960, 540), (960, 540), (960, 540), (960, 540), (960, 540), (960, 540), (960, 540), (960, 540), (960, 540), (960, 540), (960, 540), (960, 540), (960, 540), (960, 540), (960, 540), (960, 540), (960, 540), (960, 540), (960, 540), (960, 540), (960, 540), (960, 540), (960, 540), (960, 540), (960, 540), (960, 540), (960, 540), (960, 540), (960, 540), (960, 540), (960, 540), (960, 540), (960, 540), (960, 540), (960, 540), (960, 540), (960, 540), (960, 540), (960, 540), (960, 540), (960, 540), (960, 540), (960, 540), (960, 540), (960, 540), (960, 540), (960, 540), (960, 540), (960, 540), (960, 540), (960, 540), (960, 540), (960, 540), (960, 540), (960, 540), (960, 540), (960, 540), (960, 540), (960, 540), (960, 540), (960, 540), (960, 540), (960, 540), (960, 540), (960, 540), (960, 540), (960, 540), (960, 540), (960, 540), (960, 540), (960, 540), (960, 540), (960, 540), (960, 540), (960, 540), (961, 540), (969, 541), (983, 544), (1012, 552), (1027, 559), (1046, 563), (1070, 574), (1120, 590), (1149, 600), (1169, 607), (1186, 612), (1217, 621), (1228, 624), (1238, 627), (1249, 630), (1271, 637), (1284, 639), (1299, 643), (1315, 645), (1344, 651), (1355, 654)]",16.09854162244757,"[2, 6, 1, 5, 8, 7, 9, 4, 3]","(0, 0.25)",ENG006C,ENG,C,English,Fri Aug 24 12:03:02 2018,Mouse
1,0,3,0,32,6,6,1,2271,1421,850,134,0,500,200,8000,"[(960, 540), (960, 540), (960, 540), (960, 540), (960, 540), (960, 540), (960, 540), (960, 540), (960, 540), (960, 540), (960, 540), (960, 540), (960, 540), (960, 540), (960, 540), (960, 540), (960, 540), (960, 540), (960, 540), (960, 540), (960, 540), (960, 540), (960, 540), (960, 540), (960, 540), (960, 540), (960, 540), (960, 540), (960, 540), (960, 540), (960, 540), (960, 540), (960, 540), (960, 540), (960, 540), (960, 540), (960, 540), (960, 540), (960, 540), (960, 540), (960, 540), (960, 540), (960, 540), (960, 540), (960, 540), (960, 540), (960, 540), (960, 540), (960, 540), (960, 540), (960, 540), (960, 540), (960, 540), (960, 540), (960, 540), (960, 540), (960, 540), (960, 540), (960, 540), (960, 540), (960, 540), (960, 540), (960, 540), (960, 540), (960, 540), (960, 540), (960, 540), (960, 540), (960, 540), (960, 540), (960, 540), (960, 540), (960, 540), (960, 540), (960, 540), (960, 540), (960, 540), (960, 540), (960, 540), (960, 540), (960, 540), (960, 540), (960, 540), (960, 540), (960, 540), (960, 540), (960, 540), (960, 540), (960, 540), (960, 540), (960, 540), (960, 540), (960, 540), (960, 540), (960, 540), (960, 540), (960, 540), (960, 540), (960, 540), (960, 540), (960, 540), (960, 540), (960, 540), (960, 540), (960, 540), (960, 540), (960, 540), (960, 540), (960, 540), (960, 540), (960, 540), (960, 540), (960, 540), (960, 540), (960, 540), (960, 540), (960, 540), (960, 540), (960, 540), (960, 540), (960, 540), (960, 540), (960, 540), (960, 540), (960, 540), (960, 540), (960, 540), (960, 540), (960, 540), (960, 540), (960, 540), (960, 540), (960, 540), (960, 540), (960, 540), (960, 540), (960, 540), (960, 540), (960, 540), (960, 540), (960, 540), (960, 540), (957, 537), (955, 537), (954, 537), (952, 537), (949, 537), (947, 537), (944, 537), (940, 537), (929, 537), (922, 537), (913, 537), (903, 537), (876, 534), (857, 530), (840, 525), (826, 521), (802, 510), (791, 505), (781, 498), (772, 493), (762, 485), (761, 484), (761, 484), (761, 484), (761, 484), (761, 484), (761, 484), (761, 484), (761, 484), (761, 484), (761, 484), (761, 484), (761, 484), (761, 484), (760, 483), (760, 483), (760, 482), (760, 482), (760, 482), (760, 482), (760, 482), (760, 482), (760, 482), (760, 482), (762, 482), (763, 482), (764, 482), (766, 483), (773, 488), (778, 493), (787, 501), (795, 509), (814, 529), (828, 544), (839, 557), (848, 566), (870, 582), (879, 591), (889, 599), (901, 608), (912, 620), (917, 625), (921, 631), (923, 634), (928, 643), (929, 646), (930, 648), (931, 652), (936, 664), (940, 671), (944, 678), (950, 684), (963, 703), (971, 715), (981, 728), (987, 740), (1003, 765), (1008, 778), (1015, 789), (1022, 800), (1039, 826), (1046, 840), (1058, 857), (1066, 868), (1089, 902), (1102, 920)]",69.51007798188935,"[2, 6, 1, 5, 8, 7, 9, 4, 3]","(0, 0.25)",ENG006C,ENG,C,English,Fri Aug 24 12:03:02 2018,Mouse
1,0,3,0,33,5,8,0,-649,429,220,133,0,500,200,8000,"[(960, 540), (960, 540), (960, 540), (960, 540), (960, 540), (960, 540), (960, 540), (960, 540), (960, 540), (960, 540), (960, 540), (960, 540), (960, 540), (960, 540), (960, 540), (960, 540), (960, 540), (960, 540), (960, 540), (960, 540), (960, 540), (960, 540), (960, 540), (960, 540), (960, 540), (960, 540), (960, 540), (960, 540), (960, 540), (960, 540), (960, 540), (960, 540), (960, 540), (960, 540), (960, 540), (960, 540), (960, 540), (960, 540), (960, 540), (960, 540), (960, 540), (960, 540), (958, 538), (952, 537), (948, 536), (936, 533), (932, 533), (928, 533), (922, 533), (908, 535), (896, 537), (885, 538), (871, 538), (845, 538), (827, 538), (802, 538), (782, 538), (740, 538), (714, 536), (684, 533), (665, 533), (612, 533), (587, 533), (561, 533), (539, 533)]",180.95257364080047,"[2, 6, 1, 5, 8, 7, 9, 4, 3]","(0, 0.25)",ENG006C,ENG,C,English,Fri Aug 24 12:03:02 2018,Mouse
1,0,3,0,34,3,9,0,-730,370,360,134,0,500,200,8000,"[(960, 540), (960, 540), (960, 540), (960, 540), (960, 540), (960, 540), (960, 540), (960, 540), (960, 540), (960, 540), (960, 540), (960, 540), (960, 540), (960, 540), (960, 540), (960, 540), (960, 540), (960, 540), (960, 540), (960, 540), (960, 540), (960, 540), (960, 540), (960, 540), (960, 540), (960, 540), (960, 540), (960, 540), (960, 540), (960, 540), (960, 540), (960, 540), (960, 540), (960, 540), (960, 540), (960, 540), (959, 538), (954, 538), (950, 537), (949, 537), (949, 537), (949, 537), (949, 537), (948, 531), (949, 524), (951, 522), (951, 520), (952, 519), (952, 519), (952, 519), (952, 519), (952, 519), (952, 519), (952, 519), (952, 519), (952, 519), (952, 519), (952, 519), (952, 519), (952, 517), (954, 513), (954, 510), (955, 502), (955, 475), (955, 455), (955, 427), (955, 393), (955, 321), (953, 287), (944, 253), (935, 220), (918, 151), (909, 123)]",263.02723071397355,"[2, 6, 1, 5, 8, 7, 9, 4, 3]","(0, 0.25)",ENG006C,ENG,C,English,Fri Aug 24 12:03:02 2018,Mouse
1,0,3,0,35,1,1,1,611,321,290,135,0,500,200,8000,"[(960, 540), (960, 540), (960, 540), (960, 540), (960, 540), (960, 540), (960, 540), (960, 540), (960, 540), (960, 540), (960, 540), (960, 540), (960, 540), (960, 540), (960, 540), (960, 540), (960, 540), (960, 540), (960, 540), (960, 540), (960, 540), (960, 540), (960, 540), (960, 540), (960, 540), (960, 540), (960, 540), (960, 540), (960, 540), (960, 540), (960, 540), (960, 540), (960, 541), (960, 542), (960, 550), (960, 555), (960, 563), (959, 570), (954, 591), (953, 605), (948, 621), (942, 641), (933, 672), (931, 689), (928, 710), (924, 735), (924, 774), (920, 788), (915, 802), (912, 815), (909, 838), (906, 849), (906, 859), (906, 869), (905, 887), (904, 897), (903, 907), (903, 912), (901, 922), (901, 929), (901, 934), (901, 939)]",98.4113556747385,"[2, 6, 1, 5, 8, 7, 9, 4, 3]","(0, 0.25)",ENG006C,ENG,C,English,Fri Aug 24 12:03:02 2018,Mouse
1,0,3,0,36,8,8,1,2070,1970,100,135,0,500,200,8000,"[(960, 540), (960, 540), (960, 540), (960, 540), (960, 540), (960, 540), (960, 540), (960, 540), (960, 540), (960, 540), (960, 540), (960, 540), (960, 540), (960, 540), (960, 540), (960, 540), (960, 540), (960, 540), (960, 540), (960, 540), (960, 540), (960, 540), (960, 540), (960, 540), (960, 540), (960, 540), (960, 540), (960, 540), (960, 540), (960, 540), (960, 540), (960, 540), (960, 540), (960, 540), (960, 540), (960, 540), (960, 540), (960, 540), (960, 540), (960, 540), (960, 540), (960, 540), (960, 540), (960, 540), (960, 540), (960, 540), (960, 540), (960, 540), (960, 540), (960, 540), (960, 540), (960, 540), (960, 540), (960, 540), (960, 540), (960, 540), (960, 540), (960, 540), (960, 540), (960, 540), (960, 540), (960, 540), (960, 540), (960, 540), (960, 540), (960, 540), (960, 540), (960, 540), (960, 540), (960, 540), (960, 540), (960, 540), (960, 540), (960, 540), (960, 540), (960, 540), (960, 540), (960, 540), (960, 540), (960, 540), (960, 540), (960, 540), (960, 540), (960, 540), (960, 540), (960, 540), (960, 540), (960, 540), (960, 540), (960, 540), (960, 540), (960, 540), (960, 540), (960, 540), (960, 540), (960, 540), (960, 540), (960, 540), (960, 540), (960, 540), (960, 540), (960, 540), (960, 540), (960, 540), (960, 540), (960, 540), (960, 540), (960, 540), (960, 540), (960, 540), (960, 540), (960, 540), (960, 540), (960, 540), (960, 540), (960, 540), (960, 540), (960, 540), (960, 540), (960, 540), (960, 540), (960, 540), (960, 540), (960, 540), (960, 540), (960, 540), (960, 540), (960, 540), (960, 540), (960, 540), (960, 540), (960, 540), (960, 540), (960, 540), (960, 540), (960, 540), (960, 540), (960, 540), (960, 540), (960, 540), (960, 540), (960, 540), (960, 540), (960, 540), (960, 540), (960, 540), (960, 540), (960, 540), (960, 540), (960, 540), (960, 540), (960, 540), (960, 540), (960, 540), (960, 540), (960, 540), (960, 540), (960, 540), (960, 540), (960, 540), (960, 540), (960, 540), (960, 540), (960, 540), (960, 540), (960, 540), (960, 540), (960, 540), (960, 540), (960, 540), (960, 540), (960, 540), (960, 540), (960, 540), (960, 540), (960, 540), (960, 540), (960, 540), (960, 540), (960, 540), (960, 540), (960, 540), (960, 540), (960, 540), (960, 540), (960, 540), (960, 540), (960, 540), (960, 540), (960, 540), (960, 540), (960, 540), (960, 540), (960, 540), (960, 540), (960, 540), (957, 540), (944, 539), (923, 535), (856, 526), (813, 523), (773, 517), (726, 517), (644, 512), (613, 512), (582, 508), (556, 508)]",184.52882423693254,"[2, 6, 1, 5, 8, 7, 9, 4, 3]","(0, 0.25)",ENG006C,ENG,C,English,Fri Aug 24 12:03:02 2018,Mouse
1,0,3,0,37,9,9,1,840,160,680,134,0,500,200,8000,"[(960, 540), (960, 540), (960, 540), (960, 540), (960, 540), (960, 540), (960, 540), (960, 540), (960, 540), (960, 540), (960, 540), (960, 540), (960, 540), (960, 540), (960, 540), (964, 540), (967, 540), (968, 540), (968, 540), (968, 540), (968, 540), (968, 540), (968, 540), (968, 540), (968, 540), (968, 540), (968, 540), (968, 540), (968, 540), (968, 540), (968, 540), (968, 542), (966, 543), (964, 544), (962, 545), (958, 547), (958, 548), (956, 549), (955, 549), (953, 552), (952, 554), (949, 554), (949, 555), (949, 555), (948, 556), (948, 556), (948, 556), (948, 556), (948, 556), (948, 556), (948, 556), (948, 556), (948, 556), (948, 555), (948, 550), (951, 540), (951, 536), (951, 530), (951, 522), (951, 506), (950, 496), (948, 485), (944, 473), (942, 450), (941, 438), (939, 428), (938, 418), (938, 399), (938, 386), (938, 373), (938, 359), (938, 327), (938, 310), (938, 297), (938, 280), (937, 251), (932, 232), (930, 214), (929, 199), (926, 178), (926, 170), (926, 159), (924, 151), (921, 130)]",264.56626278704925,"[2, 6, 1, 5, 8, 7, 9, 4, 3]","(0, 0.25)",ENG006C,ENG,C,English,Fri Aug 24 12:03:02 2018,Mouse
1,0,3,0,38,7,7,1,671,271,400,133,0,500,200,8000,"[(960, 540), (960, 540), (960, 540), (960, 540), (960, 540), (960, 540), (960, 540), (960, 540), (960, 540), (960, 540), (960, 540), (960, 540), (960, 540), (960, 540), (960, 540), (960, 540), (960, 540), (960, 540), (960, 540), (960, 540), (960, 540), (960, 540), (960, 540), (960, 540), (960, 540), (960, 540), (960, 540), (959, 541), (954, 543), (948, 544), (940, 545), (920, 547), (911, 549), (901, 549), (891, 550), (881, 551), (879, 553), (878, 553), (876, 553), (874, 554), (873, 554), (872, 554), (871, 554), (871, 554), (871, 554), (871, 554), (871, 554), (871, 554), (871, 554), (871, 554), (871, 554), (871, 554), (871, 554), (871, 554), (871, 554), (871, 554), (871, 554), (871, 547), (866, 536), (856, 508), (845, 489), (828, 467), (810, 441), (756, 378), (724, 350), (692, 322), (656, 293), (597, 238)]",219.75896390662888,"[2, 6, 1, 5, 8, 7, 9, 4, 3]","(0, 0.25)",ENG006C,ENG,C,English,Fri Aug 24 12:03:02 2018,Mouse
1,0,3,0,39,6,3,0,-991,151,840,132,0,500,200,8000,"[(960, 540), (960, 540), (960, 540), (960, 540), (960, 540), (960, 540), (960, 540), (960, 540), (960, 540), (960, 540), (960, 540), (960, 540), (960, 540), (960, 540), (960, 540), (961, 541), (961, 541), (962, 542), (962, 542), (962, 542), (962, 542), (962, 542), (962, 542), (962, 542), (962, 542), (962, 542), (962, 542), (962, 542), (962, 542), (962, 542), (962, 542), (962, 542), (962, 542), (962, 542), (962, 542), (962, 542), (962, 542), (962, 542), (962, 542), (962, 542), (962, 542), (962, 542), (962, 542), (962, 542), (962, 542), (962, 542), (962, 542), (962, 542), (962, 542), (962, 542), (962, 542), (962, 542), (962, 542), (962, 542), (962, 542), (962, 542), (962, 542), (962, 542), (962, 542), (962, 542), (962, 542), (962, 542), (962, 542), (962, 542), (962, 542), (962, 542), (962, 542), (962, 542), (962, 542), (962, 542), (962, 542), (962, 542), (962, 542), (962, 542), (962, 542), (962, 542), (962, 542), (962, 542), (962, 542), (962, 542), (962, 542), (962, 542), (962, 542), (964, 542), (968, 542), (975, 541), (985, 537), (1014, 533), (1035, 530), (1062, 524), (1091, 520), (1154, 507), (1182, 499), (1207, 491), (1236, 481), (1274, 465), (1293, 455), (1309, 445), (1331, 431), (1369, 411)]",342.494547171213,"[2, 6, 1, 5, 8, 7, 9, 4, 3]","(0, 0.25)",ENG006C,ENG,C,English,Fri Aug 24 12:03:02 2018,Mouse
1,0,3,0,40,4,6,0,-611,391,220,133,0,500,200,8000,"[(960, 540), (960, 540), (960, 540), (960, 540), (960, 540), (960, 540), (960, 540), (960, 540), (960, 540), (960, 540), (960, 540), (960, 540), (960, 540), (960, 540), (960, 540), (960, 540), (960, 540), (960, 540), (960, 540), (960, 540), (960, 540), (960, 540), (960, 540), (960, 540), (960, 540), (960, 540), (960, 540), (960, 540), (960, 540), (960, 540), (960, 540), (960, 540), (960, 540), (960, 540), (960, 540), (960, 540), (960, 540), (960, 540), (960, 540), (961, 543), (963, 546), (964, 548), (966, 551), (971, 562), (974, 571), (975, 578), (977, 588), (983, 609), (989, 625), (1000, 646), (1009, 670), (1027, 713), (1038, 737), (1047, 760), (1052, 775), (1068, 813), (1077, 830), (1090, 845), (1103, 862), (1122, 886), (1130, 896), (1138, 905)]",64.00283993462924,"[2, 6, 1, 5, 8, 7, 9, 4, 3]","(0, 0.25)",ENG006C,ENG,C,English,Fri Aug 24 12:03:02 2018,Mouse
1,0,3,0,41,2,2,1,1341,771,570,134,0,500,200,8000,"[(960, 540), (960, 540), (960, 540), (960, 540), (960, 540), (960, 540), (960, 540), (960, 540), (960, 540), (960, 540), (960, 540), (960, 540), (960, 540), (960, 540), (960, 540), (960, 540), (960, 540), (960, 540), (960, 540), (960, 540), (960, 540), (960, 540), (960, 540), (960, 540), (960, 540), (960, 540), (960, 540), (960, 540), (960, 540), (960, 540), (960, 540), (960, 540), (960, 540), (960, 540), (960, 540), (960, 540), (960, 540), (960, 540), (960, 540), (960, 540), (960, 540), (960, 540), (960, 540), (960, 540), (960, 540), (960, 540), (960, 540), (960, 540), (960, 540), (960, 540), (960, 540), (960, 540), (960, 540), (960, 540), (960, 540), (960, 540), (960, 540), (960, 540), (960, 540), (960, 540), (960, 540), (960, 540), (960, 540), (960, 540), (960, 540), (960, 540), (960, 540), (960, 540), (960, 540), (960, 540), (960, 540), (960, 540), (960, 540), (960, 540), (960, 540), (960, 540), (960, 540), (964, 539), (975, 539), (986, 543), (992, 544), (1001, 548), (1006, 551), (1016, 557), (1025, 562), (1044, 570), (1056, 573), (1069, 578), (1080, 580), (1099, 586), (1107, 589), (1110, 590), (1113, 590), (1117, 593), (1118, 595), (1120, 595), (1124, 597), (1133, 599), (1140, 602), (1150, 602), (1157, 603), (1181, 608), (1198, 614), (1209, 616), (1225, 621), (1252, 628), (1266, 633), (1276, 637), (1285, 639), (1302, 643), (1309, 645), (1313, 646), (1315, 647), (1317, 648), (1317, 648), (1317, 648), (1317, 648), (1317, 648), (1317, 649), (1317, 650), (1317, 650), (1317, 652), (1317, 653), (1317, 653), (1317, 653), (1317, 653), (1317, 653), (1317, 653), (1317, 653), (1317, 654), (1318, 655), (1320, 657), (1323, 661), (1334, 668), (1340, 672)]",19.15561244543967,"[2, 6, 1, 5, 8, 7, 9, 4, 3]","(0, 0.25)",ENG006C,ENG,C,English,Fri Aug 24 12:03:02 2018,Mouse
1,0,3,0,42,6,6,1,910,180,730,134,0,500,200,8000,"[(960, 540), (960, 540), (960, 540), (960, 540), (960, 540), (960, 540), (960, 540), (960, 540), (960, 540), (960, 540), (960, 540), (960, 540), (960, 540), (960, 540), (960, 540), (960, 540), (960, 540), (959, 540), (957, 540), (955, 540), (954, 540), (954, 540), (954, 540), (954, 540), (954, 540), (954, 540), (954, 540), (954, 540), (952, 540), (950, 540), (949, 541), (947, 543), (945, 544), (943, 546), (941, 547), (939, 549), (937, 550), (937, 550), (937, 550), (937, 550), (937, 550), (937, 550), (937, 550), (937, 550), (937, 550), (937, 550), (937, 550), (937, 550), (937, 550), (937, 550), (937, 550), (937, 550), (937, 550), (937, 550), (937, 550), (937, 550), (937, 550), (937, 550), (937, 550), (937, 550), (937, 550), (937, 550), (937, 550), (937, 550), (937, 550), (937, 550), (937, 550), (935, 552), (934, 555), (933, 564), (933, 570), (933, 579), (933, 590), (936, 609), (938, 620), (939, 632), (941, 646), (953, 687), (965, 716), (979, 745), (993, 770), (1015, 804), (1025, 816), (1033, 824), (1039, 830), (1060, 847), (1069, 855), (1079, 864), (1088, 873), (1111, 896), (1123, 908)]",66.10978114288785,"[2, 6, 1, 5, 8, 7, 9, 4, 3]","(0, 0.25)",ENG006C,ENG,C,English,Fri Aug 24 12:03:02 2018,Mouse
1,0,3,0,43,1,5,0,-1310,1140,170,133,0,500,200,8000,"[(960, 540), (960, 540), (960, 540), (960, 540), (960, 540), (960, 540), (960, 540), (960, 540), (960, 540), (960, 540), (960, 540), (960, 540), (960, 540), (960, 540), (960, 540), (960, 540), (960, 540), (960, 540), (960, 540), (960, 540), (960, 540), (960, 540), (960, 540), (960, 540), (960, 540), (960, 540), (960, 540), (960, 540), (960, 540), (960, 540), (960, 540), (960, 540), (960, 540), (960, 540), (960, 540), (960, 540), (960, 540), (960, 540), (960, 540), (960, 540), (960, 540), (960, 540), (960, 540), (960, 540), (960, 540), (960, 540), (960, 540), (960, 540), (960, 540), (960, 540), (960, 540), (960, 540), (960, 540), (960, 540), (960, 540), (960, 540), (960, 540), (960, 540), (960, 540), (960, 540), (960, 540), (960, 540), (960, 540), (960, 540), (960, 540), (960, 540), (960, 540), (960, 540), (960, 540), (960, 540), (960, 540), (960, 540), (960, 540), (960, 540), (960, 540), (960, 540), (960, 540), (960, 540), (960, 540), (960, 540), (960, 540), (960, 540), (960, 540), (960, 540), (960, 540), (960, 540), (960, 540), (960, 540), (960, 540), (960, 540), (960, 540), (960, 540), (960, 540), (960, 540), (960, 540), (960, 540), (960, 540), (960, 540), (960, 540), (960, 540), (960, 540), (960, 540), (960, 540), (960, 540), (960, 540), (960, 540), (960, 540), (960, 540), (960, 540), (960, 540), (960, 540), (960, 540), (960, 540), (955, 541), (945, 546), (937, 553), (926, 561), (886, 586), (858, 607), (830, 624), (803, 642), (755, 674), (732, 690), (713, 704), (700, 717), (682, 735), (670, 745), (664, 752), (657, 760), (642, 780), (635, 792)]",142.2105506117825,"[2, 6, 1, 5, 8, 7, 9, 4, 3]","(0, 0.25)",ENG006C,ENG,C,English,Fri Aug 24 12:03:02 2018,Mouse
1,0,3,0,44,4,4,1,810,640,170,134,0,500,200,8000,"[(960, 540), (960, 540), (960, 540), (960, 540), (960, 540), (960, 540), (960, 540), (960, 540), (960, 540), (960, 540), (960, 540), (960, 540), (960, 540), (960, 540), (960, 540), (960, 540), (960, 540), (960, 540), (960, 540), (960, 540), (960, 540), (960, 540), (960, 540), (960, 540), (960, 540), (960, 540), (960, 540), (960, 540), (960, 540), (960, 540), (960, 540), (960, 540), (960, 540), (960, 540), (960, 540), (960, 540), (960, 540), (960, 540), (960, 540), (960, 540), (960, 540), (960, 540), (960, 540), (960, 540), (960, 540), (960, 540), (960, 540), (960, 540), (960, 540), (960, 540), (960, 540), (960, 540), (960, 540), (960, 540), (960, 540), (960, 540), (960, 540), (960, 540), (960, 540), (960, 540), (960, 540), (960, 540), (960, 540), (962, 538), (967, 533), (983, 517), (992, 509), (998, 502), (1004, 493), (1018, 467), (1025, 449), (1031, 434), (1042, 410), (1062, 363), (1074, 334), (1086, 308), (1096, 282), (1112, 224), (1124, 195), (1130, 180), (1138, 164)]",295.3330737744383,"[2, 6, 1, 5, 8, 7, 9, 4, 3]","(0, 0.25)",ENG006C,ENG,C,English,Fri Aug 24 12:03:02 2018,Mouse
1,0,3,0,45,5,5,1,711,201,510,134,0,500,200,8000,"[(960, 540), (960, 540), (960, 540), (960, 540), (960, 540), (960, 540), (960, 540), (960, 540), (960, 540), (960, 540), (960, 540), (960, 540), (960, 540), (960, 540), (960, 540), (960, 540), (960, 540), (960, 540), (960, 540), (960, 540), (961, 540), (961, 540), (961, 540), (961, 540), (961, 540), (961, 540), (961, 540), (961, 540), (961, 540), (961, 540), (961, 540), (961, 540), (961, 540), (961, 540), (961, 540), (961, 540), (961, 540), (961, 540), (961, 540), (961, 540), (961, 540), (961, 540), (961, 540), (961, 540), (961, 540), (961, 540), (962, 540), (962, 542), (957, 545), (956, 547), (953, 550), (948, 555), (934, 567), (925, 573), (911, 582), (898, 591), (864, 611), (845, 623), (828, 634), (809, 648), (778, 670), (763, 680), (752, 688), (740, 698), (723, 710), (715, 717), (704, 723), (694, 730), (673, 743), (656, 752), (636, 764), (615, 774)]",145.85249086025343,"[2, 6, 1, 5, 8, 7, 9, 4, 3]","(0, 0.25)",ENG006C,ENG,C,English,Fri Aug 24 12:03:02 2018,Mouse
1,0,3,0,46,9,8,0,-542,392,150,133,0,500,200,8000,"[(960, 540), (960, 540), (960, 540), (960, 540), (960, 540), (960, 540), (960, 540), (960, 540), (960, 540), (960, 540), (960, 540), (960, 540), (960, 540), (960, 540), (960, 540), (960, 540), (960, 540), (960, 540), (960, 540), (960, 540), (960, 540), (960, 540), (960, 540), (960, 540), (960, 540), (960, 540), (960, 540), (960, 540), (960, 540), (960, 540), (960, 540), (960, 540), (960, 540), (960, 540), (960, 540), (960, 540), (960, 540), (960, 540), (960, 540), (957, 540), (947, 540), (943, 540), (937, 540), (929, 540), (910, 540), (897, 540), (878, 540), (862, 536), (814, 529), (783, 529), (744, 529), (697, 529), (603, 529), (566, 529), (533, 529)]",181.4756773081494,"[2, 6, 1, 5, 8, 7, 9, 4, 3]","(0, 0.25)",ENG006C,ENG,C,English,Fri Aug 24 12:03:02 2018,Mouse
1,0,3,0,47,1,1,1,689,289,400,134,0,500,200,8000,"[(960, 540), (960, 540), (960, 540), (960, 540), (960, 540), (960, 540), (960, 540), (960, 540), (960, 540), (960, 540), (960, 540), (960, 540), (960, 540), (960, 540), (960, 540), (960, 540), (960, 540), (960, 540), (960, 540), (960, 540), (960, 540), (960, 540), (960, 540), (960, 540), (960, 540), (960, 540), (960, 540), (960, 540), (961, 538), (963, 537), (964, 536), (964, 536), (964, 536), (964, 536), (964, 536), (964, 536), (964, 536), (964, 536), (964, 536), (964, 536), (963, 540), (962, 544), (958, 551), (956, 558), (949, 575), (945, 582), (940, 592), (936, 602), (930, 620), (928, 631), (924, 641), (920, 651), (919, 671), (919, 684), (920, 696), (922, 708), (928, 738), (928, 754), (928, 771), (928, 791), (928, 830), (928, 844), (928, 855), (926, 866), (923, 887), (919, 898), (918, 909), (915, 921), (909, 946)]",97.15975158533328,"[2, 6, 1, 5, 8, 7, 9, 4, 3]","(0, 0.25)",ENG006C,ENG,C,English,Fri Aug 24 12:03:02 2018,Mouse
1,0,3,0,48,6,5,0,-931,251,680,134,0,500,200,8000,"[(960, 540), (960, 540), (960, 540), (960, 540), (960, 540), (960, 540), (960, 540), (960, 540), (960, 540), (960, 540), (960, 540), (960, 540), (960, 540), (960, 540), (960, 540), (960, 540), (960, 540), (960, 540), (960, 540), (960, 540), (960, 540), (960, 540), (960, 540), (960, 540), (960, 540), (960, 539), (960, 539), (960, 539), (960, 539), (960, 539), (960, 539), (960, 539), (960, 539), (960, 539), (960, 539), (960, 539), (960, 539), (960, 539), (960, 539), (960, 539), (960, 539), (960, 539), (960, 539), (960, 539), (960, 539), (960, 539), (960, 541), (961, 548), (965, 552), (966, 555), (969, 559), (970, 562), (972, 564), (972, 564), (972, 565), (973, 566), (974, 567), (974, 567), (974, 569), (975, 576), (975, 576), (975, 578), (975, 580), (975, 581), (974, 584), (971, 584), (967, 586), (958, 588), (950, 591), (941, 593), (930, 597), (909, 604), (897, 610), (886, 618), (876, 626), (858, 642), (852, 649), (848, 654), (846, 659), (840, 667), (836, 672), (834, 675), (830, 678), (823, 686), (816, 691), (810, 697), (802, 703), (777, 716), (761, 726), (743, 736), (721, 748), (677, 773), (658, 787), (639, 797)]",141.31843110148978,"[2, 6, 1, 5, 8, 7, 9, 4, 3]","(0, 0.25)",ENG006C,ENG,C,English,Fri Aug 24 12:03:02 2018,Mouse
1,0,3,0,49,9,8,0,-440,300,140,135,0,500,200,8000,"[(960, 540), (960, 540), (960, 540), (960, 540), (960, 540), (960, 540), (960, 540), (960, 540), (960, 540), (960, 540), (960, 540), (960, 540), (960, 540), (960, 540), (960, 540), (960, 540), (960, 540), (960, 540), (960, 540), (960, 540), (960, 540), (960, 540), (960, 540), (960, 540), (960, 540), (960, 540), (960, 540), (960, 540), (960, 540), (957, 538), (954, 538), (946, 538), (923, 538), (908, 538), (883, 536), (852, 535), (769, 525), (735, 524), (705, 519), (677, 519), (624, 519), (596, 519), (574, 519), (554, 519)]",182.96093613416375,"[2, 6, 1, 5, 8, 7, 9, 4, 3]","(0, 0.25)",ENG006C,ENG,C,English,Fri Aug 24 12:03:02 2018,Mouse
1,0,3,0,50,7,7,1,759,499,260,136,0,500,200,8000,"[(960, 540), (960, 540), (960, 540), (960, 540), (960, 540), (960, 540), (960, 540), (960, 540), (960, 540), (960, 540), (960, 540), (960, 540), (960, 540), (960, 540), (960, 540), (960, 540), (960, 540), (960, 540), (960, 540), (960, 540), (960, 540), (960, 540), (960, 540), (960, 540), (960, 540), (960, 540), (960, 540), (960, 540), (960, 540), (960, 540), (960, 540), (960, 540), (960, 540), (960, 540), (960, 540), (960, 540), (960, 540), (960, 540), (960, 540), (960, 540), (960, 540), (960, 540), (960, 540), (960, 540), (960, 540), (960, 540), (960, 540), (960, 540), (960, 540), (960, 539), (959, 538), (959, 538), (958, 537), (958, 537), (957, 537), (956, 536), (955, 536), (954, 536), (953, 535), (951, 534), (949, 532), (946, 529), (942, 524), (931, 507), (923, 498), (916, 488), (910, 479), (893, 458), (880, 440), (870, 426), (854, 405), (814, 363), (779, 335), (746, 312), (712, 288), (663, 257)]",223.61726692890232,"[2, 6, 1, 5, 8, 7, 9, 4, 3]","(0, 0.25)",ENG006C,ENG,C,English,Fri Aug 24 12:03:02 2018,Mouse
1,0,3,0,51,2,8,0,-999,709,290,136,0,500,200,8000,"[(960, 540), (960, 540), (960, 540), (960, 540), (960, 540), (960, 540), (960, 540), (960, 540), (960, 540), (960, 540), (960, 540), (960, 540), (960, 540), (960, 540), (960, 540), (960, 540), (960, 540), (960, 540), (960, 540), (960, 540), (960, 540), (960, 540), (960, 540), (960, 540), (960, 540), (960, 540), (960, 540), (960, 540), (960, 540), (960, 540), (960, 540), (960, 540), (960, 540), (960, 540), (960, 540), (960, 540), (960, 540), (960, 540), (960, 540), (960, 540), (960, 540), (960, 540), (960, 540), (960, 540), (960, 540), (960, 540), (960, 540), (960, 540), (960, 540), (960, 540), (960, 540), (960, 540), (960, 540), (960, 540), (960, 540), (960, 540), (960, 540), (960, 540), (960, 540), (960, 540), (960, 540), (960, 540), (960, 540), (960, 540), (960, 540), (960, 540), (960, 540), (960, 540), (960, 540), (960, 540), (958, 544), (953, 546), (950, 546), (946, 546), (941, 547), (938, 548), (935, 548), (931, 548), (926, 548), (924, 548), (920, 548), (918, 548), (904, 547), (893, 546), (882, 545), (872, 545), (843, 542), (823, 542), (803, 542), (786, 542), (747, 542), (730, 542), (710, 542), (691, 542), (656, 542), (638, 542), (621, 542), (606, 542), (572, 542), (558, 542)]",179.71494872241618,"[2, 6, 1, 5, 8, 7, 9, 4, 3]","(0, 0.25)",ENG006C,ENG,C,English,Fri Aug 24 12:03:02 2018,Mouse
1,0,3,0,52,3,7,0,-650,510,140,137,0,500,200,8000,"[(960, 540), (960, 540), (960, 540), (960, 540), (960, 540), (960, 540), (960, 540), (960, 540), (960, 540), (960, 540), (960, 540), (960, 540), (960, 540), (960, 540), (960, 540), (960, 540), (960, 540), (960, 540), (960, 540), (960, 540), (960, 540), (960, 540), (960, 540), (960, 540), (960, 540), (960, 540), (960, 540), (960, 540), (960, 540), (960, 540), (960, 540), (960, 540), (960, 540), (960, 540), (960, 540), (960, 540), (960, 540), (960, 540), (960, 540), (960, 540), (960, 540), (960, 540), (960, 540), (960, 540), (960, 540), (960, 540), (960, 540), (960, 540), (960, 540), (960, 540), (960, 539), (959, 538), (953, 537), (939, 531), (927, 525), (917, 520), (890, 497), (874, 481), (857, 462), (837, 439), (817, 413), (766, 355), (742, 331), (710, 301), (634, 243)]",222.33486507445556,"[2, 6, 1, 5, 8, 7, 9, 4, 3]","(0, 0.25)",ENG006C,ENG,C,English,Fri Aug 24 12:03:02 2018,Mouse
1,0,3,0,53,9,9,1,1079,329,750,138,0,500,200,8000,"[(960, 540), (960, 540), (960, 540), (960, 540), (960, 540), (960, 540), (960, 540), (960, 540), (960, 540), (960, 540), (960, 540), (960, 540), (960, 540), (960, 540), (960, 540), (960, 540), (960, 540), (960, 540), (960, 540), (960, 540), (960, 540), (960, 540), (960, 540), (960, 540), (960, 540), (960, 540), (960, 540), (960, 540), (960, 540), (960, 540), (960, 540), (960, 540), (960, 541), (961, 545), (963, 552), (967, 561), (967, 564), (968, 568), (968, 575), (971, 586), (972, 595), (975, 602), (976, 612), (981, 629), (984, 639), (987, 649), (988, 653), (991, 657), (991, 658), (991, 658), (991, 658), (991, 658), (991, 658), (991, 658), (991, 658), (991, 658), (991, 658), (991, 658), (991, 658), (991, 658), (991, 658), (991, 658), (988, 658), (977, 658), (970, 658), (963, 658), (959, 658), (952, 658), (948, 659), (947, 660), (944, 661), (943, 661), (943, 661), (943, 661), (943, 661), (943, 661), (943, 661), (943, 661), (943, 661), (943, 661), (943, 659), (945, 657), (945, 654), (950, 642), (952, 636), (958, 626), (960, 614), (966, 595), (967, 581), (967, 568), (967, 551), (967, 498), (966, 467), (953, 428), (942, 386), (923, 322), (916, 297), (914, 276), (911, 260), (909, 234), (909, 224), (908, 214), (906, 203), (902, 179), (900, 166), (899, 156), (898, 145), (892, 119)]",260.824816919952,"[2, 6, 1, 5, 8, 7, 9, 4, 3]","(0, 0.25)",ENG006C,ENG,C,English,Fri Aug 24 12:03:02 2018,Mouse
1,0,3,0,54,6,6,1,1550,680,870,138,0,500,200,8000,"[(960, 540), (960, 540), (960, 540), (960, 540), (960, 540), (960, 540), (960, 540), (960, 540), (960, 540), (960, 540), (960, 540), (960, 540), (960, 540), (960, 540), (960, 540), (960, 540), (960, 540), (960, 540), (960, 540), (960, 540), (960, 540), (960, 540), (960, 540), (960, 540), (960, 540), (960, 540), (960, 540), (960, 540), (960, 540), (960, 540), (960, 540), (960, 540), (960, 540), (960, 540), (960, 540), (960, 540), (960, 540), (960, 540), (960, 540), (960, 540), (960, 540), (960, 540), (960, 540), (960, 540), (960, 540), (960, 540), (960, 540), (960, 540), (960, 540), (960, 540), (960, 540), (960, 540), (960, 540), (960, 540), (960, 540), (960, 540), (960, 540), (960, 540), (960, 540), (960, 540), (960, 540), (960, 540), (960, 540), (960, 540), (960, 540), (960, 540), (960, 540), (960, 541), (959, 542), (957, 542), (953, 543), (951, 544), (950, 544), (948, 544), (945, 546), (945, 546), (943, 546), (942, 547), (940, 548), (939, 548), (939, 549), (939, 549), (939, 549), (938, 549), (938, 549), (937, 550), (935, 552), (935, 552), (935, 552), (935, 553), (934, 554), (934, 554), (934, 554), (933, 556), (933, 556), (932, 558), (932, 558), (932, 559), (932, 561), (931, 561), (931, 562), (931, 562), (931, 562), (931, 562), (931, 562), (931, 564), (931, 568), (931, 569), (931, 569), (931, 571), (932, 573), (932, 573), (932, 576), (934, 577), (937, 580), (940, 583), (943, 586), (947, 590), (953, 597), (956, 602), (959, 608), (962, 614), (972, 632), (979, 645), (988, 659), (995, 670), (1015, 702), (1022, 715), (1027, 725), (1034, 735), (1045, 753), (1051, 761), (1056, 770), (1059, 778), (1067, 791), (1070, 800), (1074, 808), (1080, 818), (1089, 833), (1096, 841), (1100, 846), (1108, 854), (1119, 864), (1124, 869), (1130, 874), (1133, 877), (1137, 880), (1137, 880), (1137, 880), (1139, 882), (1139, 882), (1139, 882), (1139, 884), (1141, 887), (1146, 895)]",62.34799413638747,"[2, 6, 1, 5, 8, 7, 9, 4, 3]","(0, 0.25)",ENG006C,ENG,C,English,Fri Aug 24 12:03:02 2018,Mouse
1,0,3,0,55,4,4,1,630,250,380,137,0,500,200,8000,"[(960, 540), (960, 540), (960, 540), (960, 540), (960, 540), (960, 540), (960, 540), (960, 540), (960, 540), (960, 540), (960, 540), (960, 540), (960, 540), (960, 540), (960, 540), (960, 540), (960, 540), (960, 540), (960, 540), (960, 540), (960, 540), (960, 540), (960, 540), (960, 540), (960, 539), (960, 539), (960, 538), (960, 538), (960, 538), (960, 538), (960, 538), (960, 538), (960, 538), (960, 538), (960, 538), (960, 538), (960, 538), (960, 538), (960, 538), (960, 538), (960, 538), (960, 538), (960, 538), (960, 538), (960, 538), (961, 536), (983, 523), (995, 514), (1004, 507), (1012, 495), (1020, 474), (1021, 459), (1021, 441), (1021, 424), (1024, 380), (1026, 365), (1031, 343), (1039, 318), (1059, 268), (1075, 238), (1088, 217), (1102, 195), (1125, 159)]",293.4160307582304,"[2, 6, 1, 5, 8, 7, 9, 4, 3]","(0, 0.25)",ENG006C,ENG,C,English,Fri Aug 24 12:03:02 2018,Mouse
1,0,3,0,56,9,9,1,1151,151,1000,136,0,500,200,8000,"[(960, 540), (960, 540), (960, 540), (960, 540), (960, 540), (960, 540), (960, 540), (960, 540), (960, 540), (960, 540), (960, 540), (960, 540), (960, 540), (960, 540), (960, 540), (960, 542), (960, 545), (960, 547), (960, 550), (955, 556), (953, 559), (951, 563), (948, 566), (944, 572), (942, 575), (939, 579), (937, 581), (929, 587), (925, 589), (920, 592), (917, 594), (913, 597), (911, 600), (911, 604), (911, 610), (911, 618), (911, 623), (911, 627), (911, 630), (911, 639), (911, 644), (911, 648), (911, 651), (915, 658), (915, 661), (916, 664), (917, 666), (918, 670), (918, 671), (918, 671), (918, 671), (918, 671), (918, 671), (918, 671), (918, 671), (918, 671), (918, 671), (918, 672), (918, 672), (917, 672), (915, 671), (915, 671), (915, 670), (915, 664), (915, 659), (915, 653), (915, 644), (919, 621), (922, 612), (923, 605), (924, 596), (924, 591), (926, 588), (926, 587), (926, 585), (926, 585), (926, 585), (926, 585), (926, 585), (926, 585), (926, 585), (926, 585), (926, 585), (926, 585), (926, 585), (926, 585), (926, 585), (926, 585), (926, 585), (926, 585), (926, 585), (926, 585), (926, 585), (926, 585), (926, 585), (924, 584), (923, 584), (922, 584), (922, 584), (922, 582), (922, 577), (924, 564), (926, 549), (926, 518), (926, 501), (926, 478), (923, 457), (917, 407), (916, 384), (913, 360), (906, 330), (898, 271), (891, 239), (888, 209), (883, 180), (875, 135)]",258.146995832256,"[2, 6, 1, 5, 8, 7, 9, 4, 3]","(0, 0.25)",ENG006C,ENG,C,English,Fri Aug 24 12:03:02 2018,Mouse
1,0,3,0,57,1,1,1,1292,1112,180,135,0,500,200,8000,"[(960, 540), (960, 540), (960, 540), (960, 540), (960, 540), (960, 540), (960, 540), (960, 540), (960, 540), (960, 540), (960, 540), (960, 540), (960, 540), (960, 540), (960, 540), (960, 540), (960, 540), (960, 540), (960, 540), (960, 540), (960, 540), (960, 540), (960, 540), (960, 540), (960, 540), (960, 540), (960, 540), (960, 540), (960, 540), (960, 540), (960, 540), (960, 540), (960, 540), (960, 540), (960, 540), (960, 540), (960, 540), (960, 540), (960, 540), (960, 540), (960, 540), (960, 540), (960, 540), (960, 540), (960, 540), (960, 540), (960, 540), (960, 540), (960, 540), (960, 540), (960, 540), (960, 540), (960, 540), (960, 540), (960, 540), (960, 540), (960, 540), (960, 540), (960, 540), (960, 540), (960, 540), (960, 540), (960, 540), (960, 540), (960, 540), (960, 540), (960, 540), (960, 540), (960, 540), (960, 540), (960, 540), (960, 540), (960, 540), (960, 540), (960, 540), (960, 540), (960, 540), (960, 540), (960, 540), (960, 540), (960, 540), (960, 540), (960, 540), (960, 540), (960, 540), (960, 540), (960, 540), (960, 540), (960, 540), (960, 540), (960, 540), (960, 540), (960, 540), (960, 540), (960, 540), (960, 540), (960, 540), (960, 540), (960, 540), (960, 540), (960, 540), (960, 540), (960, 540), (960, 540), (960, 540), (960, 540), (960, 540), (960, 540), (960, 540), (960, 540), (960, 540), (960, 542), (959, 545), (956, 550), (953, 555), (948, 566), (945, 570), (939, 578), (935, 584), (928, 603), (923, 617), (915, 640), (911, 666), (909, 745), (909, 784), (909, 820), (909, 853), (909, 906), (909, 929), (909, 946)]",97.15975158533328,"[2, 6, 1, 5, 8, 7, 9, 4, 3]","(0, 0.25)",ENG006C,ENG,C,English,Fri Aug 24 12:03:02 2018,Mouse
1,0,3,0,58,8,8,1,519,399,120,134,0,500,200,8000,"[(960, 540), (960, 540), (960, 540), (960, 540), (960, 540), (960, 540), (960, 540), (960, 540), (960, 540), (960, 540), (960, 540), (960, 540), (960, 540), (960, 540), (960, 540), (960, 540), (960, 540), (960, 540), (960, 540), (960, 540), (960, 540), (960, 540), (960, 540), (960, 540), (960, 540), (960, 540), (960, 540), (960, 540), (960, 540), (960, 540), (960, 540), (960, 540), (960, 540), (960, 540), (960, 540), (960, 540), (960, 540), (960, 540), (960, 540), (959, 540), (950, 537), (943, 536), (930, 536), (914, 536), (855, 536), (822, 536), (780, 536), (736, 536), (652, 536), (614, 529), (580, 527), (557, 524)]",182.2735763162016,"[2, 6, 1, 5, 8, 7, 9, 4, 3]","(0, 0.25)",ENG006C,ENG,C,English,Fri Aug 24 12:03:02 2018,Mouse
1,0,3,0,59,8,8,1,911,741,170,133,0,500,200,8000,"[(960, 540), (960, 540), (960, 540), (960, 540), (960, 540), (960, 540), (960, 540), (960, 540), (960, 540), (960, 540), (960, 540), (960, 540), (960, 540), (960, 540), (960, 540), (960, 540), (960, 540), (960, 540), (960, 540), (960, 540), (960, 540), (960, 540), (960, 540), (960, 540), (960, 540), (960, 540), (960, 540), (960, 540), (960, 540), (960, 540), (960, 540), (960, 540), (960, 540), (960, 540), (960, 540), (960, 540), (960, 540), (960, 540), (960, 540), (960, 540), (960, 540), (960, 540), (960, 540), (960, 540), (960, 540), (960, 540), (960, 540), (960, 540), (960, 540), (960, 540), (960, 540), (960, 540), (960, 540), (960, 540), (960, 540), (960, 540), (960, 540), (960, 540), (960, 540), (960, 540), (960, 540), (960, 540), (960, 540), (960, 540), (960, 540), (960, 540), (960, 540), (960, 540), (960, 540), (960, 540), (960, 540), (960, 540), (960, 540), (960, 540), (953, 541), (931, 545), (873, 553), (836, 553), (809, 553), (786, 553), (733, 553), (713, 553), (694, 553), (679, 553), (655, 553), (644, 553), (634, 553), (623, 553), (596, 553), (583, 553), (568, 553), (554, 553)]",178.1660326687852,"[2, 6, 1, 5, 8, 7, 9, 4, 3]","(0, 0.25)",ENG006C,ENG,C,English,Fri Aug 24 12:03:02 2018,Mouse
1,0,3,0,60,5,7,0,-571,311,260,132,0,500,200,8000,"[(960, 540), (960, 540), (960, 540), (960, 540), (960, 540), (960, 540), (960, 540), (960, 540), (960, 540), (960, 540), (960, 540), (960, 540), (960, 540), (960, 540), (960, 540), (960, 540), (960, 540), (960, 540), (960, 540), (960, 540), (960, 540), (960, 540), (960, 540), (960, 540), (960, 540), (960, 540), (960, 540), (960, 540), (960, 540), (960, 540), (960, 540), (961, 540), (959, 537), (958, 536), (955, 535), (955, 535), (953, 533), (953, 532), (951, 530), (950, 530), (946, 523), (942, 520), (938, 512), (934, 506), (925, 485), (914, 463), (903, 437), (889, 408), (861, 359), (840, 331), (816, 307), (798, 292), (766, 271), (753, 264), (738, 253), (726, 248), (704, 235), (695, 230)]",229.4748965062461,"[2, 6, 1, 5, 8, 7, 9, 4, 3]","(0, 0.25)",ENG006C,ENG,C,English,Fri Aug 24 12:03:02 2018,Mouse
1,0,3,0,61,3,8,0,-841,581,260,133,0,500,200,8000,"[(960, 540), (960, 540), (960, 540), (960, 540), (960, 540), (960, 540), (960, 540), (960, 540), (960, 540), (960, 540), (960, 540), (960, 540), (960, 540), (960, 540), (960, 540), (960, 540), (960, 540), (960, 540), (960, 540), (960, 540), (960, 540), (960, 540), (960, 540), (960, 540), (960, 540), (960, 540), (960, 540), (960, 540), (960, 540), (960, 540), (960, 540), (960, 540), (960, 540), (960, 540), (960, 540), (960, 540), (960, 540), (960, 540), (960, 540), (960, 540), (960, 540), (960, 540), (960, 540), (960, 540), (960, 540), (960, 540), (960, 540), (960, 540), (960, 540), (960, 540), (960, 540), (960, 540), (960, 540), (960, 540), (960, 540), (960, 540), (960, 540), (960, 540), (955, 540), (948, 541), (944, 541), (936, 541), (924, 544), (921, 544), (917, 545), (911, 545), (897, 547), (888, 549), (879, 550), (867, 550), (842, 551), (826, 551), (812, 551), (795, 551), (756, 551), (736, 551), (717, 551), (700, 551), (670, 551), (654, 551), (637, 551), (614, 551), (575, 551), (561, 551), (551, 551)]",178.4594090970046,"[2, 6, 1, 5, 8, 7, 9, 4, 3]","(0, 0.25)",ENG006C,ENG,C,English,Fri Aug 24 12:03:02 2018,Mouse
1,0,3,0,62,3,8,0,-1221,1061,160,134,0,500,200,8000,"[(960, 540), (960, 540), (960, 540), (960, 540), (960, 540), (960, 540), (960, 540), (960, 540), (960, 540), (960, 540), (960, 540), (960, 540), (960, 540), (960, 540), (960, 540), (960, 540), (960, 540), (960, 540), (960, 540), (960, 540), (960, 540), (960, 540), (960, 540), (960, 540), (960, 540), (960, 540), (960, 540), (960, 540), (960, 540), (960, 540), (960, 540), (960, 540), (960, 540), (960, 540), (960, 540), (960, 540), (960, 540), (960, 540), (960, 540), (960, 540), (960, 540), (960, 540), (960, 540), (960, 540), (960, 540), (960, 540), (960, 540), (960, 540), (960, 540), (960, 540), (960, 540), (960, 540), (960, 540), (960, 540), (960, 540), (960, 540), (960, 540), (960, 540), (960, 540), (960, 540), (960, 540), (960, 540), (960, 540), (960, 540), (960, 540), (960, 540), (960, 540), (960, 540), (960, 540), (960, 540), (960, 540), (960, 540), (960, 540), (960, 540), (960, 540), (960, 540), (960, 540), (960, 540), (960, 540), (960, 540), (960, 540), (960, 540), (960, 540), (960, 540), (960, 540), (960, 540), (960, 540), (960, 540), (960, 540), (960, 540), (960, 540), (960, 540), (960, 540), (960, 540), (960, 540), (960, 540), (960, 540), (960, 540), (960, 540), (960, 540), (960, 540), (960, 540), (960, 540), (960, 540), (960, 540), (960, 540), (962, 540), (970, 543), (982, 546), (1004, 551), (1008, 552), (1008, 552), (1008, 552), (1008, 552), (1003, 553), (986, 553), (959, 553), (867, 553), (812, 553), (751, 553), (690, 553), (576, 553), (521, 553)]",178.30380973550564,"[2, 6, 1, 5, 8, 7, 9, 4, 3]","(0, 0.25)",ENG006C,ENG,C,English,Fri Aug 24 12:03:02 2018,Mouse
1,0,3,0,63,7,7,1,481,311,170,135,0,500,200,8000,"[(960, 540), (960, 540), (960, 540), (960, 540), (960, 540), (960, 540), (960, 540), (960, 540), (960, 540), (960, 540), (960, 540), (960, 540), (960, 540), (960, 540), (960, 540), (960, 540), (960, 540), (960, 540), (960, 540), (960, 540), (960, 540), (960, 540), (960, 540), (960, 540), (960, 540), (960, 540), (960, 540), (960, 540), (960, 540), (960, 540), (960, 540), (956, 540), (948, 537), (938, 534), (915, 523), (900, 514), (884, 500), (864, 484), (835, 455), (819, 437), (804, 420), (792, 405), (756, 361), (740, 343), (722, 322), (704, 306), (676, 282), (666, 273), (654, 263)]",222.15229982434298,"[2, 6, 1, 5, 8, 7, 9, 4, 3]","(0, 0.25)",ENG006C,ENG,C,English,Fri Aug 24 12:03:02 2018,Mouse
1,0,3,0,64,4,6,0,-810,380,430,135,0,500,200,8000,"[(960, 540), (960, 540), (960, 540), (960, 540), (960, 540), (960, 540), (960, 540), (960, 540), (960, 540), (960, 540), (960, 540), (960, 540), (960, 540), (960, 540), (960, 540), (960, 540), (960, 540), (960, 540), (960, 540), (960, 540), (960, 540), (960, 540), (960, 540), (960, 540), (960, 540), (960, 540), (960, 540), (960, 540), (960, 540), (960, 540), (960, 540), (960, 540), (960, 540), (960, 540), (960, 540), (960, 540), (960, 540), (960, 541), (960, 541), (960, 542), (958, 544), (957, 545), (957, 545), (957, 545), (957, 545), (957, 545), (956, 545), (956, 546), (956, 548), (956, 551), (956, 554), (956, 558), (956, 563), (956, 566), (957, 572), (958, 576), (962, 589), (965, 596), (970, 605), (974, 616), (984, 638), (991, 648), (997, 658), (1003, 667), (1017, 690), (1025, 700), (1036, 712), (1045, 722), (1061, 742), (1068, 752), (1073, 761), (1082, 774), (1096, 800), (1107, 817), (1117, 829), (1125, 841), (1141, 861), (1147, 869), (1154, 876), (1159, 883), (1163, 888)]",59.743562836470744,"[2, 6, 1, 5, 8, 7, 9, 4, 3]","(0, 0.25)",ENG006C,ENG,C,English,Fri Aug 24 12:03:02 2018,Mouse
1,0,3,0,65,2,7,0,-491,11,480,136,0,500,200,8000,"[(960, 540), (959, 540), (959, 540), (959, 540), (959, 540), (959, 540), (959, 540), (959, 540), (959, 540), (959, 540), (958, 540), (957, 540), (955, 540), (954, 540), (952, 540), (947, 539), (946, 538), (946, 538), (944, 538), (943, 538), (943, 538), (941, 538), (940, 538), (939, 538), (939, 538), (936, 536), (934, 536), (932, 536), (930, 535), (929, 534), (926, 532), (922, 528), (920, 526), (917, 522), (913, 516), (903, 501), (896, 494), (890, 483), (882, 474), (861, 450), (849, 440), (836, 429), (822, 419), (785, 394), (766, 382), (744, 368), (726, 359), (677, 330), (652, 317), (626, 303)]",215.35878153124722,"[2, 6, 1, 5, 8, 7, 9, 4, 3]","(0, 0.25)",ENG006C,ENG,C,English,Fri Aug 24 12:03:02 2018,Mouse
1,0,3,0,66,4,4,1,860,680,180,137,0,500,200,8000,"[(960, 540), (960, 540), (960, 540), (960, 540), (960, 540), (960, 540), (960, 540), (960, 540), (960, 540), (960, 540), (960, 540), (960, 540), (960, 540), (960, 540), (960, 540), (960, 540), (960, 540), (960, 540), (960, 540), (960, 540), (960, 540), (960, 540), (960, 540), (960, 540), (960, 540), (960, 540), (960, 540), (960, 540), (960, 540), (960, 540), (960, 540), (960, 540), (960, 540), (960, 540), (960, 540), (960, 540), (960, 540), (960, 540), (960, 540), (960, 540), (960, 540), (960, 540), (960, 540), (960, 540), (960, 540), (960, 540), (960, 540), (960, 540), (960, 540), (960, 540), (960, 540), (960, 540), (960, 540), (960, 540), (960, 540), (960, 540), (960, 540), (960, 540), (960, 540), (960, 540), (960, 540), (960, 540), (960, 540), (960, 540), (960, 540), (960, 540), (960, 540), (962, 540), (974, 540), (978, 540), (980, 540), (983, 540), (989, 537), (991, 533), (993, 527), (996, 517), (1004, 493), (1016, 467), (1029, 438), (1048, 400), (1084, 337), (1103, 309), (1124, 281), (1143, 255), (1177, 210), (1192, 192)]",303.69006752597977,"[2, 6, 1, 5, 8, 7, 9, 4, 3]","(0, 0.25)",ENG006C,ENG,C,English,Fri Aug 24 12:03:02 2018,Mouse
1,0,3,0,67,3,7,0,-779,629,150,137,0,500,200,8000,"[(960, 540), (960, 540), (960, 540), (960, 540), (960, 540), (960, 540), (960, 540), (960, 540), (960, 540), (960, 540), (960, 540), (960, 540), (960, 540), (960, 540), (960, 540), (960, 540), (960, 540), (960, 540), (960, 540), (960, 540), (960, 540), (960, 540), (960, 540), (960, 540), (960, 540), (960, 540), (960, 540), (960, 540), (960, 540), (960, 540), (960, 540), (960, 540), (960, 540), (960, 540), (960, 540), (960, 540), (960, 540), (960, 540), (960, 540), (960, 540), (960, 540), (960, 540), (960, 540), (960, 540), (960, 540), (960, 540), (960, 540), (960, 540), (960, 540), (960, 540), (960, 540), (960, 540), (960, 540), (960, 540), (960, 540), (960, 540), (960, 540), (960, 540), (960, 540), (960, 540), (960, 540), (960, 540), (957, 540), (954, 542), (952, 543), (949, 544), (947, 544), (944, 544), (937, 542), (912, 522), (884, 503), (859, 485), (818, 459), (727, 405), (683, 379), (653, 361), (620, 341), (574, 316)]",210.12705981677863,"[2, 6, 1, 5, 8, 7, 9, 4, 3]","(0, 0.25)",ENG006C,ENG,C,English,Fri Aug 24 12:03:02 2018,Mouse
1,0,3,0,68,6,6,1,830,90,740,138,0,500,200,8000,"[(960, 540), (960, 540), (960, 540), (960, 540), (960, 540), (960, 540), (960, 540), (960, 540), (961, 541), (961, 542), (959, 543), (959, 543), (959, 543), (958, 543), (956, 544), (956, 544), (956, 544), (956, 544), (956, 544), (956, 544), (956, 544), (956, 544), (956, 544), (956, 544), (956, 544), (956, 544), (956, 544), (956, 544), (956, 544), (956, 544), (956, 544), (956, 544), (956, 544), (956, 544), (956, 544), (956, 544), (956, 544), (956, 544), (956, 544), (956, 544), (956, 544), (956, 544), (956, 544), (956, 544), (956, 544), (956, 544), (956, 544), (956, 544), (956, 544), (956, 544), (956, 544), (956, 544), (956, 544), (956, 544), (956, 544), (956, 544), (956, 544), (956, 544), (956, 544), (956, 544), (956, 544), (956, 544), (956, 544), (956, 544), (956, 544), (956, 546), (968, 563), (974, 572), (980, 581), (988, 592), (1016, 630), (1030, 650), (1046, 672), (1059, 692), (1084, 735), (1100, 756), (1113, 775), (1131, 796), (1152, 825), (1161, 837), (1169, 846), (1176, 853), (1189, 870)]",55.24169573751391,"[2, 6, 1, 5, 8, 7, 9, 4, 3]","(0, 0.25)",ENG006C,ENG,C,English,Fri Aug 24 12:03:02 2018,Mouse
1,0,3,0,69,5,5,1,530,91,439,138,0,500,200,8000,"[(960, 540), (960, 540), (960, 540), (960, 540), (960, 540), (960, 540), (960, 540), (960, 540), (960, 540), (957, 540), (952, 540), (937, 542), (935, 542), (934, 542), (932, 543), (926, 546), (920, 548), (911, 552), (902, 556), (880, 562), (868, 564), (845, 571), (829, 575), (792, 580), (779, 583), (768, 584), (756, 587), (741, 593), (725, 609), (721, 616), (714, 635), (712, 643), (709, 652), (707, 660), (702, 674), (699, 681), (697, 688), (692, 696), (687, 706), (685, 713), (683, 718), (679, 725), (674, 739), (671, 745), (667, 750), (663, 755), (655, 761), (653, 764), (649, 764), (645, 767), (638, 771), (636, 772), (632, 775)]",144.37978729030394,"[2, 6, 1, 5, 8, 7, 9, 4, 3]","(0, 0.25)",ENG006C,ENG,C,English,Fri Aug 24 12:03:02 2018,Mouse
1,0,3,0,70,5,5,1,371,81,290,137,0,500,200,8000,"[(960, 540), (960, 540), (960, 540), (960, 540), (960, 540), (960, 540), (960, 540), (960, 540), (960, 542), (952, 551), (948, 554), (943, 558), (937, 561), (933, 564), (931, 567), (929, 568), (926, 571), (919, 577), (914, 581), (906, 587), (897, 596), (877, 616), (863, 632), (849, 649), (833, 663), (803, 688), (793, 698), (781, 706), (772, 714), (753, 731), (744, 737), (737, 745), (730, 750), (711, 764), (700, 771), (688, 780), (672, 790), (639, 809)]",140.0367827095225,"[2, 6, 1, 5, 8, 7, 9, 4, 3]","(0, 0.25)",ENG006C,ENG,C,English,Fri Aug 24 12:03:02 2018,Mouse
1,0,3,0,71,1,6,0,-1640,630,1010,136,0,500,200,8000,"[(960, 540), (960, 540), (960, 540), (960, 540), (960, 540), (960, 540), (960, 540), (960, 540), (960, 540), (960, 540), (960, 540), (960, 540), (960, 540), (960, 540), (960, 540), (960, 540), (960, 540), (960, 540), (960, 540), (960, 540), (960, 540), (960, 540), (960, 540), (960, 540), (960, 540), (960, 540), (960, 540), (960, 540), (960, 540), (960, 540), (960, 540), (960, 540), (960, 540), (960, 540), (960, 540), (960, 540), (960, 540), (960, 540), (960, 540), (960, 540), (960, 540), (960, 540), (960, 540), (960, 540), (960, 540), (960, 540), (960, 540), (960, 540), (960, 540), (960, 540), (960, 540), (960, 540), (960, 540), (960, 540), (960, 540), (960, 540), (960, 540), (960, 540), (960, 540), (960, 540), (960, 540), (960, 540), (961, 538), (963, 535), (964, 532), (964, 530), (966, 526), (966, 524), (967, 522), (967, 520), (968, 518), (968, 518), (968, 517), (968, 517), (968, 517), (968, 517), (968, 517), (968, 517), (968, 517), (968, 517), (968, 517), (968, 517), (968, 517), (968, 517), (968, 517), (968, 517), (968, 517), (968, 517), (969, 516), (969, 516), (974, 515), (978, 513), (981, 513), (983, 512), (987, 512), (988, 512), (988, 512), (989, 512), (989, 512), (989, 512), (989, 512), (989, 512), (989, 512), (989, 512), (989, 512), (989, 512), (989, 512), (989, 512), (989, 512), (988, 513), (987, 514), (985, 516), (985, 516), (984, 517), (982, 518), (982, 518), (981, 519), (981, 519), (979, 519), (979, 520), (979, 520), (979, 520), (977, 521), (977, 522), (975, 523), (974, 524), (971, 527), (970, 528), (970, 530), (968, 533), (967, 536), (966, 541), (966, 545), (966, 549), (966, 562), (966, 571), (966, 584), (966, 596), (977, 621), (983, 633), (990, 646), (999, 662), (1016, 687), (1024, 697), (1035, 708), (1043, 718), (1062, 738), (1074, 746), (1085, 756), (1093, 764), (1115, 783), (1123, 790), (1132, 797), (1142, 805), (1160, 820), (1166, 825), (1171, 831), (1176, 836), (1185, 846), (1189, 849), (1190, 851), (1190, 854), (1194, 860), (1196, 865)]",54.014578486962336,"[2, 6, 1, 5, 8, 7, 9, 4, 3]","(0, 0.25)",ENG006C,ENG,C,English,Fri Aug 24 12:03:02 2018,Mouse
1,0,3,0,72,9,9,1,1120,210,910,137,0,500,200,8000,"[(960, 540), (960, 540), (960, 540), (960, 540), (960, 540), (960, 540), (960, 540), (960, 540), (960, 540), (960, 540), (960, 540), (960, 540), (960, 540), (960, 540), (960, 540), (960, 540), (960, 540), (960, 540), (960, 540), (960, 540), (959, 540), (954, 540), (952, 540), (949, 540), (947, 540), (943, 540), (940, 540), (937, 540), (936, 540), (933, 540), (933, 540), (933, 540), (932, 540), (930, 540), (928, 540), (926, 541), (923, 541), (920, 542), (919, 542), (918, 543), (917, 543), (916, 544), (916, 544), (916, 544), (916, 544), (916, 544), (916, 544), (916, 544), (916, 544), (916, 544), (916, 544), (916, 544), (916, 544), (914, 544), (913, 543), (912, 543), (910, 541), (903, 532), (900, 529), (897, 525), (893, 521), (889, 517), (889, 517), (888, 516), (888, 516), (887, 516), (887, 516), (887, 516), (887, 516), (886, 514), (886, 514), (885, 512), (883, 510), (880, 502), (879, 497), (875, 491), (874, 488), (871, 478), (869, 473), (868, 468), (867, 464), (866, 460), (866, 458), (866, 457), (866, 455), (866, 452), (866, 450), (866, 448), (866, 445), (873, 434), (878, 425), (883, 417), (886, 411), (894, 394), (899, 384), (902, 372), (905, 361), (906, 338), (906, 324), (906, 312), (906, 298), (908, 271), (910, 256), (912, 242), (913, 227), (916, 209), (916, 201), (916, 191), (913, 180), (908, 162), (904, 150), (902, 141)]",261.72922081292313,"[2, 6, 1, 5, 8, 7, 9, 4, 3]","(0, 0.25)",ENG006C,ENG,C,English,Fri Aug 24 12:03:02 2018,Mouse
1,0,3,0,73,1,4,0,-1070,750,320,137,0,500,200,8000,"[(960, 540), (960, 540), (960, 540), (960, 540), (960, 540), (960, 540), (960, 540), (960, 540), (960, 540), (960, 540), (960, 540), (960, 540), (960, 540), (960, 540), (960, 540), (960, 540), (960, 540), (960, 540), (960, 540), (960, 540), (960, 540), (960, 540), (960, 540), (960, 540), (960, 540), (960, 540), (960, 540), (960, 540), (960, 540), (960, 540), (960, 540), (960, 540), (960, 540), (960, 540), (960, 540), (960, 540), (960, 540), (960, 540), (960, 540), (960, 540), (960, 540), (960, 540), (960, 540), (960, 540), (960, 540), (960, 540), (960, 540), (960, 540), (960, 540), (960, 540), (960, 540), (960, 540), (960, 540), (960, 540), (960, 540), (960, 540), (960, 540), (960, 540), (960, 540), (960, 540), (960, 540), (960, 540), (960, 540), (960, 540), (960, 540), (960, 540), (960, 540), (960, 540), (960, 540), (960, 540), (960, 540), (960, 540), (960, 540), (960, 540), (962, 540), (962, 540), (962, 540), (962, 540), (963, 540), (964, 540), (968, 538), (971, 534), (978, 529), (984, 524), (996, 514), (1003, 508), (1012, 502), (1017, 497), (1022, 487), (1023, 481), (1023, 477), (1024, 470), (1029, 452), (1030, 442), (1032, 431), (1035, 418), (1045, 387), (1052, 367), (1062, 344), (1069, 331), (1090, 295), (1100, 279), (1108, 263), (1118, 244), (1134, 215), (1141, 200), (1146, 185)]",297.65200586361254,"[2, 6, 1, 5, 8, 7, 9, 4, 3]","(0, 0.25)",ENG006C,ENG,C,English,Fri Aug 24 12:03:02 2018,Mouse
1,0,3,0,74,8,8,1,490,40,450,138,0,500,200,8000,"[(960, 540), (960, 540), (960, 540), (959, 541), (957, 541), (957, 541), (957, 541), (957, 541), (954, 543), (954, 543), (953, 544), (953, 544), (951, 544), (951, 544), (949, 545), (948, 545), (947, 546), (945, 546), (945, 546), (944, 547), (943, 547), (941, 547), (940, 547), (937, 548), (933, 548), (933, 548), (931, 548), (930, 548), (927, 547), (924, 546), (922, 546), (920, 545), (913, 544), (908, 544), (903, 544), (896, 543), (882, 543), (872, 543), (860, 543), (847, 543), (812, 545), (794, 547), (780, 550), (761, 553), (715, 556), (686, 559), (654, 564), (616, 569), (532, 582)]",174.39546093760995,"[2, 6, 1, 5, 8, 7, 9, 4, 3]","(0, 0.25)",ENG006C,ENG,C,English,Fri Aug 24 12:03:02 2018,Mouse
1,0,3,0,75,2,2,1,591,391,200,138,0,500,200,8000,"[(960, 540), (960, 540), (960, 540), (960, 540), (960, 540), (960, 540), (960, 540), (960, 540), (960, 540), (960, 540), (960, 540), (960, 540), (960, 540), (960, 540), (960, 540), (960, 540), (960, 540), (960, 540), (960, 540), (960, 540), (960, 540), (960, 540), (960, 540), (960, 540), (960, 540), (960, 540), (960, 540), (960, 540), (960, 540), (960, 540), (960, 540), (960, 540), (960, 540), (960, 540), (960, 540), (960, 540), (960, 540), (960, 540), (960, 540), (975, 544), (986, 549), (993, 552), (999, 554), (1020, 564), (1030, 570), (1040, 576), (1049, 581), (1072, 594), (1083, 599), (1096, 605), (1110, 610), (1144, 619), (1164, 624), (1186, 632), (1206, 637), (1253, 651), (1272, 655), (1292, 661), (1315, 668), (1360, 676)]",18.77803322244554,"[2, 6, 1, 5, 8, 7, 9, 4, 3]","(0, 0.25)",ENG006C,ENG,C,English,Fri Aug 24 12:03:02 2018,Mouse
1,0,3,0,76,4,4,1,1301,1071,230,137,0,500,200,8000,"[(960, 540), (960, 540), (960, 540), (960, 540), (960, 540), (960, 540), (960, 540), (960, 540), (960, 540), (960, 540), (960, 540), (960, 540), (960, 540), (960, 540), (960, 540), (960, 540), (960, 540), (960, 540), (960, 540), (960, 540), (960, 540), (960, 540), (960, 540), (960, 540), (960, 540), (960, 540), (960, 540), (960, 540), (960, 540), (960, 540), (960, 540), (960, 540), (960, 540), (960, 540), (960, 540), (960, 540), (960, 540), (960, 540), (960, 540), (960, 540), (960, 540), (960, 540), (960, 540), (960, 540), (960, 540), (960, 540), (960, 540), (960, 540), (960, 540), (960, 540), (960, 540), (960, 540), (960, 540), (960, 540), (960, 540), (960, 540), (960, 540), (960, 540), (960, 540), (960, 540), (960, 540), (960, 540), (960, 540), (960, 540), (960, 540), (960, 540), (960, 540), (960, 540), (960, 540), (960, 540), (960, 540), (960, 540), (960, 540), (960, 540), (960, 540), (960, 540), (960, 540), (960, 540), (960, 540), (960, 540), (960, 540), (960, 540), (960, 540), (960, 540), (960, 540), (960, 540), (960, 540), (960, 540), (960, 540), (960, 540), (960, 540), (960, 540), (960, 540), (960, 540), (960, 540), (960, 540), (960, 540), (960, 540), (960, 540), (960, 540), (960, 540), (960, 540), (960, 540), (960, 540), (960, 540), (960, 540), (960, 540), (962, 527), (967, 516), (973, 502), (985, 482), (1000, 449), (1008, 431), (1021, 409), (1028, 396), (1042, 373), (1050, 360), (1055, 352), (1062, 343), (1074, 324), (1080, 314), (1083, 303), (1087, 293), (1097, 270), (1100, 257), (1103, 244), (1106, 230), (1112, 204), (1113, 192), (1115, 181), (1122, 173)]",293.81747339075577,"[2, 6, 1, 5, 8, 7, 9, 4, 3]","(0, 0.25)",ENG006C,ENG,C,English,Fri Aug 24 12:03:02 2018,Mouse
1,0,3,0,77,5,5,1,430,270,160,136,0,500,200,8000,"[(960, 540), (960, 540), (960, 540), (960, 540), (960, 540), (960, 540), (960, 540), (960, 540), (960, 540), (960, 540), (960, 540), (960, 540), (960, 540), (960, 540), (960, 540), (960, 540), (960, 540), (960, 540), (960, 540), (960, 540), (960, 540), (960, 540), (960, 540), (960, 540), (960, 540), (960, 540), (959, 540), (951, 545), (946, 549), (940, 553), (933, 559), (918, 569), (909, 576), (895, 586), (883, 596), (841, 634), (820, 652), (793, 669), (762, 693), (705, 737), (674, 759), (641, 781), (623, 796)]",142.7781005760007,"[2, 6, 1, 5, 8, 7, 9, 4, 3]","(0, 0.25)",ENG006C,ENG,C,English,Fri Aug 24 12:03:02 2018,Mouse
1,0,3,0,78,8,8,1,410,20,390,135,0,500,200,8000,"[(960, 540), (960, 539), (960, 539), (958, 537), (956, 537), (955, 535), (952, 534), (951, 532), (950, 532), (948, 531), (946, 530), (942, 528), (941, 527), (940, 527), (939, 526), (939, 525), (937, 524), (936, 523), (935, 522), (931, 520), (930, 519), (928, 519), (924, 517), (911, 515), (904, 514), (893, 512), (882, 512), (858, 512), (843, 512), (825, 512), (799, 512), (741, 512), (716, 512), (691, 512), (668, 512), (629, 512), (614, 512), (600, 512), (587, 512), (562, 512), (552, 512)]",183.92590770368398,"[2, 6, 1, 5, 8, 7, 9, 4, 3]","(0, 0.25)",ENG006C,ENG,C,English,Fri Aug 24 12:03:02 2018,Mouse
1,0,3,0,79,5,7,0,-770,620,150,134,0,500,200,8000,"[(960, 540), (960, 540), (960, 540), (960, 540), (960, 540), (960, 540), (960, 540), (960, 540), (960, 540), (960, 540), (960, 540), (960, 540), (960, 540), (960, 540), (960, 540), (960, 540), (960, 540), (960, 540), (960, 540), (960, 540), (960, 540), (960, 540), (960, 540), (960, 540), (960, 540), (960, 540), (960, 540), (960, 540), (960, 540), (960, 540), (960, 540), (960, 540), (960, 540), (960, 540), (960, 540), (960, 540), (960, 540), (960, 540), (960, 540), (960, 540), (960, 540), (960, 540), (960, 540), (960, 540), (960, 540), (960, 540), (960, 540), (960, 540), (960, 540), (960, 540), (960, 540), (960, 540), (960, 540), (960, 540), (960, 540), (960, 540), (960, 540), (960, 540), (960, 540), (960, 540), (960, 540), (954, 527), (946, 515), (936, 500), (925, 483), (902, 454), (892, 443), (879, 429), (866, 416), (830, 386), (820, 377), (801, 366), (773, 349), (716, 316), (686, 298), (664, 286), (645, 276)]",219.96621304379994,"[2, 6, 1, 5, 8, 7, 9, 4, 3]","(0, 0.25)",ENG006C,ENG,C,English,Fri Aug 24 12:03:02 2018,Mouse
1,0,3,0,80,1,1,1,601,401,200,135,0,500,200,8000,"[(960, 540), (960, 540), (960, 540), (960, 540), (960, 540), (960, 540), (960, 540), (960, 540), (960, 540), (960, 540), (960, 540), (960, 540), (960, 540), (960, 540), (960, 540), (960, 540), (960, 540), (960, 540), (960, 540), (960, 540), (960, 540), (960, 540), (960, 540), (960, 540), (960, 540), (960, 540), (960, 540), (960, 540), (960, 540), (960, 540), (960, 540), (960, 540), (960, 540), (960, 540), (960, 540), (960, 540), (960, 540), (960, 540), (960, 540), (960, 540), (961, 540), (961, 546), (961, 553), (961, 562), (961, 577), (961, 583), (961, 592), (961, 603), (957, 632), (955, 646), (953, 663), (948, 696), (939, 754), (931, 787), (922, 815), (918, 837), (905, 877), (902, 890), (898, 902), (896, 915), (894, 936)]",99.46232220802563,"[2, 6, 1, 5, 8, 7, 9, 4, 3]","(0, 0.25)",ENG006C,ENG,C,English,Fri Aug 24 12:03:02 2018,Mouse
1,0,3,0,81,4,4,1,1190,960,230,135,0,500,200,8000,"[(960, 540), (960, 540), (960, 540), (960, 540), (960, 540), (960, 540), (960, 540), (960, 540), (960, 540), (960, 540), (960, 540), (960, 540), (960, 540), (960, 540), (960, 540), (960, 540), (960, 540), (960, 540), (960, 540), (960, 540), (960, 540), (960, 540), (960, 540), (960, 540), (960, 540), (960, 540), (960, 540), (960, 540), (960, 540), (960, 540), (960, 540), (960, 540), (960, 540), (960, 540), (960, 540), (960, 540), (960, 540), (960, 540), (960, 540), (960, 540), (960, 540), (960, 540), (960, 540), (960, 540), (960, 540), (960, 540), (960, 540), (960, 540), (960, 540), (960, 540), (960, 540), (960, 540), (960, 540), (960, 540), (960, 540), (960, 540), (960, 540), (960, 540), (960, 540), (960, 540), (960, 540), (960, 540), (960, 540), (960, 540), (960, 540), (960, 540), (960, 540), (960, 540), (960, 540), (960, 540), (960, 540), (960, 540), (960, 540), (960, 540), (960, 540), (960, 540), (960, 540), (960, 540), (960, 540), (960, 540), (960, 540), (960, 540), (960, 540), (960, 540), (960, 540), (960, 540), (960, 540), (960, 540), (960, 540), (960, 540), (960, 540), (960, 540), (960, 540), (960, 540), (960, 540), (961, 537), (968, 533), (972, 529), (986, 518), (995, 514), (1001, 509), (1007, 502), (1022, 487), (1027, 479), (1032, 471), (1040, 458), (1057, 426), (1067, 404), (1079, 376), (1091, 347), (1108, 308), (1117, 294), (1126, 280), (1135, 270), (1154, 249), (1164, 241), (1172, 232), (1183, 225), (1211, 204)]",306.76060683034973,"[2, 6, 1, 5, 8, 7, 9, 4, 3]","(0, 0.25)",ENG006C,ENG,C,English,Fri Aug 24 12:03:02 2018,Mouse
1,0,3,0,82,3,8,0,-441,281,160,134,0,500,200,8000,"[(960, 540), (960, 540), (960, 540), (960, 540), (960, 540), (960, 540), (960, 540), (960, 540), (960, 540), (960, 540), (960, 540), (960, 540), (960, 540), (960, 540), (960, 540), (960, 540), (960, 540), (960, 540), (960, 540), (960, 540), (960, 540), (960, 540), (960, 540), (960, 540), (960, 540), (960, 540), (960, 540), (960, 540), (958, 541), (950, 542), (944, 542), (936, 542), (932, 542), (925, 542), (914, 542), (888, 542), (875, 542), (852, 542), (824, 542), (746, 542), (710, 542), (666, 542), (629, 542), (573, 544), (546, 548)]",178.89297295431925,"[2, 6, 1, 5, 8, 7, 9, 4, 3]","(0, 0.25)",ENG006C,ENG,C,English,Fri Aug 24 12:03:02 2018,Mouse
