NativeLangNumber,LanuageNumber,SessionNumber,Block,TrialNum,ConditionNumber,Response,Accuracy,RT,MovementOnsetTime,TimeInMotion,SignalContrast,SignalContrastNumber,StimDisplayTime,MaskTime,MaxResponseTime,MousePositionXY,MouseAngle,WheelOrder,NoiseMuSigma,ParticipantID,LanuageTested,SessionTested,NativeLanuage,Date,ResponseDevice
1,0,1,0,1,9,9,1,727,347,380,153,0,500,200,8000,"[(960, 540), (960, 540), (960, 540), (960, 540), (960, 540), (960, 540), (960, 540), (960, 540), (960, 540), (960, 540), (960, 540), (960, 540), (960, 540), (960, 540), (960, 540), (960, 540), (960, 540), (960, 540), (960, 540), (960, 540), (960, 540), (960, 540), (960, 540), (960, 540), (960, 540), (960, 540), (960, 540), (960, 540), (960, 540), (960, 540), (960, 540), (960, 540), (960, 540), (960, 540), (959, 539), (959, 539), (959, 539), (959, 539), (959, 539), (959, 539), (959, 539), (959, 539), (959, 539), (959, 539), (959, 539), (959, 539), (959, 539), (959, 539), (959, 539), (959, 539), (959, 539), (959, 539), (959, 539), (959, 539), (959, 539), (959, 539), (959, 539), (959, 539), (959, 539), (959, 539), (959, 539), (969, 535), (989, 525), (1002, 518), (1017, 512), (1033, 504), (1083, 479), (1115, 465), (1147, 453), (1179, 437), (1262, 398), (1305, 381), (1348, 361)]",335.2342245470561,"[4, 8, 2, 7, 1, 5, 6, 3, 9]","(0, 0.25)",ENG011A,ENG,A,English,Thu Aug 30 11:27:03 2018,Mouse
1,0,1,0,2,9,9,1,401,41,360,153,0,500,200,8000,"[(960, 540), (960, 540), (960, 540), (960, 540), (961, 541), (961, 541), (961, 541), (961, 541), (961, 541), (961, 541), (961, 541), (961, 541), (961, 541), (961, 541), (961, 541), (961, 541), (961, 541), (961, 541), (961, 541), (961, 541), (961, 541), (961, 541), (961, 541), (961, 541), (961, 541), (961, 541), (961, 541), (961, 541), (961, 541), (969, 541), (975, 541), (987, 538), (998, 535), (1045, 514), (1068, 505), (1097, 493), (1128, 484), (1216, 445), (1254, 436), (1299, 422), (1342, 405)]",340.5364318573559,"[4, 8, 2, 7, 1, 5, 6, 3, 9]","(0, 0.25)",ENG011A,ENG,A,English,Thu Aug 30 11:27:03 2018,Mouse
1,0,1,0,3,4,4,1,1081,981,100,152,0,500,200,8000,"[(960, 540), (960, 540), (960, 540), (960, 540), (960, 540), (960, 540), (960, 540), (960, 540), (960, 540), (960, 540), (960, 540), (960, 540), (960, 540), (960, 540), (960, 540), (960, 540), (960, 540), (960, 540), (960, 540), (960, 540), (960, 540), (960, 540), (960, 540), (960, 540), (960, 540), (960, 540), (960, 540), (960, 540), (960, 540), (960, 540), (960, 540), (960, 540), (960, 540), (960, 540), (960, 540), (960, 540), (960, 540), (960, 540), (960, 540), (960, 540), (960, 540), (960, 540), (960, 540), (960, 540), (960, 540), (960, 540), (960, 540), (960, 540), (960, 540), (960, 540), (960, 540), (960, 540), (960, 540), (960, 540), (960, 540), (960, 540), (960, 540), (960, 540), (960, 540), (960, 540), (960, 540), (960, 540), (960, 540), (960, 540), (960, 540), (960, 540), (960, 540), (960, 540), (960, 540), (960, 540), (960, 540), (960, 540), (960, 540), (960, 540), (960, 540), (960, 540), (960, 540), (960, 540), (960, 540), (960, 540), (960, 540), (960, 540), (960, 540), (960, 540), (960, 540), (960, 540), (960, 540), (960, 540), (960, 540), (960, 540), (960, 540), (960, 540), (960, 540), (960, 540), (960, 540), (960, 540), (960, 540), (962, 547), (977, 554), (1021, 579), (1045, 594), (1077, 610), (1112, 624), (1181, 653), (1221, 670), (1254, 681), (1290, 690), (1343, 706)]",23.432890916849928,"[4, 8, 2, 7, 1, 5, 6, 3, 9]","(0, 0.25)",ENG011A,ENG,A,English,Thu Aug 30 11:27:03 2018,Mouse
1,0,1,0,4,9,9,1,359,239,120,151,0,500,200,8000,"[(960, 540), (960, 540), (960, 540), (960, 540), (960, 540), (960, 540), (960, 540), (960, 540), (960, 540), (960, 540), (960, 540), (960, 540), (960, 540), (960, 540), (960, 540), (960, 540), (960, 540), (960, 540), (960, 540), (960, 540), (960, 540), (960, 540), (960, 540), (962, 539), (970, 535), (976, 533), (996, 527), (1007, 522), (1020, 519), (1034, 515), (1085, 500), (1115, 492), (1160, 478), (1201, 467), (1295, 439), (1345, 427)]",343.6426935750894,"[4, 8, 2, 7, 1, 5, 6, 3, 9]","(0, 0.25)",ENG011A,ENG,A,English,Thu Aug 30 11:27:03 2018,Mouse
1,0,1,0,5,2,2,1,2240,1660,580,150,0,500,200,8000,"[(960, 540), (960, 540), (960, 540), (960, 540), (960, 540), (960, 540), (960, 540), (960, 540), (960, 540), (960, 540), (960, 540), (960, 540), (960, 540), (960, 540), (960, 540), (960, 540), (960, 540), (960, 540), (960, 540), (960, 540), (960, 540), (960, 540), (960, 540), (960, 540), (960, 540), (960, 540), (960, 540), (960, 540), (960, 540), (960, 540), (960, 540), (960, 540), (960, 540), (960, 540), (960, 540), (960, 540), (960, 540), (960, 540), (960, 540), (960, 540), (960, 540), (960, 540), (960, 540), (960, 540), (960, 540), (960, 540), (960, 540), (960, 540), (960, 540), (960, 540), (960, 540), (960, 540), (960, 540), (960, 540), (960, 540), (960, 540), (960, 540), (960, 540), (960, 540), (960, 540), (960, 540), (960, 540), (960, 540), (960, 540), (960, 540), (960, 540), (960, 540), (960, 540), (960, 540), (960, 540), (960, 540), (960, 540), (960, 540), (960, 540), (960, 540), (960, 540), (960, 540), (960, 540), (960, 540), (960, 540), (960, 540), (960, 540), (960, 540), (960, 540), (960, 540), (960, 540), (960, 540), (960, 540), (960, 540), (960, 540), (960, 540), (960, 540), (960, 540), (960, 540), (960, 540), (960, 540), (960, 540), (960, 540), (960, 540), (960, 540), (960, 540), (960, 540), (960, 540), (960, 540), (960, 540), (960, 540), (960, 540), (960, 540), (960, 540), (960, 540), (960, 540), (960, 540), (960, 540), (960, 540), (960, 540), (960, 540), (960, 540), (960, 540), (960, 540), (960, 540), (960, 540), (960, 540), (960, 540), (960, 540), (960, 540), (960, 540), (960, 540), (960, 540), (960, 540), (960, 540), (960, 540), (960, 540), (960, 540), (960, 540), (960, 540), (960, 540), (960, 540), (960, 540), (960, 540), (960, 540), (960, 540), (960, 540), (960, 540), (960, 540), (960, 540), (960, 540), (960, 540), (960, 540), (960, 540), (960, 540), (960, 540), (960, 540), (960, 540), (960, 540), (960, 540), (960, 540), (960, 540), (960, 540), (960, 540), (960, 540), (960, 540), (960, 540), (960, 540), (960, 540), (960, 540), (954, 540), (948, 539), (939, 535), (931, 531), (921, 522), (918, 520), (918, 517), (918, 516), (917, 512), (917, 512), (917, 512), (917, 512), (917, 512), (917, 512), (917, 512), (917, 512), (917, 512), (917, 512), (917, 512), (917, 512), (917, 512), (917, 512), (917, 512), (917, 512), (917, 512), (917, 512), (917, 512), (917, 512), (917, 512), (917, 512), (917, 512), (917, 512), (917, 512), (917, 512), (917, 512), (917, 512), (917, 512), (917, 512), (917, 512), (917, 512), (917, 512), (917, 512), (917, 512), (917, 512), (917, 511), (917, 513), (917, 517), (917, 524), (917, 543), (916, 556), (914, 570), (913, 589), (906, 650), (905, 684), (897, 727), (893, 770), (877, 875), (872, 924), (868, 972)]",102.02227668618352,"[4, 8, 2, 7, 1, 5, 6, 3, 9]","(0, 0.25)",ENG011A,ENG,A,English,Thu Aug 30 11:27:03 2018,Mouse
1,0,1,0,6,4,4,1,1159,1059,100,149,0,500,200,8000,"[(960, 540), (960, 540), (960, 540), (960, 540), (960, 540), (960, 540), (960, 540), (960, 540), (960, 540), (960, 540), (960, 540), (960, 540), (960, 540), (960, 540), (960, 540), (960, 540), (960, 540), (960, 540), (960, 540), (960, 540), (960, 540), (960, 540), (960, 540), (960, 540), (960, 540), (960, 540), (960, 540), (960, 540), (960, 540), (960, 540), (960, 540), (960, 540), (960, 540), (960, 540), (960, 540), (960, 540), (960, 540), (960, 540), (960, 540), (960, 540), (960, 540), (960, 540), (960, 540), (960, 540), (960, 540), (960, 540), (960, 540), (960, 540), (960, 540), (960, 540), (960, 540), (960, 540), (960, 540), (960, 540), (960, 540), (960, 540), (960, 540), (960, 540), (960, 540), (960, 540), (960, 540), (960, 540), (960, 540), (960, 540), (960, 540), (960, 540), (960, 540), (960, 540), (960, 540), (960, 540), (960, 540), (960, 540), (960, 540), (960, 540), (960, 540), (960, 540), (960, 540), (960, 540), (960, 540), (960, 540), (960, 540), (960, 540), (960, 540), (960, 540), (960, 540), (960, 540), (960, 540), (960, 540), (960, 540), (960, 540), (960, 540), (960, 540), (960, 540), (960, 540), (960, 540), (960, 540), (960, 540), (960, 540), (960, 540), (960, 540), (960, 540), (960, 540), (960, 540), (960, 540), (960, 540), (961, 543), (975, 550), (999, 561), (1060, 587), (1093, 598), (1132, 607), (1176, 619), (1252, 642), (1290, 652), (1326, 662), (1373, 672)]",17.724534281359926,"[4, 8, 2, 7, 1, 5, 6, 3, 9]","(0, 0.25)",ENG011A,ENG,A,English,Thu Aug 30 11:27:03 2018,Mouse
1,0,1,0,7,5,5,1,920,840,80,148,0,500,200,8000,"[(960, 540), (960, 540), (960, 540), (960, 540), (960, 540), (960, 540), (960, 540), (960, 540), (960, 540), (960, 540), (960, 540), (960, 540), (960, 540), (960, 540), (960, 540), (960, 540), (960, 540), (960, 540), (960, 540), (960, 540), (960, 540), (960, 540), (960, 540), (960, 540), (960, 540), (960, 540), (960, 540), (960, 540), (960, 540), (960, 540), (960, 540), (960, 540), (960, 540), (960, 540), (960, 540), (960, 540), (960, 540), (960, 540), (960, 540), (960, 540), (960, 540), (960, 540), (960, 540), (960, 540), (960, 540), (960, 540), (960, 540), (960, 540), (960, 540), (960, 540), (960, 540), (960, 540), (960, 540), (960, 540), (960, 540), (960, 540), (960, 540), (960, 540), (960, 540), (960, 540), (960, 540), (960, 540), (960, 540), (960, 540), (960, 540), (960, 540), (960, 540), (960, 540), (960, 540), (960, 540), (960, 540), (960, 540), (960, 540), (960, 540), (960, 540), (960, 540), (960, 540), (960, 540), (960, 540), (960, 540), (960, 540), (960, 540), (960, 540), (948, 535), (937, 527), (923, 514), (900, 496), (850, 449), (810, 417), (766, 387), (721, 352), (637, 288)]",217.96084752528935,"[4, 8, 2, 7, 1, 5, 6, 3, 9]","(0, 0.25)",ENG011A,ENG,A,English,Thu Aug 30 11:27:03 2018,Mouse
1,0,1,0,8,6,6,1,1410,830,580,147,0,500,200,8000,"[(960, 540), (960, 540), (960, 540), (960, 540), (960, 540), (960, 540), (960, 540), (960, 540), (960, 540), (960, 540), (960, 540), (960, 540), (960, 540), (960, 540), (960, 540), (960, 540), (960, 540), (960, 540), (960, 540), (960, 540), (960, 540), (960, 540), (960, 540), (960, 540), (960, 540), (960, 540), (960, 540), (960, 540), (960, 540), (960, 540), (960, 540), (960, 540), (960, 540), (960, 540), (960, 540), (960, 540), (960, 540), (960, 540), (960, 540), (960, 540), (960, 540), (960, 540), (960, 540), (960, 540), (960, 540), (960, 540), (960, 540), (960, 540), (960, 540), (960, 540), (960, 540), (960, 540), (960, 540), (960, 540), (960, 540), (960, 540), (960, 540), (960, 540), (960, 540), (960, 540), (960, 540), (960, 540), (960, 540), (960, 540), (960, 540), (960, 540), (960, 540), (960, 540), (960, 540), (960, 540), (960, 540), (960, 540), (960, 540), (960, 540), (960, 540), (960, 540), (960, 540), (960, 540), (960, 540), (960, 540), (960, 540), (960, 540), (960, 541), (960, 541), (960, 541), (960, 541), (960, 541), (960, 541), (960, 541), (960, 541), (960, 541), (960, 541), (960, 541), (960, 541), (960, 541), (960, 541), (960, 541), (960, 541), (960, 541), (960, 541), (960, 541), (960, 541), (960, 541), (960, 541), (960, 541), (960, 541), (960, 541), (960, 541), (960, 541), (960, 541), (960, 541), (960, 541), (960, 541), (960, 541), (960, 541), (960, 541), (960, 541), (960, 541), (960, 541), (960, 541), (960, 541), (960, 541), (960, 541), (960, 541), (960, 541), (960, 541), (960, 541), (960, 541), (960, 541), (960, 541), (962, 524), (962, 509), (962, 493), (962, 465), (962, 395), (961, 359), (958, 322), (948, 272), (939, 190), (933, 144), (931, 99)]",266.2376672764298,"[4, 8, 2, 7, 1, 5, 6, 3, 9]","(0, 0.25)",ENG011A,ENG,A,English,Thu Aug 30 11:27:03 2018,Mouse
1,0,1,0,9,2,2,1,1600,1510,90,146,0,500,200,8000,"[(960, 540), (960, 540), (960, 540), (960, 540), (960, 540), (960, 540), (960, 540), (960, 540), (960, 540), (960, 540), (960, 540), (960, 540), (960, 540), (960, 540), (960, 540), (960, 540), (960, 540), (960, 540), (960, 540), (960, 540), (960, 540), (960, 540), (960, 540), (960, 540), (960, 540), (960, 540), (960, 540), (960, 540), (960, 540), (960, 540), (960, 540), (960, 540), (960, 540), (960, 540), (960, 540), (960, 540), (960, 540), (960, 540), (960, 540), (960, 540), (960, 540), (960, 540), (960, 540), (960, 540), (960, 540), (960, 540), (960, 540), (960, 540), (960, 540), (960, 540), (960, 540), (960, 540), (960, 540), (960, 540), (960, 540), (960, 540), (960, 540), (960, 540), (960, 540), (960, 540), (960, 540), (960, 540), (960, 540), (960, 540), (960, 540), (960, 540), (960, 540), (960, 540), (960, 540), (960, 540), (960, 540), (960, 540), (960, 540), (960, 540), (960, 540), (960, 540), (960, 540), (960, 540), (960, 540), (960, 540), (960, 540), (960, 540), (960, 540), (960, 540), (960, 540), (960, 540), (960, 540), (960, 540), (960, 540), (960, 540), (960, 540), (960, 540), (960, 540), (960, 540), (960, 540), (960, 540), (960, 540), (960, 540), (960, 540), (960, 540), (960, 540), (960, 540), (960, 540), (960, 540), (960, 540), (960, 540), (960, 540), (960, 540), (960, 540), (960, 540), (960, 540), (960, 540), (960, 540), (960, 540), (960, 540), (960, 540), (960, 540), (960, 540), (960, 540), (960, 540), (960, 540), (960, 540), (960, 540), (960, 540), (960, 540), (960, 540), (960, 540), (960, 540), (960, 540), (960, 540), (960, 540), (960, 540), (960, 540), (960, 540), (960, 540), (960, 540), (960, 540), (960, 540), (960, 540), (960, 540), (960, 540), (960, 540), (960, 540), (960, 540), (960, 540), (960, 540), (960, 540), (960, 540), (960, 540), (960, 540), (959, 545), (954, 557), (942, 588), (928, 617), (916, 643), (898, 681), (855, 778), (827, 842), (805, 896), (774, 964)]",113.68606411286666,"[4, 8, 2, 7, 1, 5, 6, 3, 9]","(0, 0.25)",ENG011A,ENG,A,English,Thu Aug 30 11:27:03 2018,Mouse
1,0,1,0,10,7,7,1,960,810,150,145,0,500,200,8000,"[(960, 540), (960, 540), (960, 540), (960, 540), (960, 540), (960, 540), (960, 540), (960, 540), (960, 540), (960, 540), (960, 540), (960, 540), (960, 540), (960, 540), (960, 540), (960, 540), (960, 540), (960, 540), (960, 540), (960, 540), (960, 540), (960, 540), (960, 540), (960, 540), (960, 540), (960, 540), (960, 540), (960, 540), (960, 540), (960, 540), (960, 540), (960, 540), (960, 540), (960, 540), (960, 540), (960, 540), (960, 540), (960, 540), (960, 540), (960, 540), (960, 540), (960, 540), (960, 540), (960, 540), (960, 540), (960, 540), (960, 540), (960, 540), (960, 540), (960, 540), (960, 540), (960, 540), (960, 540), (960, 540), (960, 540), (960, 540), (960, 540), (960, 540), (960, 540), (960, 540), (960, 540), (960, 540), (960, 540), (960, 540), (960, 540), (960, 540), (960, 540), (960, 540), (960, 540), (960, 540), (960, 540), (960, 540), (960, 540), (960, 540), (960, 540), (960, 540), (960, 540), (960, 540), (960, 540), (960, 540), (960, 542), (956, 545), (951, 550), (938, 563), (928, 572), (919, 581), (910, 592), (880, 626), (864, 646), (847, 667), (809, 711), (790, 739), (773, 766), (753, 799), (728, 835), (686, 902)]",127.12230032813319,"[4, 8, 2, 7, 1, 5, 6, 3, 9]","(0, 0.25)",ENG011A,ENG,A,English,Thu Aug 30 11:27:03 2018,Mouse
1,0,1,0,11,8,8,1,810,700,110,144,0,500,200,8000,"[(960, 540), (960, 540), (960, 540), (960, 540), (960, 540), (960, 540), (960, 540), (960, 540), (960, 540), (960, 540), (960, 540), (960, 540), (960, 540), (960, 540), (960, 540), (960, 540), (960, 540), (960, 540), (960, 540), (960, 540), (960, 540), (960, 540), (960, 540), (960, 540), (960, 540), (960, 540), (960, 540), (960, 540), (960, 540), (960, 540), (960, 540), (960, 540), (960, 540), (960, 540), (960, 540), (960, 540), (960, 540), (960, 540), (960, 540), (960, 540), (960, 540), (960, 540), (960, 540), (960, 540), (960, 540), (960, 540), (960, 540), (960, 540), (960, 540), (960, 540), (960, 540), (960, 540), (960, 540), (960, 540), (960, 540), (960, 540), (960, 540), (960, 540), (960, 540), (960, 540), (960, 540), (960, 540), (960, 540), (960, 540), (960, 540), (960, 540), (960, 540), (960, 540), (960, 540), (966, 545), (972, 555), (981, 571), (991, 589), (1019, 638), (1037, 671), (1052, 698), (1072, 731), (1113, 802), (1134, 837), (1156, 871), (1172, 893)]",59.01238017088353,"[4, 8, 2, 7, 1, 5, 6, 3, 9]","(0, 0.25)",ENG011A,ENG,A,English,Thu Aug 30 11:27:03 2018,Mouse
1,0,1,0,12,3,3,1,498,398,100,143,0,500,200,8000,"[(960, 540), (960, 540), (960, 540), (960, 540), (960, 540), (960, 540), (960, 540), (960, 540), (960, 540), (960, 540), (960, 540), (960, 540), (960, 540), (960, 540), (960, 540), (960, 540), (960, 540), (960, 540), (960, 540), (960, 540), (960, 540), (960, 540), (960, 540), (960, 540), (960, 540), (960, 540), (960, 540), (960, 540), (960, 540), (960, 540), (960, 540), (960, 540), (960, 540), (960, 540), (960, 540), (960, 540), (960, 540), (960, 540), (960, 540), (959, 537), (967, 513), (974, 498), (983, 480), (994, 459), (1017, 403), (1035, 371), (1052, 331), (1067, 294), (1106, 208), (1129, 167)]",294.37447731303973,"[4, 8, 2, 7, 1, 5, 6, 3, 9]","(0, 0.25)",ENG011A,ENG,A,English,Thu Aug 30 11:27:03 2018,Mouse
1,0,1,0,13,2,2,1,1380,300,1080,142,0,500,200,8000,"[(960, 540), (960, 540), (960, 540), (960, 540), (960, 540), (960, 540), (960, 540), (960, 540), (960, 540), (960, 540), (960, 540), (960, 540), (960, 540), (960, 540), (960, 540), (960, 540), (960, 540), (960, 540), (960, 540), (960, 540), (960, 540), (960, 540), (960, 540), (960, 540), (960, 540), (960, 540), (960, 540), (960, 540), (960, 540), (960, 539), (960, 534), (959, 531), (957, 527), (955, 522), (953, 519), (953, 518), (953, 518), (952, 517), (952, 516), (951, 516), (949, 516), (945, 516), (944, 516), (942, 516), (941, 516), (941, 516), (941, 516), (941, 516), (941, 516), (941, 516), (941, 516), (941, 516), (941, 516), (941, 516), (941, 516), (941, 516), (941, 516), (941, 516), (941, 516), (941, 516), (941, 516), (941, 516), (941, 516), (941, 516), (941, 516), (941, 516), (941, 516), (941, 516), (941, 516), (941, 516), (941, 516), (941, 516), (941, 516), (941, 516), (941, 516), (941, 516), (941, 516), (941, 516), (941, 516), (941, 516), (941, 516), (941, 516), (941, 516), (941, 516), (941, 516), (941, 516), (941, 516), (941, 516), (941, 516), (941, 516), (941, 516), (941, 516), (941, 516), (941, 516), (941, 516), (941, 516), (941, 516), (941, 516), (941, 516), (941, 516), (941, 516), (941, 516), (941, 516), (941, 516), (941, 516), (941, 516), (941, 516), (941, 516), (941, 516), (941, 516), (941, 516), (941, 516), (941, 516), (941, 516), (941, 516), (941, 516), (941, 516), (941, 516), (941, 516), (941, 516), (941, 516), (941, 516), (941, 516), (941, 516), (941, 516), (939, 519), (937, 529), (937, 541), (935, 557), (929, 601), (926, 633), (918, 668), (913, 709), (907, 793), (907, 835), (907, 879), (900, 920), (888, 1028)]",98.3929251873925,"[4, 8, 2, 7, 1, 5, 6, 3, 9]","(0, 0.25)",ENG011A,ENG,A,English,Thu Aug 30 11:27:03 2018,Mouse
1,0,1,0,14,1,1,1,511,421,90,141,0,500,200,8000,"[(960, 540), (960, 540), (960, 540), (960, 540), (960, 540), (960, 540), (960, 540), (960, 540), (960, 540), (960, 540), (960, 540), (960, 540), (960, 540), (960, 540), (960, 540), (960, 540), (960, 540), (960, 540), (960, 540), (960, 540), (960, 540), (960, 540), (960, 540), (960, 540), (960, 540), (960, 540), (960, 540), (960, 540), (960, 540), (960, 540), (960, 540), (960, 540), (960, 540), (960, 540), (960, 540), (960, 540), (960, 540), (960, 540), (960, 540), (960, 540), (960, 540), (960, 540), (959, 540), (943, 551), (929, 557), (912, 562), (874, 565), (768, 571), (704, 571), (642, 564), (569, 553), (421, 525)]",181.59409077222256,"[4, 8, 2, 7, 1, 5, 6, 3, 9]","(0, 0.25)",ENG011A,ENG,A,English,Thu Aug 30 11:27:03 2018,Mouse
1,0,1,0,15,6,6,1,591,481,110,140,0,500,200,8000,"[(960, 540), (960, 540), (960, 540), (960, 540), (960, 540), (960, 540), (960, 540), (960, 540), (960, 540), (960, 540), (960, 540), (960, 540), (960, 540), (960, 540), (960, 540), (960, 540), (960, 540), (960, 540), (960, 540), (960, 540), (960, 540), (960, 540), (960, 540), (960, 540), (960, 540), (960, 540), (960, 540), (960, 540), (960, 540), (960, 540), (960, 540), (960, 540), (960, 540), (960, 540), (960, 540), (960, 540), (960, 540), (960, 540), (960, 540), (960, 540), (960, 540), (960, 540), (960, 540), (960, 540), (960, 540), (960, 540), (960, 540), (960, 540), (961, 538), (963, 523), (966, 511), (973, 466), (974, 435), (974, 405), (974, 374), (974, 302), (970, 264), (956, 217), (944, 167), (919, 79)]",264.9176518951402,"[4, 8, 2, 7, 1, 5, 6, 3, 9]","(0, 0.25)",ENG011A,ENG,A,English,Thu Aug 30 11:27:03 2018,Mouse
1,0,1,0,16,2,2,1,1410,1270,140,139,0,500,200,8000,"[(960, 540), (960, 540), (960, 540), (960, 540), (960, 540), (960, 540), (960, 540), (960, 540), (960, 540), (960, 540), (960, 540), (960, 540), (960, 540), (960, 540), (960, 540), (960, 540), (960, 540), (960, 540), (960, 540), (960, 540), (960, 540), (960, 540), (960, 540), (960, 540), (960, 540), (960, 540), (960, 540), (960, 540), (960, 540), (960, 540), (960, 540), (960, 540), (960, 540), (960, 540), (960, 540), (960, 540), (960, 540), (960, 540), (960, 540), (960, 540), (960, 540), (960, 540), (960, 540), (960, 540), (960, 540), (960, 540), (960, 540), (960, 540), (960, 540), (960, 540), (960, 540), (960, 540), (960, 540), (960, 540), (960, 540), (960, 540), (960, 540), (960, 540), (960, 540), (960, 540), (960, 540), (960, 540), (960, 540), (960, 540), (960, 540), (960, 540), (960, 540), (960, 540), (960, 540), (960, 540), (960, 540), (960, 540), (960, 540), (960, 540), (960, 540), (960, 540), (960, 540), (960, 540), (960, 540), (960, 540), (960, 540), (960, 540), (960, 540), (960, 540), (960, 540), (960, 540), (960, 540), (960, 540), (960, 540), (960, 540), (960, 540), (960, 540), (960, 540), (960, 540), (960, 540), (960, 540), (960, 540), (960, 540), (960, 540), (960, 540), (960, 540), (960, 540), (960, 540), (960, 540), (960, 540), (960, 540), (960, 540), (960, 540), (960, 540), (960, 540), (960, 540), (960, 540), (960, 540), (960, 540), (960, 540), (960, 540), (960, 540), (960, 540), (960, 540), (960, 540), (960, 540), (960, 540), (960, 540), (960, 540), (960, 540), (960, 540), (954, 554), (951, 565), (948, 577), (943, 592), (936, 618), (929, 638), (927, 657), (924, 678), (919, 732), (916, 761), (916, 789), (916, 823), (914, 893), (914, 921), (914, 940)]",96.5601964005713,"[4, 8, 2, 7, 1, 5, 6, 3, 9]","(0, 0.25)",ENG011A,ENG,A,English,Thu Aug 30 11:27:03 2018,Mouse
1,0,1,0,17,3,3,1,710,590,120,138,0,500,200,8000,"[(960, 540), (960, 540), (960, 540), (960, 540), (960, 540), (960, 540), (960, 540), (960, 540), (960, 540), (960, 540), (960, 540), (960, 540), (960, 540), (960, 540), (960, 540), (960, 540), (960, 540), (960, 540), (960, 540), (960, 540), (960, 540), (960, 540), (960, 540), (960, 540), (960, 540), (960, 540), (960, 540), (960, 540), (960, 540), (960, 540), (960, 540), (960, 540), (960, 540), (960, 540), (960, 540), (960, 540), (960, 540), (960, 540), (960, 540), (960, 540), (960, 540), (960, 540), (960, 540), (960, 540), (960, 540), (960, 540), (960, 540), (960, 540), (960, 540), (960, 540), (960, 540), (960, 540), (960, 540), (960, 540), (960, 540), (960, 540), (960, 540), (960, 540), (961, 540), (964, 537), (974, 519), (979, 508), (987, 493), (999, 474), (1023, 430), (1039, 403), (1052, 374), (1071, 339), (1106, 251), (1126, 205), (1145, 165)]",296.2586595548073,"[4, 8, 2, 7, 1, 5, 6, 3, 9]","(0, 0.25)",ENG011A,ENG,A,English,Thu Aug 30 11:27:03 2018,Mouse
1,0,1,0,18,2,2,1,1040,530,510,137,0,500,200,8000,"[(960, 540), (960, 540), (960, 540), (960, 540), (960, 540), (960, 540), (960, 540), (960, 540), (960, 540), (960, 540), (960, 540), (960, 540), (960, 540), (960, 540), (960, 540), (960, 540), (960, 540), (960, 540), (960, 540), (960, 540), (960, 540), (960, 540), (960, 540), (960, 540), (960, 540), (960, 540), (960, 540), (960, 540), (960, 540), (960, 540), (960, 540), (960, 540), (960, 540), (960, 540), (960, 540), (960, 540), (960, 540), (960, 540), (960, 540), (960, 540), (960, 540), (960, 540), (960, 540), (960, 540), (960, 540), (960, 540), (960, 540), (960, 540), (960, 540), (960, 540), (960, 540), (960, 540), (955, 543), (953, 543), (952, 543), (950, 543), (947, 541), (946, 540), (946, 539), (946, 538), (946, 538), (946, 538), (946, 538), (946, 538), (946, 538), (946, 538), (946, 538), (946, 538), (946, 538), (946, 538), (946, 538), (946, 538), (946, 541), (946, 544), (946, 545), (946, 548), (946, 557), (947, 562), (947, 568), (947, 575), (947, 591), (947, 598), (947, 606), (947, 613), (944, 629), (943, 633), (943, 637), (941, 642), (941, 646), (941, 648), (941, 649), (941, 651), (941, 656), (941, 661), (941, 669), (941, 680), (935, 714), (924, 745), (916, 778), (907, 809), (893, 874), (890, 901), (887, 930), (884, 953)]",100.42688202333682,"[4, 8, 2, 7, 1, 5, 6, 3, 9]","(0, 0.25)",ENG011A,ENG,A,English,Thu Aug 30 11:27:03 2018,Mouse
1,0,1,0,19,3,3,1,441,301,140,136,0,500,200,8000,"[(960, 540), (960, 540), (960, 540), (960, 540), (960, 540), (960, 540), (960, 540), (960, 540), (960, 540), (960, 540), (960, 540), (960, 540), (960, 540), (960, 540), (960, 540), (960, 540), (960, 540), (960, 540), (960, 540), (960, 540), (960, 540), (960, 540), (960, 540), (960, 540), (960, 540), (960, 540), (960, 540), (960, 540), (960, 540), (960, 540), (960, 537), (960, 531), (965, 518), (971, 508), (977, 496), (984, 485), (1003, 447), (1013, 421), (1024, 397), (1036, 368), (1062, 305), (1079, 270), (1091, 236), (1108, 201), (1142, 124)]",293.6293777306568,"[4, 8, 2, 7, 1, 5, 6, 3, 9]","(0, 0.25)",ENG011A,ENG,A,English,Thu Aug 30 11:27:03 2018,Mouse
1,0,1,0,20,9,9,1,430,320,110,135,0,500,200,8000,"[(960, 540), (960, 540), (960, 540), (960, 540), (960, 540), (960, 540), (960, 540), (960, 540), (960, 540), (960, 540), (960, 540), (960, 540), (960, 540), (960, 540), (960, 540), (960, 540), (960, 540), (960, 540), (960, 540), (960, 540), (960, 540), (960, 540), (960, 540), (960, 540), (960, 540), (960, 540), (960, 540), (960, 540), (960, 540), (960, 540), (960, 540), (960, 541), (967, 541), (975, 539), (1002, 532), (1025, 526), (1052, 518), (1085, 511), (1150, 490), (1195, 474), (1232, 455), (1280, 440), (1371, 400)]",341.1894833473815,"[4, 8, 2, 7, 1, 5, 6, 3, 9]","(0, 0.25)",ENG011A,ENG,A,English,Thu Aug 30 11:27:03 2018,Mouse
1,0,1,0,21,4,4,1,1290,1180,110,134,0,500,200,8000,"[(960, 540), (960, 540), (960, 540), (960, 540), (960, 540), (960, 540), (960, 540), (960, 540), (960, 540), (960, 540), (960, 540), (960, 540), (960, 540), (960, 540), (960, 540), (960, 540), (960, 540), (960, 540), (960, 540), (960, 540), (960, 540), (960, 540), (960, 540), (960, 540), (960, 540), (960, 540), (960, 540), (960, 540), (960, 540), (960, 540), (960, 540), (960, 540), (960, 540), (960, 540), (960, 540), (960, 540), (960, 540), (960, 540), (960, 540), (960, 540), (960, 540), (960, 540), (960, 540), (960, 540), (960, 540), (960, 540), (960, 540), (960, 540), (960, 540), (960, 540), (960, 540), (960, 540), (960, 540), (960, 540), (960, 540), (960, 540), (960, 540), (960, 540), (960, 540), (960, 540), (960, 540), (960, 540), (960, 540), (960, 540), (960, 540), (960, 540), (960, 540), (960, 540), (960, 540), (960, 540), (960, 540), (960, 540), (960, 540), (960, 540), (960, 540), (960, 540), (960, 540), (960, 540), (960, 540), (960, 540), (960, 540), (960, 540), (960, 540), (960, 540), (960, 540), (960, 540), (960, 540), (960, 540), (960, 540), (960, 540), (960, 540), (960, 540), (960, 540), (960, 540), (960, 540), (960, 540), (960, 540), (960, 540), (960, 540), (960, 540), (960, 540), (960, 540), (960, 540), (960, 540), (960, 540), (960, 540), (960, 540), (960, 540), (960, 540), (960, 540), (960, 540), (960, 540), (960, 540), (960, 540), (960, 540), (960, 540), (960, 540), (960, 542), (972, 552), (983, 557), (1000, 564), (1020, 573), (1079, 600), (1122, 618), (1158, 630), (1203, 644), (1281, 668), (1314, 679), (1345, 689)]",21.15708465254848,"[4, 8, 2, 7, 1, 5, 6, 3, 9]","(0, 0.25)",ENG011A,ENG,A,English,Thu Aug 30 11:27:03 2018,Mouse
1,0,1,0,22,5,3,0,-650,530,120,133,0,500,200,8000,"[(960, 540), (960, 540), (960, 540), (960, 540), (960, 540), (960, 540), (960, 540), (960, 540), (960, 540), (960, 540), (960, 540), (960, 540), (960, 540), (960, 540), (960, 540), (960, 540), (960, 540), (960, 540), (960, 540), (960, 540), (960, 540), (960, 540), (960, 540), (960, 540), (960, 540), (960, 540), (960, 540), (960, 540), (960, 540), (960, 540), (960, 540), (960, 540), (960, 540), (960, 540), (960, 540), (960, 540), (960, 540), (960, 540), (960, 540), (960, 540), (960, 540), (960, 540), (960, 540), (960, 540), (960, 540), (960, 540), (960, 540), (960, 540), (960, 540), (960, 540), (960, 540), (960, 540), (959, 536), (963, 528), (970, 516), (988, 486), (998, 467), (1012, 442), (1033, 407), (1064, 352), (1078, 315), (1098, 270), (1113, 233), (1126, 196), (1159, 111)]",294.8851456225096,"[4, 8, 2, 7, 1, 5, 6, 3, 9]","(0, 0.25)",ENG011A,ENG,A,English,Thu Aug 30 11:27:03 2018,Mouse
1,0,1,0,23,8,9,0,-599,499,100,134,0,500,200,8000,"[(960, 540), (960, 540), (960, 540), (960, 540), (960, 540), (960, 540), (960, 540), (960, 540), (960, 540), (960, 540), (960, 540), (960, 540), (960, 540), (960, 540), (960, 540), (960, 540), (960, 540), (960, 540), (960, 540), (960, 540), (960, 540), (960, 540), (960, 540), (960, 540), (960, 540), (960, 540), (960, 540), (960, 540), (960, 540), (960, 540), (960, 540), (960, 540), (960, 540), (960, 540), (960, 540), (960, 540), (960, 540), (960, 540), (960, 540), (960, 540), (960, 540), (960, 540), (960, 540), (960, 540), (960, 540), (960, 540), (960, 540), (960, 540), (960, 540), (964, 540), (986, 535), (1003, 529), (1025, 523), (1056, 515), (1122, 495), (1166, 484), (1205, 473), (1245, 460), (1317, 440), (1353, 429)]",344.22805194314515,"[4, 8, 2, 7, 1, 5, 6, 3, 9]","(0, 0.25)",ENG011A,ENG,A,English,Thu Aug 30 11:27:03 2018,Mouse
1,0,1,0,24,7,2,0,-1500,960,540,135,0,500,200,8000,"[(960, 540), (960, 540), (960, 540), (960, 540), (960, 540), (960, 540), (960, 540), (960, 540), (960, 540), (960, 540), (960, 540), (960, 540), (960, 540), (960, 540), (960, 540), (960, 540), (960, 540), (960, 540), (960, 540), (960, 540), (960, 540), (960, 540), (960, 540), (960, 540), (960, 540), (960, 540), (960, 540), (960, 540), (960, 540), (960, 540), (960, 540), (960, 540), (960, 540), (960, 540), (960, 540), (960, 540), (960, 540), (960, 540), (960, 540), (960, 540), (960, 540), (960, 540), (960, 540), (960, 540), (960, 540), (960, 540), (960, 540), (960, 540), (960, 540), (960, 540), (960, 540), (960, 540), (960, 540), (960, 540), (960, 540), (960, 540), (960, 540), (960, 540), (960, 540), (960, 540), (960, 540), (960, 540), (960, 540), (960, 540), (960, 540), (960, 540), (960, 540), (960, 540), (960, 540), (960, 540), (960, 540), (960, 540), (960, 540), (960, 540), (960, 540), (960, 540), (960, 540), (960, 540), (960, 540), (960, 540), (960, 540), (960, 540), (960, 540), (960, 540), (960, 540), (960, 540), (960, 540), (960, 540), (960, 540), (960, 540), (960, 540), (960, 540), (960, 540), (960, 540), (960, 540), (960, 541), (958, 541), (954, 544), (952, 545), (951, 546), (949, 546), (948, 548), (948, 550), (948, 551), (948, 552), (948, 552), (948, 553), (948, 554), (948, 554), (948, 555), (948, 555), (948, 555), (948, 555), (949, 556), (950, 556), (951, 557), (953, 558), (954, 560), (954, 561), (955, 563), (956, 565), (959, 575), (961, 584), (963, 594), (968, 605), (971, 626), (972, 634), (972, 642), (972, 648), (972, 659), (972, 665), (971, 670), (969, 675), (965, 688), (963, 698), (960, 709), (956, 723), (953, 753), (950, 769), (948, 787), (948, 802), (948, 831), (948, 846), (950, 859), (954, 871), (960, 894), (963, 904), (966, 913), (967, 922), (968, 941)]",88.85709366693337,"[4, 8, 2, 7, 1, 5, 6, 3, 9]","(0, 0.25)",ENG011A,ENG,A,English,Thu Aug 30 11:27:03 2018,Mouse
1,0,1,0,25,4,8,0,-902,802,100,136,0,500,200,8000,"[(960, 540), (960, 540), (960, 540), (960, 540), (960, 540), (960, 540), (960, 540), (960, 540), (960, 540), (960, 540), (960, 540), (960, 540), (960, 540), (960, 540), (960, 540), (960, 540), (960, 540), (960, 540), (960, 540), (960, 540), (960, 540), (960, 540), (960, 540), (960, 540), (960, 540), (960, 540), (960, 540), (960, 540), (960, 540), (960, 540), (960, 540), (960, 540), (960, 540), (960, 540), (960, 540), (960, 540), (960, 540), (960, 540), (960, 540), (960, 540), (960, 540), (960, 540), (960, 540), (960, 540), (960, 540), (960, 540), (960, 540), (960, 540), (960, 540), (960, 540), (960, 540), (960, 540), (960, 540), (960, 540), (960, 540), (960, 540), (960, 540), (960, 540), (960, 540), (960, 540), (960, 540), (960, 540), (960, 540), (960, 540), (960, 540), (960, 540), (960, 540), (960, 540), (960, 540), (960, 540), (960, 540), (960, 540), (960, 540), (960, 540), (960, 540), (960, 540), (960, 540), (960, 540), (960, 540), (960, 540), (963, 549), (977, 567), (995, 592), (1048, 660), (1076, 692), (1105, 726), (1132, 753), (1177, 797), (1195, 813), (1213, 828), (1224, 841)]",48.74676309421336,"[4, 8, 2, 7, 1, 5, 6, 3, 9]","(0, 0.25)",ENG011A,ENG,A,English,Thu Aug 30 11:27:03 2018,Mouse
1,0,1,0,26,1,1,1,551,311,240,137,0,500,200,8000,"[(960, 540), (960, 540), (960, 540), (960, 540), (960, 540), (960, 540), (960, 540), (960, 540), (960, 540), (960, 540), (960, 540), (960, 540), (960, 540), (960, 540), (960, 540), (960, 540), (960, 540), (960, 540), (960, 540), (960, 540), (960, 540), (960, 540), (960, 540), (960, 540), (960, 540), (960, 540), (960, 540), (960, 540), (960, 540), (960, 540), (960, 540), (959, 540), (955, 540), (953, 540), (951, 540), (948, 540), (942, 539), (939, 539), (936, 538), (935, 538), (931, 538), (929, 538), (925, 536), (922, 536), (909, 536), (901, 536), (890, 536), (878, 536), (846, 536), (818, 536), (785, 536), (743, 536), (654, 536), (617, 534), (589, 532), (558, 531)]",181.28252708271017,"[4, 8, 2, 7, 1, 5, 6, 3, 9]","(0, 0.25)",ENG011A,ENG,A,English,Thu Aug 30 11:27:03 2018,Mouse
1,0,1,0,27,1,1,1,361,81,280,137,0,500,200,8000,"[(960, 540), (960, 540), (960, 540), (960, 540), (960, 540), (960, 540), (960, 540), (960, 540), (957, 541), (956, 542), (955, 542), (955, 542), (954, 543), (954, 543), (954, 543), (954, 543), (954, 543), (954, 543), (954, 543), (954, 543), (954, 543), (954, 543), (954, 543), (954, 543), (953, 543), (944, 543), (931, 543), (912, 543), (840, 543), (798, 543), (754, 543), (706, 545), (636, 548), (611, 548), (591, 548), (571, 548), (549, 548)]",178.88489449787397,"[4, 8, 2, 7, 1, 5, 6, 3, 9]","(0, 0.25)",ENG011A,ENG,A,English,Thu Aug 30 11:27:03 2018,Mouse
1,0,1,0,28,2,2,1,611,391,220,136,0,500,200,8000,"[(960, 540), (960, 540), (960, 540), (960, 540), (960, 540), (960, 540), (960, 540), (960, 540), (960, 540), (960, 540), (960, 540), (960, 540), (960, 540), (960, 540), (960, 540), (960, 540), (960, 540), (960, 540), (960, 540), (960, 540), (960, 540), (960, 540), (960, 540), (960, 540), (960, 540), (960, 540), (960, 540), (960, 540), (960, 540), (960, 540), (960, 540), (960, 540), (960, 540), (960, 540), (960, 540), (960, 540), (960, 540), (960, 540), (960, 540), (961, 541), (961, 541), (961, 541), (961, 541), (961, 541), (961, 542), (961, 542), (961, 550), (961, 560), (961, 572), (961, 585), (959, 626), (956, 652), (951, 681), (949, 715), (948, 761), (948, 783), (948, 808), (948, 834), (948, 861), (948, 915), (948, 931), (948, 944)]",91.70135460532613,"[4, 8, 2, 7, 1, 5, 6, 3, 9]","(0, 0.25)",ENG011A,ENG,A,English,Thu Aug 30 11:27:03 2018,Mouse
1,0,1,0,29,5,3,0,-508,368,140,135,0,500,200,8000,"[(960, 540), (960, 540), (960, 540), (960, 540), (960, 540), (960, 540), (960, 540), (960, 540), (960, 540), (960, 540), (960, 540), (960, 540), (960, 540), (960, 540), (960, 540), (960, 540), (960, 540), (960, 540), (960, 540), (960, 540), (960, 540), (960, 540), (960, 540), (960, 540), (960, 540), (960, 540), (960, 540), (960, 540), (960, 540), (960, 540), (960, 540), (960, 540), (960, 540), (960, 540), (960, 540), (960, 540), (963, 532), (967, 528), (971, 520), (976, 511), (985, 490), (990, 478), (995, 465), (1003, 446), (1024, 404), (1038, 375), (1050, 343), (1066, 311), (1105, 228), (1128, 187), (1147, 149)]",295.5599651718238,"[4, 8, 2, 7, 1, 5, 6, 3, 9]","(0, 0.25)",ENG011A,ENG,A,English,Thu Aug 30 11:27:03 2018,Mouse
1,0,1,0,30,7,7,1,621,501,120,136,0,500,200,8000,"[(960, 540), (960, 540), (960, 540), (960, 540), (960, 540), (960, 540), (960, 540), (960, 540), (960, 540), (960, 540), (960, 540), (960, 540), (960, 540), (960, 540), (960, 540), (960, 540), (960, 540), (960, 540), (960, 540), (960, 540), (960, 540), (960, 540), (960, 540), (960, 540), (960, 540), (960, 540), (960, 540), (960, 540), (960, 540), (960, 540), (960, 540), (960, 540), (960, 540), (960, 540), (960, 540), (960, 540), (960, 540), (960, 540), (960, 540), (960, 540), (960, 540), (960, 540), (960, 540), (960, 540), (960, 540), (960, 540), (960, 540), (960, 540), (960, 540), (960, 540), (958, 543), (953, 550), (945, 560), (927, 582), (917, 596), (903, 611), (883, 637), (834, 688), (806, 720), (777, 754), (753, 787), (712, 844), (698, 866)]",128.78817797099086,"[4, 8, 2, 7, 1, 5, 6, 3, 9]","(0, 0.25)",ENG011A,ENG,A,English,Thu Aug 30 11:27:03 2018,Mouse
1,0,1,0,31,3,3,1,452,222,230,136,0,500,200,8000,"[(960, 540), (960, 540), (960, 540), (960, 540), (960, 540), (960, 540), (960, 540), (960, 540), (960, 540), (960, 540), (960, 540), (960, 540), (960, 540), (960, 540), (960, 540), (960, 540), (960, 540), (960, 540), (960, 540), (960, 540), (960, 540), (960, 540), (962, 537), (969, 533), (974, 528), (979, 521), (993, 507), (1000, 498), (1007, 490), (1019, 476), (1037, 454), (1046, 444), (1055, 432), (1063, 419), (1082, 391), (1092, 372), (1103, 351), (1111, 339), (1127, 306), (1139, 287), (1148, 271), (1154, 258), (1166, 231), (1169, 219), (1171, 209), (1175, 198)]",302.155726026279,"[4, 8, 2, 7, 1, 5, 6, 3, 9]","(0, 0.25)",ENG011A,ENG,A,English,Thu Aug 30 11:27:03 2018,Mouse
1,0,1,0,32,5,3,0,-350,120,230,135,0,500,200,8000,"[(960, 540), (960, 540), (960, 540), (960, 540), (960, 540), (960, 540), (960, 540), (960, 540), (960, 540), (960, 540), (960, 540), (960, 538), (960, 538), (960, 536), (961, 534), (962, 532), (962, 531), (962, 530), (963, 528), (965, 524), (966, 520), (970, 514), (971, 510), (981, 490), (986, 478), (993, 465), (1005, 444), (1027, 406), (1040, 382), (1055, 357), (1073, 324), (1109, 262), (1125, 239), (1140, 212), (1158, 182)]",298.9457803372243,"[4, 8, 2, 7, 1, 5, 6, 3, 9]","(0, 0.25)",ENG011A,ENG,A,English,Thu Aug 30 11:27:03 2018,Mouse
1,0,1,0,33,6,3,0,-441,331,110,136,0,500,200,8000,"[(960, 540), (960, 540), (960, 540), (960, 540), (960, 540), (960, 540), (960, 540), (960, 540), (960, 540), (960, 540), (960, 540), (960, 540), (960, 540), (960, 540), (960, 540), (960, 540), (960, 540), (960, 540), (960, 540), (960, 540), (960, 540), (960, 540), (960, 540), (960, 540), (960, 540), (960, 540), (960, 540), (960, 540), (960, 540), (960, 540), (960, 540), (960, 540), (960, 540), (963, 533), (970, 524), (979, 515), (1007, 483), (1024, 463), (1045, 437), (1070, 408), (1114, 356), (1140, 320), (1159, 284), (1176, 257), (1200, 197)]",304.9808077173881,"[4, 8, 2, 7, 1, 5, 6, 3, 9]","(0, 0.25)",ENG011A,ENG,A,English,Thu Aug 30 11:27:03 2018,Mouse
1,0,1,0,34,8,8,1,961,871,90,137,0,500,200,8000,"[(960, 540), (960, 540), (960, 540), (960, 540), (960, 540), (960, 540), (960, 540), (960, 540), (960, 540), (960, 540), (960, 540), (960, 540), (960, 540), (960, 540), (960, 540), (960, 540), (960, 540), (960, 540), (960, 540), (960, 540), (960, 540), (960, 540), (960, 540), (960, 540), (960, 540), (960, 540), (960, 540), (960, 540), (960, 540), (960, 540), (960, 540), (960, 540), (960, 540), (960, 540), (960, 540), (960, 540), (960, 540), (960, 540), (960, 540), (960, 540), (960, 540), (960, 540), (960, 540), (960, 540), (960, 540), (960, 540), (960, 540), (960, 540), (960, 540), (960, 540), (960, 540), (960, 540), (960, 540), (960, 540), (960, 540), (960, 540), (960, 540), (960, 540), (960, 540), (960, 540), (960, 540), (960, 540), (960, 540), (960, 540), (960, 540), (960, 540), (960, 540), (960, 540), (960, 540), (960, 540), (960, 540), (960, 540), (960, 540), (960, 540), (960, 540), (960, 540), (960, 540), (960, 540), (960, 540), (960, 540), (960, 540), (960, 540), (960, 540), (960, 540), (960, 540), (960, 540), (960, 540), (960, 546), (960, 557), (961, 569), (963, 586), (973, 645), (986, 685), (1005, 740), (1025, 791), (1080, 908), (1112, 965)]",70.32055935072668,"[4, 8, 2, 7, 1, 5, 6, 3, 9]","(0, 0.25)",ENG011A,ENG,A,English,Thu Aug 30 11:27:03 2018,Mouse
1,0,1,0,35,7,7,1,460,270,190,137,0,500,200,8000,"[(960, 540), (960, 540), (960, 540), (960, 540), (960, 540), (960, 540), (960, 540), (960, 540), (960, 540), (960, 540), (960, 540), (960, 540), (960, 540), (960, 540), (960, 540), (960, 540), (960, 540), (960, 540), (960, 540), (960, 540), (960, 540), (960, 540), (960, 540), (960, 540), (960, 540), (960, 540), (960, 541), (960, 543), (960, 544), (956, 551), (954, 558), (950, 568), (945, 579), (925, 609), (910, 627), (889, 647), (859, 668), (808, 704), (786, 720), (768, 733), (748, 748), (717, 776), (704, 796), (695, 810), (685, 822), (672, 836)]",134.2151753970081,"[4, 8, 2, 7, 1, 5, 6, 3, 9]","(0, 0.25)",ENG011A,ENG,A,English,Thu Aug 30 11:27:03 2018,Mouse
1,0,1,0,36,6,6,1,631,311,320,136,0,500,200,8000,"[(960, 540), (960, 540), (960, 540), (960, 540), (960, 540), (960, 540), (960, 540), (960, 540), (960, 540), (960, 540), (960, 540), (960, 540), (960, 540), (960, 540), (960, 540), (960, 540), (960, 540), (960, 540), (960, 540), (960, 540), (960, 540), (960, 540), (960, 540), (960, 540), (960, 540), (960, 540), (960, 540), (960, 540), (960, 540), (960, 540), (960, 540), (961, 540), (963, 539), (966, 536), (966, 535), (970, 529), (972, 524), (975, 520), (976, 515), (979, 510), (979, 508), (980, 505), (980, 503), (981, 501), (981, 500), (981, 500), (981, 500), (981, 500), (981, 498), (981, 496), (981, 491), (981, 473), (981, 461), (981, 446), (981, 431), (969, 382), (963, 354), (952, 318), (944, 290), (925, 226), (917, 201), (910, 173), (903, 151), (895, 119)]",261.22316000727994,"[4, 8, 2, 7, 1, 5, 6, 3, 9]","(0, 0.25)",ENG011A,ENG,A,English,Thu Aug 30 11:27:03 2018,Mouse
1,0,1,0,37,6,6,1,391,271,120,135,0,500,200,8000,"[(960, 540), (960, 540), (960, 540), (960, 540), (960, 540), (960, 540), (960, 540), (960, 540), (960, 540), (960, 540), (960, 540), (960, 540), (960, 540), (960, 540), (960, 540), (960, 540), (960, 540), (960, 540), (960, 540), (960, 540), (960, 540), (960, 540), (960, 540), (960, 540), (960, 540), (960, 540), (960, 534), (959, 521), (958, 504), (954, 485), (946, 432), (942, 389), (938, 365), (935, 339), (922, 260), (919, 231), (917, 200), (917, 172), (917, 119)]",264.16816039038883,"[4, 8, 2, 7, 1, 5, 6, 3, 9]","(0, 0.25)",ENG011A,ENG,A,English,Thu Aug 30 11:27:03 2018,Mouse
1,0,1,0,38,7,7,1,520,20,500,134,0,500,200,8000,"[(960, 544), (960, 547), (970, 564), (973, 574), (974, 582), (974, 588), (974, 591), (973, 592), (973, 592), (973, 592), (973, 592), (972, 592), (972, 592), (970, 593), (967, 595), (966, 595), (965, 596), (964, 596), (964, 596), (964, 596), (963, 597), (961, 598), (956, 604), (951, 610), (946, 616), (939, 624), (922, 642), (908, 657), (886, 678), (872, 690), (826, 724), (806, 740), (786, 754), (772, 762), (752, 776), (744, 783), (741, 785), (737, 788), (737, 788), (737, 788), (737, 788), (737, 788), (732, 791), (731, 791), (729, 791), (724, 794), (717, 797), (712, 799), (706, 801), (696, 806), (676, 811), (668, 816)]",136.6135389328812,"[4, 8, 2, 7, 1, 5, 6, 3, 9]","(0, 0.25)",ENG011A,ENG,A,English,Thu Aug 30 11:27:03 2018,Mouse
1,0,1,0,39,1,1,1,420,260,160,133,0,500,200,8000,"[(960, 540), (960, 540), (960, 540), (960, 540), (960, 540), (960, 540), (960, 540), (960, 540), (960, 540), (960, 540), (960, 540), (960, 540), (960, 540), (960, 540), (960, 540), (960, 540), (960, 540), (960, 540), (960, 540), (960, 540), (960, 540), (960, 540), (960, 540), (960, 540), (960, 540), (950, 541), (944, 542), (935, 542), (925, 543), (906, 547), (895, 548), (881, 549), (862, 550), (809, 550), (776, 550), (737, 550), (711, 550), (666, 544), (642, 539), (616, 536), (593, 535), (555, 528)]",181.69715618960026,"[4, 8, 2, 7, 1, 5, 6, 3, 9]","(0, 0.25)",ENG011A,ENG,A,English,Thu Aug 30 11:27:03 2018,Mouse
1,0,1,0,40,5,2,0,-1010,420,590,132,0,500,200,8000,"[(960, 540), (960, 540), (960, 540), (960, 540), (960, 540), (960, 540), (960, 540), (960, 540), (960, 540), (960, 540), (960, 540), (960, 540), (960, 540), (960, 540), (960, 540), (960, 540), (960, 540), (960, 540), (960, 540), (960, 540), (960, 540), (960, 540), (960, 540), (960, 540), (960, 540), (960, 540), (960, 540), (960, 540), (960, 540), (960, 540), (960, 540), (960, 540), (960, 540), (960, 540), (960, 540), (960, 540), (960, 540), (960, 540), (960, 540), (960, 540), (960, 540), (961, 539), (964, 533), (966, 528), (967, 524), (970, 519), (974, 511), (976, 507), (976, 504), (977, 503), (978, 502), (978, 502), (978, 501), (978, 501), (978, 501), (978, 501), (978, 501), (978, 501), (978, 501), (978, 501), (978, 501), (978, 501), (978, 501), (978, 501), (978, 501), (978, 501), (978, 501), (978, 501), (978, 501), (978, 501), (978, 501), (978, 501), (978, 501), (978, 501), (978, 501), (978, 503), (978, 508), (978, 515), (978, 537), (978, 551), (978, 570), (978, 592), (987, 651), (991, 681), (995, 710), (999, 737), (1004, 778), (1006, 794), (1006, 806), (1006, 813), (997, 829), (992, 835), (985, 845), (982, 854), (973, 875), (971, 888), (968, 896), (967, 905), (962, 927), (962, 938), (962, 950)]",89.72051060945526,"[4, 8, 2, 7, 1, 5, 6, 3, 9]","(0, 0.25)",ENG011A,ENG,A,English,Thu Aug 30 11:27:03 2018,Mouse
1,0,1,0,41,9,1,0,-1010,910,100,133,0,500,200,8000,"[(960, 540), (960, 540), (960, 540), (960, 540), (960, 540), (960, 540), (960, 540), (960, 540), (960, 540), (960, 540), (960, 540), (960, 540), (960, 540), (960, 540), (960, 540), (960, 540), (960, 540), (960, 540), (960, 540), (960, 540), (960, 540), (960, 540), (960, 540), (960, 540), (960, 540), (960, 540), (960, 540), (960, 540), (960, 540), (960, 540), (960, 540), (960, 540), (960, 540), (960, 540), (960, 540), (960, 540), (960, 540), (960, 540), (960, 540), (960, 540), (960, 540), (960, 540), (960, 540), (960, 540), (960, 540), (960, 540), (960, 540), (960, 540), (960, 540), (960, 540), (960, 540), (960, 540), (960, 540), (960, 540), (960, 540), (960, 540), (960, 540), (960, 540), (960, 540), (960, 540), (960, 540), (960, 540), (960, 540), (960, 540), (960, 540), (960, 540), (960, 540), (960, 540), (960, 540), (960, 540), (960, 540), (960, 540), (960, 540), (960, 540), (960, 540), (960, 540), (960, 540), (960, 540), (960, 540), (960, 540), (960, 540), (960, 540), (960, 540), (960, 540), (960, 540), (960, 540), (960, 540), (960, 540), (960, 540), (960, 540), (959, 539), (948, 541), (897, 541), (853, 541), (811, 541), (767, 541), (683, 541), (642, 541), (597, 541), (561, 541), (519, 541)]",179.87007782015758,"[4, 8, 2, 7, 1, 5, 6, 3, 9]","(0, 0.25)",ENG011A,ENG,A,English,Thu Aug 30 11:27:03 2018,Mouse
1,0,1,0,42,4,7,0,-2141,1121,1020,134,0,500,200,8000,"[(960, 540), (960, 540), (960, 540), (960, 540), (960, 540), (960, 540), (960, 540), (960, 540), (960, 540), (960, 540), (960, 540), (960, 540), (960, 540), (960, 540), (960, 540), (960, 540), (960, 540), (960, 540), (960, 540), (960, 540), (960, 540), (960, 540), (960, 540), (960, 540), (960, 540), (960, 540), (960, 540), (960, 540), (960, 540), (960, 540), (960, 540), (960, 540), (960, 540), (960, 540), (960, 540), (960, 540), (960, 540), (960, 540), (960, 540), (960, 540), (960, 540), (960, 540), (960, 540), (960, 540), (960, 540), (960, 540), (960, 540), (960, 540), (960, 540), (960, 540), (960, 540), (960, 540), (960, 540), (960, 540), (960, 540), (960, 540), (960, 540), (960, 540), (960, 540), (960, 540), (960, 540), (960, 540), (960, 540), (960, 540), (960, 540), (960, 540), (960, 540), (960, 540), (960, 540), (960, 540), (960, 540), (960, 540), (960, 540), (960, 540), (960, 540), (960, 540), (960, 540), (960, 540), (960, 540), (960, 540), (960, 540), (960, 540), (960, 540), (960, 540), (960, 540), (960, 540), (960, 540), (960, 540), (960, 540), (960, 540), (960, 540), (960, 540), (960, 540), (960, 540), (960, 540), (960, 540), (960, 540), (960, 540), (960, 540), (960, 540), (960, 540), (960, 540), (960, 540), (960, 540), (960, 540), (960, 540), (960, 540), (960, 540), (960, 540), (960, 540), (960, 540), (960, 540), (960, 542), (956, 545), (947, 553), (919, 567), (906, 574), (887, 588), (871, 596), (826, 619), (806, 631), (783, 642), (757, 650), (721, 667), (703, 674), (691, 676), (683, 679), (671, 685), (668, 689), (666, 691), (663, 693), (658, 698), (657, 700), (655, 703), (652, 706), (651, 710), (649, 713), (649, 713), (648, 715), (647, 718), (646, 720), (645, 721), (645, 722), (645, 724), (645, 725), (645, 725), (645, 725), (645, 725), (645, 725), (645, 725), (645, 725), (645, 725), (645, 725), (645, 725), (645, 725), (645, 725), (645, 725), (645, 725), (645, 725), (645, 725), (645, 725), (645, 725), (645, 725), (645, 725), (645, 726), (643, 727), (643, 727), (642, 728), (641, 728), (641, 728), (641, 728), (640, 729), (640, 729), (640, 729), (640, 729), (640, 729), (640, 729), (640, 729), (640, 729), (640, 729), (639, 730), (638, 730), (637, 730), (634, 731), (632, 732), (630, 733), (629, 734), (624, 735), (623, 736), (622, 736), (621, 737), (619, 737), (619, 737), (619, 737), (619, 737), (619, 737), (619, 737), (619, 737), (619, 737), (619, 737), (619, 737), (619, 737), (619, 737), (619, 737), (619, 737), (618, 738), (618, 738), (618, 738), (617, 739), (617, 739), (617, 739), (615, 741), (615, 741), (615, 741), (614, 742)]",149.72297506175022,"[4, 8, 2, 7, 1, 5, 6, 3, 9]","(0, 0.25)",ENG011A,ENG,A,English,Thu Aug 30 11:27:03 2018,Mouse
1,0,1,0,43,5,5,1,1011,611,400,135,0,500,200,8000,"[(960, 540), (960, 540), (960, 540), (960, 540), (960, 540), (960, 540), (960, 540), (960, 540), (960, 540), (960, 540), (960, 540), (960, 540), (960, 540), (960, 540), (960, 540), (960, 540), (960, 540), (960, 540), (960, 540), (960, 540), (960, 540), (960, 540), (960, 540), (960, 540), (960, 540), (960, 540), (960, 540), (960, 540), (960, 540), (960, 540), (960, 540), (960, 540), (960, 540), (960, 540), (960, 540), (960, 540), (960, 540), (960, 540), (960, 540), (960, 540), (960, 540), (960, 540), (960, 540), (960, 540), (960, 540), (960, 540), (960, 540), (960, 540), (960, 540), (960, 540), (960, 540), (960, 540), (960, 540), (960, 540), (960, 540), (960, 540), (960, 540), (960, 540), (960, 540), (960, 540), (960, 540), (960, 539), (960, 538), (960, 538), (960, 535), (960, 535), (960, 534), (960, 534), (960, 532), (959, 532), (958, 530), (956, 527), (951, 522), (947, 520), (945, 517), (941, 514), (927, 505), (916, 500), (908, 494), (898, 488), (871, 474), (859, 464), (849, 457), (840, 449), (818, 429), (807, 418), (801, 411), (791, 397), (772, 375), (760, 365), (750, 356), (738, 349), (719, 337), (711, 333), (703, 328), (693, 323), (677, 316), (671, 313), (664, 310), (657, 307), (645, 302), (639, 299)]",216.8984456153366,"[4, 8, 2, 7, 1, 5, 6, 3, 9]","(0, 0.25)",ENG011A,ENG,A,English,Thu Aug 30 11:27:03 2018,Mouse
1,0,1,0,44,8,7,0,-880,620,260,135,0,500,200,8000,"[(960, 540), (960, 540), (960, 540), (960, 540), (960, 540), (960, 540), (960, 540), (960, 540), (960, 540), (960, 540), (960, 540), (960, 540), (960, 540), (960, 540), (960, 540), (960, 540), (960, 540), (960, 540), (960, 540), (960, 540), (960, 540), (960, 540), (960, 540), (960, 540), (960, 540), (960, 540), (960, 540), (960, 540), (960, 540), (960, 540), (960, 540), (960, 540), (960, 540), (960, 540), (960, 540), (960, 540), (960, 540), (960, 540), (960, 540), (960, 540), (960, 540), (960, 540), (960, 540), (960, 540), (960, 540), (960, 540), (960, 540), (960, 540), (960, 540), (960, 540), (960, 540), (960, 540), (960, 540), (960, 540), (960, 540), (960, 540), (960, 540), (960, 540), (960, 540), (960, 540), (960, 540), (960, 541), (960, 543), (958, 544), (956, 546), (951, 548), (949, 550), (947, 550), (945, 552), (941, 554), (939, 556), (936, 557), (932, 560), (922, 571), (915, 580), (905, 589), (891, 599), (850, 634), (826, 654), (806, 671), (785, 690), (736, 729), (720, 743), (697, 761), (686, 774), (669, 793), (664, 799), (659, 806)]",138.5322945838909,"[4, 8, 2, 7, 1, 5, 6, 3, 9]","(0, 0.25)",ENG011A,ENG,A,English,Thu Aug 30 11:27:03 2018,Mouse
1,0,1,0,45,2,2,1,1080,300,780,136,0,500,200,8000,"[(960, 540), (960, 540), (960, 540), (960, 540), (960, 540), (960, 540), (960, 540), (960, 540), (960, 540), (960, 540), (960, 540), (960, 540), (960, 540), (960, 540), (960, 540), (960, 540), (960, 540), (960, 540), (960, 540), (960, 540), (960, 540), (960, 540), (960, 540), (960, 540), (960, 540), (960, 540), (960, 540), (960, 540), (960, 540), (962, 538), (962, 538), (962, 538), (962, 538), (962, 538), (962, 538), (962, 538), (962, 538), (962, 538), (962, 538), (962, 538), (962, 538), (962, 538), (962, 538), (962, 538), (962, 538), (962, 538), (962, 538), (962, 538), (962, 538), (962, 538), (962, 538), (962, 538), (962, 538), (962, 538), (962, 538), (962, 538), (962, 538), (962, 538), (962, 538), (962, 538), (962, 538), (962, 538), (962, 538), (962, 538), (962, 538), (962, 538), (962, 538), (962, 538), (962, 538), (962, 538), (961, 538), (958, 538), (953, 540), (948, 542), (948, 542), (945, 543), (940, 544), (938, 545), (937, 546), (937, 546), (935, 546), (935, 546), (935, 546), (935, 546), (935, 546), (935, 546), (935, 546), (935, 546), (935, 548), (935, 552), (935, 559), (935, 568), (931, 596), (925, 610), (917, 624), (910, 633), (899, 653), (894, 666), (889, 682), (886, 696), (886, 723), (886, 746), (886, 774), (886, 799), (886, 860), (886, 891), (884, 925), (875, 958)]",101.49433204727646,"[4, 8, 2, 7, 1, 5, 6, 3, 9]","(0, 0.25)",ENG011A,ENG,A,English,Thu Aug 30 11:27:03 2018,Mouse
1,0,1,0,46,3,3,1,389,239,150,136,0,500,200,8000,"[(960, 540), (960, 540), (960, 540), (960, 540), (960, 540), (960, 540), (960, 540), (960, 540), (960, 540), (960, 540), (960, 540), (960, 540), (960, 540), (960, 540), (960, 540), (960, 540), (960, 540), (960, 540), (960, 540), (960, 540), (960, 540), (960, 540), (960, 540), (964, 540), (969, 536), (972, 531), (977, 526), (989, 511), (994, 501), (1001, 486), (1009, 455), (1028, 406), (1042, 386), (1054, 358), (1066, 326), (1089, 246), (1099, 210), (1114, 175), (1126, 144)]",292.74303734055036,"[4, 8, 2, 7, 1, 5, 6, 3, 9]","(0, 0.25)",ENG011A,ENG,A,English,Thu Aug 30 11:27:03 2018,Mouse
1,0,1,0,47,4,2,0,-2230,2080,150,135,0,500,200,8000,"[(960, 540), (960, 540), (960, 540), (960, 540), (960, 540), (960, 540), (960, 540), (960, 540), (960, 540), (960, 540), (960, 540), (960, 540), (960, 540), (960, 540), (960, 540), (960, 540), (960, 540), (960, 540), (960, 540), (960, 540), (960, 540), (960, 540), (960, 540), (960, 540), (960, 540), (960, 540), (960, 540), (960, 540), (960, 540), (960, 540), (960, 540), (960, 540), (960, 540), (960, 540), (960, 540), (960, 540), (960, 540), (960, 540), (960, 540), (960, 540), (960, 540), (960, 540), (960, 540), (960, 540), (960, 540), (960, 540), (960, 540), (960, 540), (960, 540), (960, 540), (960, 540), (960, 540), (960, 540), (960, 540), (960, 540), (960, 540), (960, 540), (960, 540), (960, 540), (960, 540), (960, 540), (960, 540), (960, 540), (960, 540), (960, 540), (960, 540), (960, 540), (960, 540), (960, 540), (960, 540), (960, 540), (960, 540), (960, 540), (960, 540), (960, 540), (960, 540), (960, 540), (960, 540), (960, 540), (960, 540), (960, 540), (960, 540), (960, 540), (960, 540), (960, 540), (960, 540), (960, 540), (960, 540), (960, 540), (960, 540), (960, 540), (960, 540), (960, 540), (960, 540), (960, 540), (960, 540), (960, 540), (960, 540), (960, 540), (960, 540), (960, 540), (960, 540), (960, 540), (960, 540), (960, 540), (960, 540), (960, 540), (960, 540), (960, 540), (960, 540), (960, 540), (960, 540), (960, 540), (960, 540), (960, 540), (960, 540), (960, 540), (960, 540), (960, 540), (960, 540), (960, 540), (960, 540), (960, 540), (960, 540), (960, 540), (960, 540), (960, 540), (960, 540), (960, 540), (960, 540), (960, 540), (960, 540), (960, 540), (960, 540), (960, 540), (960, 540), (960, 540), (960, 540), (960, 540), (960, 540), (960, 540), (960, 540), (960, 540), (960, 540), (960, 540), (960, 540), (960, 540), (960, 540), (960, 540), (960, 540), (960, 540), (960, 540), (960, 540), (960, 540), (960, 540), (960, 540), (960, 540), (960, 540), (960, 540), (960, 540), (960, 540), (960, 540), (960, 540), (960, 540), (960, 540), (960, 540), (960, 540), (960, 540), (960, 540), (960, 540), (960, 540), (960, 540), (960, 540), (960, 540), (960, 540), (960, 540), (960, 540), (960, 540), (960, 540), (960, 540), (960, 540), (960, 540), (960, 540), (960, 540), (960, 540), (960, 540), (960, 540), (960, 540), (960, 540), (960, 540), (960, 540), (960, 540), (960, 540), (960, 540), (960, 540), (960, 540), (960, 540), (960, 540), (960, 540), (960, 540), (960, 540), (960, 540), (960, 540), (960, 540), (960, 540), (960, 540), (960, 540), (957, 543), (955, 553), (952, 564), (951, 579), (949, 623), (943, 651), (940, 680), (933, 713), (916, 771), (909, 801), (903, 828), (900, 855), (892, 900), (891, 915), (888, 931), (885, 943)]",100.54237943276419,"[4, 8, 2, 7, 1, 5, 6, 3, 9]","(0, 0.25)",ENG011A,ENG,A,English,Thu Aug 30 11:27:03 2018,Mouse
1,0,1,0,48,6,2,0,-2061,1971,90,136,0,500,200,8000,"[(960, 540), (960, 540), (960, 540), (960, 540), (960, 540), (960, 540), (960, 540), (960, 540), (960, 540), (960, 540), (960, 540), (960, 540), (960, 540), (960, 540), (960, 540), (960, 540), (960, 540), (960, 540), (960, 540), (960, 540), (960, 540), (960, 540), (960, 540), (960, 540), (960, 540), (960, 540), (960, 540), (960, 540), (960, 540), (960, 540), (960, 540), (960, 540), (960, 540), (960, 540), (960, 540), (960, 540), (960, 540), (960, 540), (960, 540), (960, 540), (960, 540), (960, 540), (960, 540), (960, 540), (960, 540), (960, 540), (960, 540), (960, 540), (960, 540), (960, 540), (960, 540), (960, 540), (960, 540), (960, 540), (960, 540), (960, 540), (960, 540), (960, 540), (960, 540), (960, 540), (960, 540), (960, 540), (960, 540), (960, 540), (960, 540), (960, 540), (960, 540), (960, 540), (960, 540), (960, 540), (960, 540), (960, 540), (960, 540), (960, 540), (960, 540), (960, 540), (960, 540), (960, 540), (960, 540), (960, 540), (960, 540), (960, 540), (960, 540), (960, 540), (960, 540), (960, 540), (960, 540), (960, 540), (960, 540), (960, 540), (960, 540), (960, 540), (960, 540), (960, 540), (960, 540), (960, 540), (960, 540), (960, 540), (960, 540), (960, 540), (960, 540), (960, 540), (960, 540), (960, 540), (960, 540), (960, 540), (960, 540), (960, 540), (960, 540), (960, 540), (960, 540), (960, 540), (960, 540), (960, 540), (960, 540), (960, 540), (960, 540), (960, 540), (960, 540), (960, 540), (960, 540), (960, 540), (960, 540), (960, 540), (960, 540), (960, 540), (960, 540), (960, 540), (960, 540), (960, 540), (960, 540), (960, 540), (960, 540), (960, 540), (960, 540), (960, 540), (960, 540), (960, 540), (960, 540), (960, 540), (960, 540), (960, 540), (960, 540), (960, 540), (960, 540), (960, 540), (960, 540), (960, 540), (960, 540), (960, 540), (960, 540), (960, 540), (960, 540), (960, 540), (960, 540), (960, 540), (960, 540), (960, 540), (960, 540), (960, 540), (960, 540), (960, 540), (960, 540), (960, 540), (960, 540), (960, 540), (960, 540), (960, 540), (960, 540), (960, 540), (960, 540), (960, 540), (960, 540), (960, 540), (960, 540), (960, 540), (960, 540), (960, 540), (960, 540), (960, 540), (960, 540), (960, 540), (960, 540), (960, 540), (960, 540), (960, 540), (960, 540), (960, 540), (960, 540), (960, 540), (960, 540), (960, 540), (960, 540), (960, 540), (960, 540), (960, 540), (960, 540), (959, 545), (959, 561), (959, 584), (959, 651), (959, 698), (964, 733), (971, 773), (990, 858), (1005, 903), (1017, 950)]",82.08522070958051,"[4, 8, 2, 7, 1, 5, 6, 3, 9]","(0, 0.25)",ENG011A,ENG,A,English,Thu Aug 30 11:27:03 2018,Mouse
1,0,1,0,49,3,3,1,331,51,280,137,0,500,200,8000,"[(960, 540), (960, 540), (960, 540), (960, 540), (960, 540), (960, 539), (960, 535), (960, 530), (960, 525), (960, 512), (960, 505), (961, 500), (962, 494), (964, 487), (964, 482), (964, 480), (965, 477), (967, 472), (967, 471), (968, 469), (969, 466), (973, 459), (974, 453), (978, 447), (983, 438), (994, 419), (999, 409), (1008, 394), (1018, 378), (1044, 330), (1063, 302), (1083, 269), (1101, 236), (1138, 168)]",295.57086412157116,"[4, 8, 2, 7, 1, 5, 6, 3, 9]","(0, 0.25)",ENG011A,ENG,A,English,Thu Aug 30 11:27:03 2018,Mouse
1,0,1,0,50,3,3,1,280,50,230,137,0,500,200,8000,"[(960, 540), (960, 540), (960, 540), (960, 540), (960, 539), (960, 537), (963, 528), (964, 525), (966, 520), (967, 515), (969, 507), (970, 502), (972, 496), (973, 492), (979, 477), (983, 467), (990, 456), (996, 444), (1012, 421), (1021, 409), (1030, 395), (1039, 381), (1074, 340), (1089, 323), (1109, 297), (1129, 273), (1158, 227), (1172, 195)]",301.5704236042721,"[4, 8, 2, 7, 1, 5, 6, 3, 9]","(0, 0.25)",ENG011A,ENG,A,English,Thu Aug 30 11:27:03 2018,Mouse
1,0,1,0,51,4,2,0,-1220,1030,190,136,0,500,200,8000,"[(960, 540), (960, 540), (960, 540), (960, 540), (960, 540), (960, 540), (960, 540), (960, 540), (960, 540), (960, 540), (960, 540), (960, 540), (960, 540), (960, 540), (960, 540), (960, 540), (960, 540), (960, 540), (960, 540), (960, 540), (960, 540), (960, 540), (960, 540), (960, 540), (960, 540), (960, 540), (960, 540), (960, 540), (960, 540), (960, 540), (960, 540), (960, 540), (960, 540), (960, 540), (960, 540), (960, 540), (960, 540), (960, 540), (960, 540), (960, 540), (960, 540), (960, 540), (960, 540), (960, 540), (960, 540), (960, 540), (960, 540), (960, 540), (960, 540), (960, 540), (960, 540), (960, 540), (960, 540), (960, 540), (960, 540), (960, 540), (960, 540), (960, 540), (960, 540), (960, 540), (960, 540), (960, 540), (960, 540), (960, 540), (960, 540), (960, 540), (960, 540), (960, 540), (960, 540), (960, 540), (960, 540), (960, 540), (960, 540), (960, 540), (960, 540), (960, 540), (960, 540), (960, 540), (960, 540), (960, 540), (960, 540), (960, 540), (960, 540), (960, 540), (960, 540), (960, 540), (960, 540), (960, 540), (960, 540), (960, 540), (960, 540), (960, 540), (960, 540), (960, 540), (960, 540), (960, 540), (960, 540), (960, 540), (960, 540), (960, 540), (960, 540), (960, 540), (960, 543), (957, 552), (956, 561), (955, 581), (951, 592), (950, 603), (949, 616), (945, 647), (945, 666), (942, 692), (938, 716), (931, 774), (927, 799), (922, 828), (922, 842), (915, 883), (912, 901), (910, 919), (907, 932), (904, 956)]",97.66680426181418,"[4, 8, 2, 7, 1, 5, 6, 3, 9]","(0, 0.25)",ENG011A,ENG,A,English,Thu Aug 30 11:27:03 2018,Mouse
1,0,1,0,52,8,2,0,-360,50,310,137,0,500,200,8000,"[(960, 540), (960, 540), (960, 540), (960, 540), (958, 540), (955, 543), (948, 559), (943, 569), (939, 581), (934, 590), (923, 620), (918, 634), (916, 647), (912, 660), (905, 688), (900, 701), (898, 713), (894, 723), (887, 740), (884, 746), (882, 750), (879, 754), (875, 767), (874, 773), (873, 783), (872, 790), (870, 809), (868, 819), (865, 829), (864, 839), (859, 865), (857, 876), (857, 888), (857, 900), (857, 921), (857, 930)]",104.7941710828163,"[4, 8, 2, 7, 1, 5, 6, 3, 9]","(0, 0.25)",ENG011A,ENG,A,English,Thu Aug 30 11:27:03 2018,Mouse
1,0,1,0,53,6,3,0,-221,41,180,138,0,500,200,8000,"[(960, 540), (960, 540), (960, 540), (960, 540), (965, 534), (970, 528), (981, 513), (986, 503), (995, 488), (1004, 474), (1024, 436), (1033, 416), (1043, 392), (1048, 373), (1062, 325), (1068, 306), (1075, 283), (1079, 271), (1089, 235), (1094, 220), (1103, 202), (1109, 187), (1120, 154)]",292.51438682803536,"[4, 8, 2, 7, 1, 5, 6, 3, 9]","(0, 0.25)",ENG011A,ENG,A,English,Thu Aug 30 11:27:03 2018,Mouse
1,0,1,0,54,1,1,1,541,71,470,139,0,500,200,8000,"[(960, 540), (960, 540), (960, 540), (960, 540), (960, 540), (960, 540), (960, 540), (957, 543), (951, 546), (948, 549), (941, 552), (931, 557), (926, 560), (923, 561), (918, 563), (909, 567), (906, 568), (903, 569), (899, 570), (891, 572), (883, 573), (874, 576), (862, 579), (839, 582), (828, 583), (810, 587), (797, 587), (764, 590), (751, 594), (739, 595), (728, 596), (712, 596), (707, 596), (700, 596), (699, 596), (699, 596), (699, 596), (699, 596), (699, 596), (699, 596), (699, 596), (699, 596), (699, 596), (697, 596), (697, 596), (695, 596), (691, 596), (676, 589), (666, 586), (654, 581), (638, 577), (606, 570), (586, 569), (570, 565), (549, 562)]",176.93599676988518,"[4, 8, 2, 7, 1, 5, 6, 3, 9]","(0, 0.25)",ENG011A,ENG,A,English,Thu Aug 30 11:27:03 2018,Mouse
1,0,1,0,55,4,4,1,1090,840,250,139,0,500,200,8000,"[(960, 540), (960, 540), (960, 540), (960, 540), (960, 540), (960, 540), (960, 540), (960, 540), (960, 540), (960, 540), (960, 540), (960, 540), (960, 540), (960, 540), (960, 540), (960, 540), (960, 540), (960, 540), (960, 540), (960, 540), (960, 540), (960, 540), (960, 540), (960, 540), (960, 540), (960, 540), (960, 540), (960, 540), (960, 540), (960, 540), (960, 540), (960, 540), (960, 540), (960, 540), (960, 540), (960, 540), (960, 540), (960, 540), (960, 540), (960, 540), (960, 540), (960, 540), (960, 540), (960, 540), (960, 540), (960, 540), (960, 540), (960, 540), (960, 540), (960, 540), (960, 540), (960, 540), (960, 540), (960, 540), (960, 540), (960, 540), (960, 540), (960, 540), (960, 540), (960, 540), (960, 540), (960, 540), (960, 540), (960, 540), (960, 540), (960, 540), (960, 540), (960, 540), (960, 540), (960, 540), (960, 540), (960, 540), (960, 540), (960, 540), (960, 540), (960, 540), (960, 540), (960, 540), (960, 540), (960, 540), (960, 540), (960, 540), (960, 540), (963, 540), (963, 540), (964, 541), (965, 541), (965, 542), (965, 543), (965, 543), (965, 545), (965, 546), (965, 547), (965, 547), (965, 548), (965, 549), (965, 549), (965, 550), (965, 551), (969, 554), (978, 560), (990, 564), (1009, 572), (1067, 596), (1103, 605), (1147, 616), (1197, 632), (1304, 661), (1354, 673)]",18.652802448019173,"[4, 8, 2, 7, 1, 5, 6, 3, 9]","(0, 0.25)",ENG011A,ENG,A,English,Thu Aug 30 11:27:03 2018,Mouse
1,0,1,0,56,7,7,1,441,331,110,138,0,500,200,8000,"[(960, 540), (960, 540), (960, 540), (960, 540), (960, 540), (960, 540), (960, 540), (960, 540), (960, 540), (960, 540), (960, 540), (960, 540), (960, 540), (960, 540), (960, 540), (960, 540), (960, 540), (960, 540), (960, 540), (960, 540), (960, 540), (960, 540), (960, 540), (960, 540), (960, 540), (960, 540), (960, 540), (960, 540), (960, 540), (960, 540), (960, 540), (960, 540), (960, 540), (959, 540), (940, 542), (926, 547), (907, 551), (882, 559), (820, 578), (781, 589), (739, 602), (707, 620), (638, 663), (607, 687), (580, 711)]",155.77225468204585,"[4, 8, 2, 7, 1, 5, 6, 3, 9]","(0, 0.25)",ENG011A,ENG,A,English,Thu Aug 30 11:27:03 2018,Mouse
1,0,1,0,57,7,7,1,340,20,320,137,0,500,200,8000,"[(955, 546), (951, 553), (947, 562), (941, 572), (926, 597), (919, 608), (913, 621), (906, 632), (896, 651), (894, 656), (892, 658), (891, 660), (891, 660), (891, 660), (891, 660), (891, 660), (891, 660), (891, 660), (891, 660), (891, 660), (891, 660), (889, 661), (885, 663), (879, 666), (859, 674), (843, 679), (820, 686), (793, 691), (745, 708), (719, 716), (696, 724), (673, 733), (632, 751), (622, 755)]",147.53977760745002,"[4, 8, 2, 7, 1, 5, 6, 3, 9]","(0, 0.25)",ENG011A,ENG,A,English,Thu Aug 30 11:27:03 2018,Mouse
1,0,1,0,58,7,7,1,679,19,660,136,0,500,200,8000,"[(960, 540), (949, 543), (942, 545), (936, 551), (930, 557), (920, 571), (915, 578), (913, 585), (907, 594), (901, 605), (898, 611), (898, 613), (896, 616), (894, 618), (893, 619), (892, 620), (891, 620), (885, 623), (880, 626), (874, 629), (868, 632), (848, 639), (837, 643), (825, 645), (812, 650), (787, 658), (775, 662), (763, 668), (752, 676), (733, 686), (727, 691), (721, 699), (715, 707), (701, 725), (696, 733), (688, 742), (679, 751), (667, 766), (665, 770), (663, 774), (662, 777), (661, 779), (661, 779), (661, 779), (661, 779), (661, 779), (661, 779), (661, 779), (661, 779), (661, 779), (661, 779), (661, 779), (661, 779), (661, 778), (661, 778), (663, 775), (664, 774), (668, 770), (668, 770), (668, 770), (668, 768), (668, 768), (667, 768), (664, 768), (661, 768), (649, 769), (639, 772), (628, 773)]",144.93854443307447,"[4, 8, 2, 7, 1, 5, 6, 3, 9]","(0, 0.25)",ENG011A,ENG,A,English,Thu Aug 30 11:27:03 2018,Mouse
1,0,1,0,59,9,1,0,-460,370,90,135,0,500,200,8000,"[(960, 540), (960, 540), (960, 540), (960, 540), (960, 540), (960, 540), (960, 540), (960, 540), (960, 540), (960, 540), (960, 540), (960, 540), (960, 540), (960, 540), (960, 540), (960, 540), (960, 540), (960, 540), (960, 540), (960, 540), (960, 540), (960, 540), (960, 540), (960, 540), (960, 540), (960, 540), (960, 540), (960, 540), (960, 540), (960, 540), (960, 540), (960, 540), (960, 540), (960, 540), (960, 540), (960, 540), (953, 540), (944, 540), (934, 540), (915, 540), (856, 540), (809, 540), (751, 540), (689, 536), (582, 524), (534, 523)]",182.2852387311784,"[4, 8, 2, 7, 1, 5, 6, 3, 9]","(0, 0.25)",ENG011A,ENG,A,English,Thu Aug 30 11:27:03 2018,Mouse
1,0,1,0,60,8,3,0,-761,451,310,136,0,500,200,8000,"[(960, 540), (960, 540), (960, 540), (960, 540), (960, 540), (960, 540), (960, 540), (960, 540), (960, 540), (960, 540), (960, 540), (960, 540), (960, 540), (960, 540), (960, 540), (960, 540), (960, 540), (960, 540), (960, 540), (960, 540), (960, 540), (960, 540), (960, 540), (960, 540), (960, 540), (960, 540), (960, 540), (960, 540), (960, 540), (960, 540), (960, 540), (960, 540), (960, 540), (960, 540), (960, 540), (960, 540), (960, 540), (960, 540), (960, 540), (960, 540), (960, 540), (960, 540), (960, 540), (960, 540), (960, 540), (962, 540), (970, 537), (975, 532), (983, 524), (989, 517), (1004, 496), (1012, 485), (1019, 475), (1030, 461), (1049, 435), (1060, 419), (1069, 408), (1081, 390), (1108, 351), (1117, 334), (1125, 319), (1131, 308), (1142, 286), (1145, 278), (1146, 271), (1147, 264), (1149, 254), (1149, 250), (1149, 246), (1149, 242), (1151, 233), (1154, 225), (1156, 221), (1158, 216), (1162, 204), (1164, 198), (1166, 192)]",300.6235820248539,"[4, 8, 2, 7, 1, 5, 6, 3, 9]","(0, 0.25)",ENG011A,ENG,A,English,Thu Aug 30 11:27:03 2018,Mouse
1,0,1,0,61,7,7,1,291,11,280,137,0,500,200,8000,"[(960, 540), (959, 542), (954, 548), (950, 554), (945, 561), (933, 578), (926, 587), (917, 599), (909, 608), (892, 632), (885, 643), (881, 653), (875, 662), (864, 680), (860, 688), (854, 697), (849, 706), (838, 720), (833, 725), (829, 730), (827, 734), (816, 746), (810, 751), (804, 757), (793, 764), (768, 781), (751, 792), (737, 803), (716, 818), (680, 842)]",132.83521084654652,"[4, 8, 2, 7, 1, 5, 6, 3, 9]","(0, 0.25)",ENG011A,ENG,A,English,Thu Aug 30 11:27:03 2018,Mouse
1,0,1,0,62,3,3,1,270,20,250,137,0,500,200,8000,"[(962, 538), (965, 535), (973, 524), (979, 516), (984, 510), (991, 500), (1003, 482), (1010, 472), (1014, 464), (1020, 454), (1028, 439), (1032, 431), (1037, 423), (1040, 417), (1047, 400), (1050, 393), (1055, 381), (1062, 368), (1078, 344), (1086, 331), (1096, 312), (1106, 296), (1125, 263), (1135, 242), (1148, 220), (1155, 205), (1176, 165)]",299.94194253027297,"[4, 8, 2, 7, 1, 5, 6, 3, 9]","(0, 0.25)",ENG011A,ENG,A,English,Thu Aug 30 11:27:03 2018,Mouse
1,0,1,0,63,6,3,0,-1161,51,1110,136,0,500,200,8000,"[(960, 540), (960, 540), (960, 540), (960, 540), (960, 540), (961, 536), (965, 530), (974, 513), (980, 503), (985, 495), (990, 483), (996, 466), (999, 456), (1001, 448), (1005, 439), (1009, 422), (1011, 416), (1012, 409), (1016, 403), (1018, 396), (1018, 395), (1019, 394), (1019, 394), (1019, 394), (1019, 394), (1019, 394), (1020, 392), (1021, 390), (1023, 388), (1024, 387), (1027, 383), (1032, 379), (1035, 376), (1036, 375), (1036, 375), (1036, 375), (1036, 375), (1036, 375), (1036, 375), (1036, 375), (1036, 375), (1036, 375), (1036, 375), (1036, 379), (1036, 380), (1036, 383), (1036, 385), (1036, 389), (1036, 390), (1036, 391), (1036, 392), (1036, 392), (1036, 392), (1036, 392), (1036, 392), (1036, 392), (1036, 392), (1036, 392), (1036, 392), (1036, 392), (1036, 392), (1036, 392), (1036, 392), (1036, 392), (1036, 392), (1036, 392), (1036, 392), (1036, 393), (1038, 393), (1043, 385), (1050, 376), (1068, 353), (1079, 341), (1091, 326), (1103, 313), (1126, 288), (1135, 276), (1144, 266), (1154, 252), (1165, 233), (1169, 227), (1172, 221), (1175, 216), (1179, 210), (1179, 209), (1179, 209), (1179, 209), (1179, 209), (1179, 209), (1179, 209), (1179, 209), (1179, 209), (1179, 209), (1179, 209), (1179, 209), (1179, 211), (1178, 215), (1175, 221), (1173, 225), (1169, 237), (1168, 241), (1167, 246), (1164, 253), (1162, 260), (1161, 263), (1161, 264), (1161, 264), (1161, 264), (1161, 264), (1161, 264), (1165, 264), (1174, 256), (1179, 248), (1183, 242), (1189, 235), (1198, 223), (1201, 217)]",306.72772478748703,"[4, 8, 2, 7, 1, 5, 6, 3, 9]","(0, 0.25)",ENG011A,ENG,A,English,Thu Aug 30 11:27:03 2018,Mouse
1,0,1,0,64,4,1,0,-369,229,140,137,0,500,200,8000,"[(960, 540), (960, 540), (960, 540), (960, 540), (960, 540), (960, 540), (960, 540), (960, 540), (960, 540), (960, 540), (960, 540), (960, 540), (960, 540), (960, 540), (960, 540), (960, 540), (960, 540), (960, 540), (960, 540), (960, 540), (960, 540), (960, 540), (958, 542), (951, 545), (943, 549), (923, 553), (910, 554), (895, 556), (877, 559), (830, 562), (802, 562), (775, 562), (738, 562), (663, 562), (633, 562), (591, 562), (558, 562)]",176.867534801432,"[4, 8, 2, 7, 1, 5, 6, 3, 9]","(0, 0.25)",ENG011A,ENG,A,English,Thu Aug 30 11:27:03 2018,Mouse
1,0,1,0,65,4,7,0,-540,380,160,138,0,500,200,8000,"[(960, 540), (960, 540), (960, 540), (960, 540), (960, 540), (960, 540), (960, 540), (960, 540), (960, 540), (960, 540), (960, 540), (960, 540), (960, 540), (960, 540), (960, 540), (960, 540), (960, 540), (960, 540), (960, 540), (960, 540), (960, 540), (960, 540), (960, 540), (960, 540), (960, 540), (960, 540), (960, 540), (960, 540), (960, 540), (960, 540), (960, 540), (960, 540), (960, 540), (960, 540), (960, 540), (960, 540), (960, 540), (961, 540), (961, 543), (953, 558), (944, 569), (935, 576), (921, 589), (890, 616), (875, 630), (857, 646), (839, 661), (791, 696), (764, 711), (734, 729), (711, 743), (671, 774), (653, 789), (644, 798)]",140.76988505787966,"[4, 8, 2, 7, 1, 5, 6, 3, 9]","(0, 0.25)",ENG011A,ENG,A,English,Thu Aug 30 11:27:03 2018,Mouse
1,0,1,0,66,8,8,1,481,241,240,139,0,500,200,8000,"[(960, 540), (960, 540), (960, 540), (960, 540), (960, 540), (960, 540), (960, 540), (960, 540), (960, 540), (960, 540), (960, 540), (960, 540), (960, 540), (960, 540), (960, 540), (960, 540), (960, 540), (960, 540), (960, 540), (960, 540), (960, 540), (960, 540), (960, 540), (960, 540), (961, 539), (968, 545), (973, 550), (980, 556), (988, 561), (1006, 574), (1016, 581), (1021, 586), (1029, 592), (1038, 605), (1043, 613), (1044, 620), (1047, 630), (1048, 655), (1048, 672), (1048, 692), (1048, 714), (1048, 759), (1048, 779), (1048, 801), (1051, 822), (1063, 866), (1070, 889), (1080, 912), (1091, 929)]",71.3884853892771,"[4, 8, 2, 7, 1, 5, 6, 3, 9]","(0, 0.25)",ENG011A,ENG,A,English,Thu Aug 30 11:27:03 2018,Mouse
1,0,1,0,67,4,4,1,1010,910,100,139,0,500,200,8000,"[(960, 540), (960, 540), (960, 540), (960, 540), (960, 540), (960, 540), (960, 540), (960, 540), (960, 540), (960, 540), (960, 540), (960, 540), (960, 540), (960, 540), (960, 540), (960, 540), (960, 540), (960, 540), (960, 540), (960, 540), (960, 540), (960, 540), (960, 540), (960, 540), (960, 540), (960, 540), (960, 540), (960, 540), (960, 540), (960, 540), (960, 540), (960, 540), (960, 540), (960, 540), (960, 540), (960, 540), (960, 540), (960, 540), (960, 540), (960, 540), (960, 540), (960, 540), (960, 540), (960, 540), (960, 540), (960, 540), (960, 540), (960, 540), (960, 540), (960, 540), (960, 540), (960, 540), (960, 540), (960, 540), (960, 540), (960, 540), (960, 540), (960, 540), (960, 540), (960, 540), (960, 540), (960, 540), (960, 540), (960, 540), (960, 540), (960, 540), (960, 540), (960, 540), (960, 540), (960, 540), (960, 540), (960, 540), (960, 540), (960, 540), (960, 540), (960, 540), (960, 540), (960, 540), (960, 540), (960, 540), (960, 540), (960, 540), (960, 540), (960, 540), (960, 540), (960, 540), (960, 540), (960, 540), (960, 540), (960, 540), (963, 539), (981, 546), (992, 550), (1011, 558), (1037, 570), (1106, 597), (1145, 610), (1190, 624), (1236, 635), (1322, 660), (1361, 671)]",18.09135006630682,"[4, 8, 2, 7, 1, 5, 6, 3, 9]","(0, 0.25)",ENG011A,ENG,A,English,Thu Aug 30 11:27:03 2018,Mouse
1,0,1,0,68,5,3,0,-410,180,230,138,0,500,200,8000,"[(960, 540), (960, 540), (960, 540), (960, 540), (960, 540), (960, 540), (960, 540), (960, 540), (960, 540), (960, 540), (960, 540), (960, 540), (960, 540), (960, 540), (960, 540), (960, 540), (960, 540), (960, 538), (962, 535), (965, 529), (969, 523), (978, 509), (982, 503), (988, 493), (994, 481), (1005, 462), (1010, 451), (1017, 441), (1024, 429), (1034, 409), (1040, 398), (1046, 385), (1052, 371), (1062, 339), (1066, 320), (1071, 301), (1079, 278), (1090, 241), (1098, 213), (1102, 189), (1110, 169)]",292.0141074587498,"[4, 8, 2, 7, 1, 5, 6, 3, 9]","(0, 0.25)",ENG011A,ENG,A,English,Thu Aug 30 11:27:03 2018,Mouse
1,0,1,0,69,6,6,1,810,500,310,139,0,500,200,8000,"[(960, 540), (960, 540), (960, 540), (960, 540), (960, 540), (960, 540), (960, 540), (960, 540), (960, 540), (960, 540), (960, 540), (960, 540), (960, 540), (960, 540), (960, 540), (960, 540), (960, 540), (960, 540), (960, 540), (960, 540), (960, 540), (960, 540), (960, 540), (960, 540), (960, 540), (960, 540), (960, 540), (960, 540), (960, 540), (960, 540), (960, 540), (960, 540), (960, 540), (960, 540), (960, 540), (960, 540), (960, 540), (960, 540), (960, 540), (960, 540), (960, 540), (960, 540), (960, 540), (960, 540), (960, 540), (960, 540), (960, 540), (960, 540), (960, 540), (961, 539), (961, 539), (961, 539), (961, 539), (961, 539), (961, 539), (961, 539), (961, 539), (961, 539), (961, 539), (961, 539), (961, 539), (961, 539), (961, 539), (961, 539), (961, 539), (961, 539), (961, 539), (961, 539), (961, 539), (961, 539), (962, 539), (965, 521), (966, 506), (966, 483), (966, 463), (966, 396), (964, 357), (960, 314), (953, 273), (949, 184), (949, 134)]",268.44803096732755,"[4, 8, 2, 7, 1, 5, 6, 3, 9]","(0, 0.25)",ENG011A,ENG,A,English,Thu Aug 30 11:27:03 2018,Mouse
1,0,1,0,70,2,2,1,1380,1280,100,139,0,500,200,8000,"[(960, 540), (960, 540), (960, 540), (960, 540), (960, 540), (960, 540), (960, 540), (960, 540), (960, 540), (960, 540), (960, 540), (960, 540), (960, 540), (960, 540), (960, 540), (960, 540), (960, 540), (960, 540), (960, 540), (960, 540), (960, 540), (960, 540), (960, 540), (960, 540), (960, 540), (960, 540), (960, 540), (960, 540), (960, 540), (960, 540), (960, 540), (960, 540), (960, 540), (960, 540), (960, 540), (960, 540), (960, 540), (960, 540), (960, 540), (960, 540), (960, 540), (960, 540), (960, 540), (960, 540), (960, 540), (960, 540), (960, 540), (960, 540), (960, 540), (960, 540), (960, 540), (960, 540), (960, 540), (960, 540), (960, 540), (960, 540), (960, 540), (960, 540), (960, 540), (960, 540), (960, 540), (960, 540), (960, 540), (960, 540), (960, 540), (960, 540), (960, 540), (960, 540), (960, 540), (960, 540), (960, 540), (960, 540), (960, 540), (960, 540), (960, 540), (960, 540), (960, 540), (960, 540), (960, 540), (960, 540), (960, 540), (960, 540), (960, 540), (960, 540), (960, 540), (960, 540), (960, 540), (960, 540), (960, 540), (960, 540), (960, 540), (960, 540), (960, 540), (960, 540), (960, 540), (960, 540), (960, 540), (960, 540), (960, 540), (960, 540), (960, 540), (960, 540), (960, 540), (960, 540), (960, 540), (960, 540), (960, 540), (960, 540), (960, 540), (960, 540), (960, 540), (960, 540), (960, 540), (960, 540), (960, 540), (960, 540), (960, 540), (960, 540), (960, 540), (960, 540), (960, 540), (960, 540), (960, 540), (960, 540), (960, 540), (960, 540), (960, 540), (961, 540), (961, 544), (966, 562), (966, 577), (966, 596), (966, 624), (958, 704), (952, 752), (942, 809), (934, 858), (920, 971)]",95.3022852989741,"[4, 8, 2, 7, 1, 5, 6, 3, 9]","(0, 0.25)",ENG011A,ENG,A,English,Thu Aug 30 11:27:03 2018,Mouse
1,0,1,0,71,5,3,0,-591,481,110,138,0,500,200,8000,"[(960, 540), (960, 540), (960, 540), (960, 540), (960, 540), (960, 540), (960, 540), (960, 540), (960, 540), (960, 540), (960, 540), (960, 540), (960, 540), (960, 540), (960, 540), (960, 540), (960, 540), (960, 540), (960, 540), (960, 540), (960, 540), (960, 540), (960, 540), (960, 540), (960, 540), (960, 540), (960, 540), (960, 540), (960, 540), (960, 540), (960, 540), (960, 540), (960, 540), (960, 540), (960, 540), (960, 540), (960, 540), (960, 540), (960, 540), (960, 540), (960, 540), (960, 540), (960, 540), (960, 540), (960, 540), (960, 540), (960, 540), (960, 540), (964, 539), (972, 529), (983, 517), (1007, 482), (1023, 457), (1044, 432), (1061, 404), (1101, 343), (1121, 308), (1139, 265), (1153, 231), (1182, 162)]",300.42578380196124,"[4, 8, 2, 7, 1, 5, 6, 3, 9]","(0, 0.25)",ENG011A,ENG,A,English,Thu Aug 30 11:27:03 2018,Mouse
1,0,1,0,72,6,6,1,511,391,120,139,0,500,200,8000,"[(960, 540), (960, 540), (960, 540), (960, 540), (960, 540), (960, 540), (960, 540), (960, 540), (960, 540), (960, 540), (960, 540), (960, 540), (960, 540), (960, 540), (960, 540), (960, 540), (960, 540), (960, 540), (960, 540), (960, 540), (960, 540), (960, 540), (960, 540), (960, 540), (960, 540), (960, 540), (960, 540), (960, 540), (960, 540), (960, 540), (960, 540), (960, 540), (960, 540), (960, 540), (960, 540), (960, 540), (960, 540), (960, 540), (960, 540), (958, 524), (957, 509), (953, 494), (951, 475), (943, 422), (939, 390), (938, 351), (938, 315), (938, 240), (938, 209), (938, 187), (938, 159), (935, 107)]",266.69559810408407,"[4, 8, 2, 7, 1, 5, 6, 3, 9]","(0, 0.25)",ENG011A,ENG,A,English,Thu Aug 30 11:27:03 2018,Mouse
1,0,1,0,73,1,1,1,461,271,190,139,0,500,200,8000,"[(960, 540), (960, 540), (960, 540), (960, 540), (960, 540), (960, 540), (960, 540), (960, 540), (960, 540), (960, 540), (960, 540), (960, 540), (960, 540), (960, 540), (960, 540), (960, 540), (960, 540), (960, 540), (960, 540), (960, 540), (960, 540), (960, 540), (960, 540), (960, 540), (960, 540), (960, 540), (960, 540), (958, 541), (958, 541), (954, 543), (951, 544), (941, 547), (934, 548), (926, 549), (920, 550), (901, 554), (890, 555), (877, 556), (860, 558), (809, 560), (778, 560), (737, 560), (700, 560), (636, 560), (610, 558), (578, 554), (559, 550)]",178.57147364633,"[4, 8, 2, 7, 1, 5, 6, 3, 9]","(0, 0.25)",ENG011A,ENG,A,English,Thu Aug 30 11:27:03 2018,Mouse
1,0,1,0,74,9,9,1,760,600,160,138,0,500,200,8000,"[(960, 540), (960, 540), (960, 540), (960, 540), (960, 540), (960, 540), (960, 540), (960, 540), (960, 540), (960, 540), (960, 540), (960, 540), (960, 540), (960, 540), (960, 540), (960, 540), (960, 540), (960, 540), (960, 540), (960, 540), (960, 540), (960, 540), (960, 540), (960, 540), (960, 540), (960, 540), (960, 540), (960, 540), (960, 540), (960, 540), (960, 540), (960, 540), (960, 540), (960, 540), (960, 540), (960, 540), (960, 540), (960, 540), (960, 540), (960, 540), (960, 540), (960, 540), (960, 540), (960, 540), (960, 540), (960, 540), (960, 540), (960, 540), (960, 540), (960, 540), (960, 540), (960, 540), (960, 540), (960, 540), (960, 540), (960, 540), (960, 540), (960, 540), (960, 540), (968, 537), (974, 534), (981, 530), (990, 526), (1012, 517), (1029, 509), (1047, 502), (1076, 491), (1127, 471), (1155, 463), (1179, 459), (1205, 451), (1244, 439), (1269, 432), (1295, 424), (1319, 417), (1375, 403)]",341.73088509753904,"[4, 8, 2, 7, 1, 5, 6, 3, 9]","(0, 0.25)",ENG011A,ENG,A,English,Thu Aug 30 11:27:03 2018,Mouse
1,0,1,0,75,3,3,1,421,311,110,137,0,500,200,8000,"[(960, 540), (960, 540), (960, 540), (960, 540), (960, 540), (960, 540), (960, 540), (960, 540), (960, 540), (960, 540), (960, 540), (960, 540), (960, 540), (960, 540), (960, 540), (960, 540), (960, 540), (960, 540), (960, 540), (960, 540), (960, 540), (960, 540), (960, 540), (960, 540), (960, 540), (960, 540), (960, 540), (960, 540), (960, 540), (960, 540), (960, 540), (959, 533), (964, 518), (967, 502), (976, 474), (999, 416), (1015, 384), (1032, 349), (1052, 317), (1093, 258), (1113, 227), (1130, 197), (1144, 168)]",296.31808813965176,"[4, 8, 2, 7, 1, 5, 6, 3, 9]","(0, 0.25)",ENG011A,ENG,A,English,Thu Aug 30 11:27:03 2018,Mouse
1,0,1,0,76,3,3,1,178,18,160,136,0,500,200,8000,"[(960, 539), (962, 529), (967, 519), (977, 496), (984, 483), (990, 470), (997, 456), (1014, 426), (1022, 408), (1031, 390), (1037, 375), (1049, 345), (1058, 327), (1068, 306), (1079, 282), (1112, 225), (1130, 195), (1148, 162)]",296.4436619953272,"[4, 8, 2, 7, 1, 5, 6, 3, 9]","(0, 0.25)",ENG011A,ENG,A,English,Thu Aug 30 11:27:03 2018,Mouse
1,0,1,0,77,7,7,1,471,331,140,135,0,500,200,8000,"[(960, 540), (960, 540), (960, 540), (960, 540), (960, 540), (960, 540), (960, 540), (960, 540), (960, 540), (960, 540), (960, 540), (960, 540), (960, 540), (960, 540), (960, 540), (960, 540), (960, 540), (960, 540), (960, 540), (960, 540), (960, 540), (960, 540), (960, 540), (960, 540), (960, 540), (960, 540), (960, 540), (960, 540), (960, 540), (960, 540), (960, 540), (960, 540), (960, 540), (959, 541), (956, 542), (956, 543), (951, 546), (935, 557), (925, 563), (913, 569), (896, 582), (848, 614), (820, 634), (782, 655), (746, 677), (675, 720), (644, 744), (621, 760)]",147.0177372560394,"[4, 8, 2, 7, 1, 5, 6, 3, 9]","(0, 0.25)",ENG011A,ENG,A,English,Thu Aug 30 11:27:03 2018,Mouse
1,0,1,0,78,1,1,1,382,272,110,134,0,500,200,8000,"[(960, 540), (960, 540), (960, 540), (960, 540), (960, 540), (960, 540), (960, 540), (960, 540), (960, 540), (960, 540), (960, 540), (960, 540), (960, 540), (960, 540), (960, 540), (960, 540), (960, 540), (960, 540), (960, 540), (960, 540), (960, 540), (960, 540), (960, 540), (960, 540), (960, 540), (960, 540), (960, 540), (959, 540), (955, 540), (932, 540), (917, 540), (898, 540), (873, 540), (807, 535), (767, 527), (729, 524), (689, 518), (592, 505), (543, 497)]",185.88738942747776,"[4, 8, 2, 7, 1, 5, 6, 3, 9]","(0, 0.25)",ENG011A,ENG,A,English,Thu Aug 30 11:27:03 2018,Mouse
1,0,1,0,79,1,8,0,-1061,261,800,133,0,500,200,8000,"[(960, 540), (960, 540), (960, 540), (960, 540), (960, 540), (960, 540), (960, 540), (960, 540), (960, 540), (960, 540), (960, 540), (960, 540), (960, 540), (960, 540), (960, 540), (960, 540), (960, 540), (960, 540), (960, 540), (960, 540), (960, 540), (960, 540), (960, 540), (960, 540), (960, 540), (960, 540), (962, 540), (964, 538), (964, 538), (964, 538), (965, 536), (965, 535), (965, 535), (965, 535), (965, 535), (965, 535), (965, 535), (965, 535), (965, 535), (965, 535), (965, 535), (965, 535), (965, 535), (965, 535), (965, 535), (965, 535), (965, 535), (965, 535), (965, 535), (965, 535), (965, 535), (965, 535), (965, 535), (965, 535), (965, 535), (965, 535), (965, 535), (965, 535), (965, 535), (965, 535), (965, 535), (965, 535), (965, 535), (965, 535), (965, 535), (965, 535), (965, 535), (965, 535), (965, 535), (965, 535), (965, 535), (965, 535), (965, 535), (965, 535), (965, 535), (965, 535), (965, 535), (965, 535), (965, 535), (965, 535), (965, 535), (965, 535), (965, 535), (965, 535), (965, 535), (965, 535), (965, 535), (965, 535), (965, 535), (965, 535), (965, 535), (965, 535), (966, 537), (969, 544), (978, 564), (987, 579), (994, 593), (1007, 614), (1037, 666), (1053, 691), (1068, 713), (1083, 734), (1115, 779), (1132, 801), (1146, 826), (1160, 846), (1180, 876)]",56.7847485062628,"[4, 8, 2, 7, 1, 5, 6, 3, 9]","(0, 0.25)",ENG011A,ENG,A,English,Thu Aug 30 11:27:03 2018,Mouse
1,0,1,0,80,2,7,0,-2051,1921,130,134,0,500,200,8000,"[(960, 540), (960, 540), (960, 540), (960, 540), (960, 540), (960, 540), (960, 540), (960, 540), (960, 540), (960, 540), (960, 540), (960, 540), (960, 540), (960, 540), (960, 540), (960, 540), (960, 540), (960, 540), (960, 540), (960, 540), (960, 540), (960, 540), (960, 540), (960, 540), (960, 540), (960, 540), (960, 540), (960, 540), (960, 540), (960, 540), (960, 540), (960, 540), (960, 540), (960, 540), (960, 540), (960, 540), (960, 540), (960, 540), (960, 540), (960, 540), (960, 540), (960, 540), (960, 540), (960, 540), (960, 540), (960, 540), (960, 540), (960, 540), (960, 540), (960, 540), (960, 540), (960, 540), (960, 540), (960, 540), (960, 540), (960, 540), (960, 540), (960, 540), (960, 540), (960, 540), (960, 540), (960, 540), (960, 540), (960, 540), (960, 540), (960, 540), (960, 540), (960, 540), (960, 540), (960, 540), (960, 540), (960, 540), (960, 540), (960, 540), (960, 540), (960, 540), (960, 540), (960, 540), (960, 540), (960, 540), (960, 540), (960, 540), (960, 540), (960, 540), (960, 540), (960, 540), (960, 540), (960, 540), (960, 540), (960, 540), (960, 540), (960, 540), (960, 540), (960, 540), (960, 540), (960, 540), (960, 540), (960, 540), (960, 540), (960, 540), (960, 540), (960, 540), (960, 540), (960, 540), (960, 540), (960, 540), (960, 540), (960, 540), (960, 540), (960, 540), (960, 540), (960, 540), (960, 540), (960, 540), (960, 540), (960, 540), (960, 540), (960, 540), (960, 540), (960, 540), (960, 540), (960, 540), (960, 540), (960, 540), (960, 540), (960, 540), (960, 540), (960, 540), (960, 540), (960, 540), (960, 540), (960, 540), (960, 540), (960, 540), (960, 540), (960, 540), (960, 540), (960, 540), (960, 540), (960, 540), (960, 540), (960, 540), (960, 540), (960, 540), (960, 540), (960, 540), (960, 540), (960, 540), (960, 540), (960, 540), (960, 540), (960, 540), (960, 540), (960, 540), (960, 540), (960, 540), (960, 540), (960, 540), (960, 540), (960, 540), (960, 540), (960, 540), (960, 540), (960, 540), (960, 540), (960, 540), (960, 540), (960, 540), (960, 540), (960, 540), (960, 540), (960, 540), (960, 540), (960, 540), (960, 540), (960, 540), (960, 540), (960, 540), (960, 540), (960, 540), (960, 540), (960, 540), (960, 540), (960, 540), (960, 540), (960, 540), (960, 540), (960, 540), (960, 540), (960, 540), (960, 540), (960, 540), (959, 540), (957, 542), (953, 547), (943, 560), (932, 569), (922, 579), (908, 589), (859, 628), (832, 647), (798, 671), (765, 690), (697, 730), (661, 751), (629, 769)]",145.32285268423644,"[4, 8, 2, 7, 1, 5, 6, 3, 9]","(0, 0.25)",ENG011A,ENG,A,English,Thu Aug 30 11:27:03 2018,Mouse
1,0,1,0,81,5,3,0,-581,471,110,135,0,500,200,8000,"[(960, 540), (960, 540), (960, 540), (960, 540), (960, 540), (960, 540), (960, 540), (960, 540), (960, 540), (960, 540), (960, 540), (960, 540), (960, 540), (960, 540), (960, 540), (960, 540), (960, 540), (960, 540), (960, 540), (960, 540), (960, 540), (960, 540), (960, 540), (960, 540), (960, 540), (960, 540), (960, 540), (960, 540), (960, 540), (960, 540), (960, 540), (960, 540), (960, 540), (960, 540), (960, 540), (960, 540), (960, 540), (960, 540), (960, 540), (960, 540), (960, 540), (960, 540), (960, 540), (960, 540), (960, 540), (960, 540), (960, 540), (964, 536), (969, 530), (979, 514), (989, 500), (1003, 481), (1015, 456), (1051, 394), (1074, 355), (1094, 310), (1111, 270), (1151, 197), (1170, 151)]",298.3622036444839,"[4, 8, 2, 7, 1, 5, 6, 3, 9]","(0, 0.25)",ENG011A,ENG,A,English,Thu Aug 30 11:27:03 2018,Mouse
1,0,1,0,82,6,3,0,-330,60,270,136,0,500,200,8000,"[(960, 540), (960, 540), (960, 540), (960, 540), (960, 540), (960, 531), (963, 525), (964, 516), (968, 504), (975, 481), (979, 468), (982, 456), (987, 439), (994, 416), (997, 402), (999, 391), (1004, 382), (1008, 368), (1009, 362), (1012, 353), (1013, 350), (1015, 340), (1019, 334), (1023, 328), (1030, 318), (1042, 300), (1052, 286), (1059, 273), (1066, 260), (1092, 221), (1103, 204), (1115, 185), (1128, 165)]",294.1323795945808,"[4, 8, 2, 7, 1, 5, 6, 3, 9]","(0, 0.25)",ENG011A,ENG,A,English,Thu Aug 30 11:27:03 2018,Mouse
1,0,1,0,83,4,6,0,-840,540,300,137,0,500,200,8000,"[(960, 540), (960, 540), (960, 540), (960, 540), (960, 540), (960, 540), (960, 540), (960, 540), (960, 540), (960, 540), (960, 540), (960, 540), (960, 540), (960, 540), (960, 540), (960, 540), (960, 540), (960, 540), (960, 540), (960, 540), (960, 540), (960, 540), (960, 540), (960, 540), (960, 540), (960, 540), (960, 540), (960, 540), (960, 540), (960, 540), (960, 540), (960, 540), (960, 540), (960, 540), (960, 540), (960, 540), (960, 540), (960, 540), (960, 540), (960, 540), (960, 540), (960, 540), (960, 540), (960, 540), (960, 540), (960, 540), (960, 540), (960, 540), (960, 540), (960, 540), (960, 540), (960, 540), (960, 540), (957, 541), (955, 538), (945, 533), (941, 528), (941, 526), (939, 524), (938, 524), (938, 523), (938, 523), (938, 523), (938, 522), (938, 522), (938, 522), (938, 522), (938, 521), (938, 521), (938, 520), (939, 519), (941, 517), (943, 515), (945, 512), (948, 506), (952, 489), (953, 477), (957, 459), (958, 436), (965, 362), (967, 317), (969, 272), (975, 232), (979, 117)]",272.5718406078498,"[4, 8, 2, 7, 1, 5, 6, 3, 9]","(0, 0.25)",ENG011A,ENG,A,English,Thu Aug 30 11:27:03 2018,Mouse
1,0,1,0,84,8,8,1,242,52,190,138,0,500,200,8000,"[(960, 540), (960, 540), (960, 540), (960, 540), (960, 540), (960, 542), (961, 545), (962, 548), (962, 551), (963, 556), (964, 561), (968, 574), (971, 583), (973, 591), (977, 601), (980, 625), (986, 643), (992, 663), (1000, 688), (1021, 738), (1035, 769), (1045, 800), (1059, 832), (1085, 893), (1095, 919)]",70.39407409122423,"[4, 8, 2, 7, 1, 5, 6, 3, 9]","(0, 0.25)",ENG011A,ENG,A,English,Thu Aug 30 11:27:03 2018,Mouse
1,0,1,0,85,9,9,1,510,400,110,138,0,500,200,8000,"[(960, 540), (960, 540), (960, 540), (960, 540), (960, 540), (960, 540), (960, 540), (960, 540), (960, 540), (960, 540), (960, 540), (960, 540), (960, 540), (960, 540), (960, 540), (960, 540), (960, 540), (960, 540), (960, 540), (960, 540), (960, 540), (960, 540), (960, 540), (960, 540), (960, 540), (960, 540), (960, 540), (960, 540), (960, 540), (960, 540), (960, 540), (960, 540), (960, 540), (960, 540), (960, 540), (960, 540), (960, 540), (960, 540), (960, 540), (959, 540), (962, 536), (985, 528), (1000, 523), (1025, 513), (1057, 499), (1125, 476), (1169, 462), (1207, 446), (1244, 431), (1319, 393), (1354, 377)]",337.52484715867377,"[4, 8, 2, 7, 1, 5, 6, 3, 9]","(0, 0.25)",ENG011A,ENG,A,English,Thu Aug 30 11:27:03 2018,Mouse
1,0,1,0,86,9,9,1,281,61,220,137,0,500,200,8000,"[(960, 540), (960, 540), (960, 540), (960, 540), (960, 540), (960, 540), (969, 539), (977, 537), (990, 534), (1002, 529), (1030, 526), (1044, 522), (1055, 521), (1066, 520), (1088, 517), (1099, 515), (1108, 515), (1119, 514), (1143, 511), (1155, 510), (1167, 507), (1180, 505), (1210, 498), (1227, 493), (1246, 487), (1269, 480), (1316, 467), (1338, 462), (1361, 454)]",347.89548546744305,"[4, 8, 2, 7, 1, 5, 6, 3, 9]","(0, 0.25)",ENG011A,ENG,A,English,Thu Aug 30 11:27:03 2018,Mouse
1,0,1,0,87,9,9,1,340,120,220,136,0,500,200,8000,"[(960, 540), (960, 540), (960, 540), (960, 540), (960, 540), (960, 540), (960, 540), (960, 540), (960, 540), (960, 540), (960, 540), (964, 540), (968, 538), (973, 535), (976, 533), (978, 532), (984, 528), (985, 526), (987, 526), (989, 523), (996, 519), (1003, 515), (1009, 512), (1018, 507), (1038, 499), (1049, 495), (1064, 486), (1088, 477), (1148, 451), (1180, 439), (1213, 430), (1249, 419), (1324, 397), (1357, 388)]",339.0495792665023,"[4, 8, 2, 7, 1, 5, 6, 3, 9]","(0, 0.25)",ENG011A,ENG,A,English,Thu Aug 30 11:27:03 2018,Mouse
1,0,1,0,88,6,9,0,-259,79,180,135,0,500,200,8000,"[(960, 540), (960, 540), (960, 540), (960, 540), (960, 540), (960, 540), (960, 540), (963, 540), (972, 537), (995, 525), (1007, 519), (1024, 512), (1042, 505), (1082, 491), (1100, 484), (1125, 476), (1145, 470), (1190, 457), (1209, 453), (1231, 445), (1254, 438), (1294, 419), (1306, 416), (1317, 411), (1329, 405), (1352, 398)]",340.0873390731516,"[4, 8, 2, 7, 1, 5, 6, 3, 9]","(0, 0.25)",ENG011A,ENG,A,English,Thu Aug 30 11:27:03 2018,Mouse
1,0,1,0,89,9,8,0,-960,510,450,136,0,500,200,8000,"[(960, 540), (960, 540), (960, 540), (960, 540), (960, 540), (960, 540), (960, 540), (960, 540), (960, 540), (960, 540), (960, 540), (960, 540), (960, 540), (960, 540), (960, 540), (960, 540), (960, 540), (960, 540), (960, 540), (960, 540), (960, 540), (960, 540), (960, 540), (960, 540), (960, 540), (960, 540), (960, 540), (960, 540), (960, 540), (960, 540), (960, 540), (960, 540), (960, 540), (960, 540), (960, 540), (960, 540), (960, 540), (960, 540), (960, 540), (960, 540), (960, 540), (960, 540), (960, 540), (960, 540), (960, 540), (960, 540), (960, 540), (960, 540), (960, 540), (960, 540), (960, 547), (960, 554), (960, 562), (962, 572), (969, 594), (974, 609), (977, 621), (982, 637), (993, 679), (999, 701), (1003, 715), (1009, 733), (1017, 763), (1022, 777), (1026, 790), (1031, 801), (1040, 820), (1046, 827), (1050, 832), (1055, 837), (1062, 844), (1066, 847), (1069, 849), (1071, 850), (1075, 853), (1075, 853), (1075, 853), (1075, 853), (1075, 853), (1076, 854), (1076, 855), (1078, 857), (1080, 860), (1082, 862), (1085, 865), (1087, 867), (1094, 875), (1099, 880), (1104, 883), (1111, 888), (1122, 894), (1125, 894), (1130, 897), (1133, 898), (1136, 899), (1137, 900)]",63.81819246855676,"[4, 8, 2, 7, 1, 5, 6, 3, 9]","(0, 0.25)",ENG011A,ENG,A,English,Thu Aug 30 11:27:03 2018,Mouse
1,0,1,0,90,5,5,1,1691,1581,110,137,0,500,200,8000,"[(960, 540), (960, 540), (960, 540), (960, 540), (960, 540), (960, 540), (960, 540), (960, 540), (960, 540), (960, 540), (960, 540), (960, 540), (960, 540), (960, 540), (960, 540), (960, 540), (960, 540), (960, 540), (960, 540), (960, 540), (960, 540), (960, 540), (960, 540), (960, 540), (960, 540), (960, 540), (960, 540), (960, 540), (960, 540), (960, 540), (960, 540), (960, 540), (960, 540), (960, 540), (960, 540), (960, 540), (960, 540), (960, 540), (960, 540), (960, 540), (960, 540), (960, 540), (960, 540), (960, 540), (960, 540), (960, 540), (960, 540), (960, 540), (960, 540), (960, 540), (960, 540), (960, 540), (960, 540), (960, 540), (960, 540), (960, 540), (960, 540), (960, 540), (960, 540), (960, 540), (960, 540), (960, 540), (960, 540), (960, 540), (960, 540), (960, 540), (960, 540), (960, 540), (960, 540), (960, 540), (960, 540), (960, 540), (960, 540), (960, 540), (960, 540), (960, 540), (960, 540), (960, 540), (960, 540), (960, 540), (960, 540), (960, 540), (960, 540), (960, 540), (960, 540), (960, 540), (960, 540), (960, 540), (960, 540), (960, 540), (960, 540), (960, 540), (960, 540), (960, 540), (960, 540), (960, 540), (960, 540), (960, 540), (960, 540), (960, 540), (960, 540), (960, 540), (960, 540), (960, 540), (960, 540), (960, 540), (960, 540), (960, 540), (960, 540), (960, 540), (960, 540), (960, 540), (960, 540), (960, 540), (960, 540), (960, 540), (960, 540), (960, 540), (960, 540), (960, 540), (960, 540), (960, 540), (960, 540), (960, 540), (960, 540), (960, 540), (960, 540), (960, 540), (960, 540), (960, 540), (960, 540), (960, 540), (960, 540), (960, 540), (960, 540), (960, 540), (960, 540), (960, 540), (960, 540), (960, 540), (960, 540), (960, 540), (960, 540), (960, 540), (960, 540), (960, 540), (960, 540), (960, 540), (960, 540), (960, 540), (960, 540), (960, 540), (960, 540), (960, 540), (960, 540), (960, 540), (960, 540), (959, 537), (950, 533), (944, 529), (931, 520), (899, 497), (874, 480), (846, 461), (810, 441), (735, 388), (699, 364), (650, 335), (616, 309)]",213.8818197535569,"[4, 8, 2, 7, 1, 5, 6, 3, 9]","(0, 0.25)",ENG011A,ENG,A,English,Thu Aug 30 11:27:03 2018,Mouse
1,0,1,0,91,5,5,1,600,480,120,137,0,500,200,8000,"[(960, 540), (960, 540), (960, 540), (960, 540), (960, 540), (960, 540), (960, 540), (960, 540), (960, 540), (960, 540), (960, 540), (960, 540), (960, 540), (960, 540), (960, 540), (960, 540), (960, 540), (960, 540), (960, 540), (960, 540), (960, 540), (960, 540), (960, 540), (960, 540), (960, 540), (960, 540), (960, 540), (960, 540), (960, 540), (960, 540), (960, 540), (960, 540), (960, 540), (960, 540), (960, 540), (960, 540), (960, 540), (960, 540), (960, 540), (960, 540), (960, 540), (960, 540), (960, 540), (960, 540), (960, 540), (960, 540), (960, 540), (955, 535), (947, 525), (936, 511), (917, 492), (875, 453), (843, 425), (817, 402), (791, 378), (741, 335), (721, 318), (697, 297), (677, 284), (638, 257)]",221.31165632117148,"[4, 8, 2, 7, 1, 5, 6, 3, 9]","(0, 0.25)",ENG011A,ENG,A,English,Thu Aug 30 11:27:03 2018,Mouse
