NativeLangNumber,LanuageNumber,SessionNumber,Block,TrialNum,ConditionNumber,Response,Accuracy,RT,MovementOnsetTime,TimeInMotion,SignalContrast,SignalContrastNumber,StimDisplayTime,MaskTime,MaxResponseTime,MousePositionXY,MouseAngle,WheelOrder,NoiseMuSigma,ParticipantID,LanuageTested,SessionTested,NativeLanuage,Date,ResponseDevice
1,0,2,0,1,1,1,1,422,362,60,153,0,500,200,8000,"[(960, 540), (960, 540), (960, 540), (960, 540), (960, 540), (960, 540), (960, 540), (960, 540), (960, 540), (960, 540), (960, 540), (960, 540), (960, 540), (960, 540), (960, 540), (960, 540), (960, 540), (960, 540), (960, 540), (960, 540), (960, 540), (960, 540), (960, 540), (960, 540), (960, 540), (960, 540), (960, 540), (960, 540), (960, 540), (960, 540), (960, 540), (960, 540), (960, 540), (960, 540), (960, 540), (960, 540), (948, 522), (935, 506), (916, 478), (880, 441), (787, 343), (730, 286), (662, 220)]",227.03879463926717,"[6, 9, 7, 8, 3, 1, 2, 4, 5]","(0, 0.25)",ENG003B,ENG,B,English,Tue Aug 07 11:20:51 2018,Mouse
1,0,2,0,2,3,3,1,930,860,70,153,0,500,200,8000,"[(960, 540), (960, 540), (960, 540), (960, 540), (960, 540), (960, 540), (960, 540), (960, 540), (960, 540), (960, 540), (960, 540), (960, 540), (960, 540), (960, 540), (960, 540), (960, 540), (960, 540), (960, 540), (960, 540), (960, 540), (960, 540), (960, 540), (960, 540), (960, 540), (960, 540), (960, 540), (960, 540), (960, 540), (960, 540), (960, 540), (960, 540), (960, 540), (960, 540), (960, 540), (960, 540), (960, 540), (960, 540), (960, 540), (960, 540), (960, 540), (960, 540), (960, 540), (960, 540), (960, 540), (960, 540), (960, 540), (960, 540), (960, 540), (960, 540), (960, 540), (960, 540), (960, 540), (960, 540), (960, 540), (960, 540), (960, 540), (960, 540), (960, 540), (960, 540), (960, 540), (960, 540), (960, 540), (960, 540), (960, 540), (960, 540), (960, 540), (960, 540), (960, 540), (960, 540), (960, 540), (960, 540), (960, 540), (960, 540), (960, 540), (960, 540), (960, 540), (960, 540), (960, 540), (960, 540), (960, 540), (960, 540), (960, 540), (960, 540), (960, 540), (960, 540), (956, 540), (945, 540), (928, 540), (853, 540), (795, 540), (723, 540), (635, 540), (460, 540)]",180.0,"[6, 9, 7, 8, 3, 1, 2, 4, 5]","(0, 0.25)",ENG003B,ENG,B,English,Tue Aug 07 11:20:51 2018,Mouse
1,0,2,0,3,8,8,1,1030,940,90,152,0,500,200,8000,"[(960, 540), (960, 540), (960, 540), (960, 540), (960, 540), (960, 540), (960, 540), (960, 540), (960, 540), (960, 540), (960, 540), (960, 540), (960, 540), (960, 540), (960, 540), (960, 540), (960, 540), (960, 540), (960, 540), (960, 540), (960, 540), (960, 540), (960, 540), (960, 540), (960, 540), (960, 540), (960, 540), (960, 540), (960, 540), (960, 540), (960, 540), (960, 540), (960, 540), (960, 540), (960, 540), (960, 540), (960, 540), (960, 540), (960, 540), (960, 540), (960, 540), (960, 540), (960, 540), (960, 540), (960, 540), (960, 540), (960, 540), (960, 540), (960, 540), (960, 540), (960, 540), (960, 540), (960, 540), (960, 540), (960, 540), (960, 540), (960, 540), (960, 540), (960, 540), (960, 540), (960, 540), (960, 540), (960, 540), (960, 540), (960, 540), (960, 540), (960, 540), (960, 540), (960, 540), (960, 540), (960, 540), (960, 540), (960, 540), (960, 540), (960, 540), (960, 540), (960, 540), (960, 540), (960, 540), (960, 540), (960, 540), (960, 540), (960, 540), (960, 540), (960, 540), (960, 540), (960, 540), (960, 540), (960, 540), (960, 540), (960, 540), (960, 540), (960, 540), (961, 543), (959, 553), (951, 565), (938, 584), (920, 614), (867, 685), (835, 729), (799, 770), (763, 807), (679, 871)]",130.32934569776538,"[6, 9, 7, 8, 3, 1, 2, 4, 5]","(0, 0.25)",ENG003B,ENG,B,English,Tue Aug 07 11:20:51 2018,Mouse
1,0,2,0,4,1,1,1,540,450,90,151,0,500,200,8000,"[(960, 540), (960, 540), (960, 540), (960, 540), (960, 540), (960, 540), (960, 540), (960, 540), (960, 540), (960, 540), (960, 540), (960, 540), (960, 540), (960, 540), (960, 540), (960, 540), (960, 540), (960, 540), (960, 540), (960, 540), (960, 540), (960, 540), (960, 540), (960, 540), (960, 540), (960, 540), (960, 540), (960, 540), (960, 540), (960, 540), (960, 540), (960, 540), (960, 540), (960, 540), (960, 540), (960, 540), (960, 540), (960, 540), (960, 540), (960, 540), (960, 540), (960, 540), (960, 540), (960, 540), (960, 537), (955, 530), (941, 507), (930, 488), (909, 457), (876, 424), (794, 338), (753, 295), (710, 254), (660, 221)]",226.75812296967345,"[6, 9, 7, 8, 3, 1, 2, 4, 5]","(0, 0.25)",ENG003B,ENG,B,English,Tue Aug 07 11:20:51 2018,Mouse
1,0,2,0,5,3,3,1,430,350,80,150,0,500,200,8000,"[(960, 540), (960, 540), (960, 540), (960, 540), (960, 540), (960, 540), (960, 540), (960, 540), (960, 540), (960, 540), (960, 540), (960, 540), (960, 540), (960, 540), (960, 540), (960, 540), (960, 540), (960, 540), (960, 540), (960, 540), (960, 540), (960, 540), (960, 540), (960, 540), (960, 540), (960, 540), (960, 540), (960, 540), (960, 540), (960, 540), (960, 540), (960, 540), (960, 540), (960, 540), (958, 540), (939, 540), (922, 540), (897, 540), (867, 540), (737, 540), (659, 540), (571, 540), (480, 540)]",180.0,"[6, 9, 7, 8, 3, 1, 2, 4, 5]","(0, 0.25)",ENG003B,ENG,B,English,Tue Aug 07 11:20:51 2018,Mouse
1,0,2,0,6,7,7,1,717,577,140,149,0,500,200,8000,"[(960, 540), (960, 540), (960, 540), (960, 540), (960, 540), (960, 540), (960, 540), (960, 540), (960, 540), (960, 540), (960, 540), (960, 540), (960, 540), (960, 540), (960, 540), (960, 540), (960, 540), (960, 540), (960, 540), (960, 540), (960, 540), (960, 540), (960, 540), (960, 540), (960, 540), (960, 540), (960, 540), (960, 540), (960, 540), (960, 540), (960, 540), (960, 540), (960, 540), (960, 540), (960, 540), (960, 540), (960, 540), (960, 540), (960, 540), (960, 540), (960, 540), (960, 540), (960, 540), (960, 540), (960, 540), (960, 540), (960, 540), (960, 540), (960, 540), (960, 540), (960, 540), (960, 540), (960, 540), (960, 540), (960, 540), (960, 540), (960, 540), (961, 543), (962, 544), (965, 548), (967, 553), (969, 558), (971, 567), (971, 595), (969, 613), (961, 643), (950, 682), (914, 778), (896, 823), (882, 870), (871, 912), (851, 1010)]",103.05692381358699,"[6, 9, 7, 8, 3, 1, 2, 4, 5]","(0, 0.25)",ENG003B,ENG,B,English,Tue Aug 07 11:20:51 2018,Mouse
1,0,2,0,7,5,5,1,909,849,60,148,0,500,200,8000,"[(960, 540), (960, 540), (960, 540), (960, 540), (960, 540), (960, 540), (960, 540), (960, 540), (960, 540), (960, 540), (960, 540), (960, 540), (960, 540), (960, 540), (960, 540), (960, 540), (960, 540), (960, 540), (960, 540), (960, 540), (960, 540), (960, 540), (960, 540), (960, 540), (960, 540), (960, 540), (960, 540), (960, 540), (960, 540), (960, 540), (960, 540), (960, 540), (960, 540), (960, 540), (960, 540), (960, 540), (960, 540), (960, 540), (960, 540), (960, 540), (960, 540), (960, 540), (960, 540), (960, 540), (960, 540), (960, 540), (960, 540), (960, 540), (960, 540), (960, 540), (960, 540), (960, 540), (960, 540), (960, 540), (960, 540), (960, 540), (960, 540), (960, 540), (960, 540), (960, 540), (960, 540), (960, 540), (960, 540), (960, 540), (960, 540), (960, 540), (960, 540), (960, 540), (960, 540), (960, 540), (960, 540), (960, 540), (960, 540), (960, 540), (960, 540), (960, 540), (960, 540), (960, 540), (960, 540), (960, 540), (960, 540), (960, 540), (960, 540), (960, 540), (961, 541), (974, 540), (1038, 521), (1083, 507), (1141, 493), (1212, 476), (1378, 426)]",344.7448812969422,"[6, 9, 7, 8, 3, 1, 2, 4, 5]","(0, 0.25)",ENG003B,ENG,B,English,Tue Aug 07 11:20:51 2018,Mouse
1,0,2,0,8,6,6,1,529,469,60,147,0,500,200,8000,"[(960, 540), (960, 540), (960, 540), (960, 540), (960, 540), (960, 540), (960, 540), (960, 540), (960, 540), (960, 540), (960, 540), (960, 540), (960, 540), (960, 540), (960, 540), (960, 540), (960, 540), (960, 540), (960, 540), (960, 540), (960, 540), (960, 540), (960, 540), (960, 540), (960, 540), (960, 540), (960, 540), (960, 540), (960, 540), (960, 540), (960, 540), (960, 540), (960, 540), (960, 540), (960, 540), (960, 540), (960, 540), (960, 540), (960, 540), (960, 540), (960, 540), (960, 540), (960, 540), (960, 540), (960, 540), (960, 540), (983, 550), (1009, 558), (1036, 565), (1083, 576), (1202, 608), (1278, 623), (1350, 643)]",14.794171082816298,"[6, 9, 7, 8, 3, 1, 2, 4, 5]","(0, 0.25)",ENG003B,ENG,B,English,Tue Aug 07 11:20:51 2018,Mouse
1,0,2,0,9,7,7,1,571,451,120,146,0,500,200,8000,"[(960, 540), (960, 540), (960, 540), (960, 540), (960, 540), (960, 540), (960, 540), (960, 540), (960, 540), (960, 540), (960, 540), (960, 540), (960, 540), (960, 540), (960, 540), (960, 540), (960, 540), (960, 540), (960, 540), (960, 540), (960, 540), (960, 540), (960, 540), (960, 540), (960, 540), (960, 540), (960, 540), (960, 540), (960, 540), (960, 540), (960, 540), (960, 540), (960, 540), (960, 540), (960, 540), (960, 540), (960, 540), (960, 540), (960, 540), (960, 540), (960, 540), (960, 540), (960, 540), (960, 540), (960, 540), (960, 547), (960, 557), (960, 568), (960, 585), (960, 627), (960, 655), (964, 690), (969, 722), (969, 803), (969, 839), (969, 883), (969, 919), (958, 987)]",90.25635524465629,"[6, 9, 7, 8, 3, 1, 2, 4, 5]","(0, 0.25)",ENG003B,ENG,B,English,Tue Aug 07 11:20:51 2018,Mouse
1,0,2,0,10,9,9,1,669,589,80,145,0,500,200,8000,"[(960, 540), (960, 540), (960, 540), (960, 540), (960, 540), (960, 540), (960, 540), (960, 540), (960, 540), (960, 540), (960, 540), (960, 540), (960, 540), (960, 540), (960, 540), (960, 540), (960, 540), (960, 540), (960, 540), (960, 540), (960, 540), (960, 540), (960, 540), (960, 540), (960, 540), (960, 540), (960, 540), (960, 540), (960, 540), (960, 540), (960, 540), (960, 540), (960, 540), (960, 540), (960, 540), (960, 540), (960, 540), (960, 540), (960, 540), (960, 540), (960, 540), (960, 540), (960, 540), (960, 540), (960, 540), (960, 540), (960, 540), (960, 540), (960, 540), (960, 540), (960, 540), (960, 540), (960, 540), (960, 540), (960, 540), (960, 540), (960, 540), (960, 540), (966, 556), (971, 567), (979, 588), (995, 623), (1037, 717), (1065, 773), (1085, 827), (1110, 878), (1165, 971)]",64.56246152115631,"[6, 9, 7, 8, 3, 1, 2, 4, 5]","(0, 0.25)",ENG003B,ENG,B,English,Tue Aug 07 11:20:51 2018,Mouse
1,0,2,0,11,9,9,1,189,69,120,144,0,500,200,8000,"[(960, 540), (960, 540), (960, 540), (960, 540), (960, 540), (960, 540), (961, 542), (962, 544), (963, 546), (967, 553), (975, 571), (980, 582), (987, 599), (995, 620), (1022, 683), (1045, 726), (1070, 775), (1100, 822), (1163, 926)]",62.259815585682645,"[6, 9, 7, 8, 3, 1, 2, 4, 5]","(0, 0.25)",ENG003B,ENG,B,English,Tue Aug 07 11:20:51 2018,Mouse
1,0,2,0,12,1,1,1,509,429,80,143,0,500,200,8000,"[(960, 540), (960, 540), (960, 540), (960, 540), (960, 540), (960, 540), (960, 540), (960, 540), (960, 540), (960, 540), (960, 540), (960, 540), (960, 540), (960, 540), (960, 540), (960, 540), (960, 540), (960, 540), (960, 540), (960, 540), (960, 540), (960, 540), (960, 540), (960, 540), (960, 540), (960, 540), (960, 540), (960, 540), (960, 540), (960, 540), (960, 540), (960, 540), (960, 540), (960, 540), (960, 540), (960, 540), (960, 540), (960, 540), (960, 540), (960, 540), (960, 540), (960, 540), (960, 535), (957, 527), (950, 516), (936, 498), (884, 442), (841, 408), (796, 373), (744, 342), (632, 279)]",218.51037846748557,"[6, 9, 7, 8, 3, 1, 2, 4, 5]","(0, 0.25)",ENG003B,ENG,B,English,Tue Aug 07 11:20:51 2018,Mouse
1,0,2,0,13,5,5,1,1128,1028,100,142,0,500,200,8000,"[(960, 540), (960, 540), (960, 540), (960, 540), (960, 540), (960, 540), (960, 540), (960, 540), (960, 540), (960, 540), (960, 540), (960, 540), (960, 540), (960, 540), (960, 540), (960, 540), (960, 540), (960, 540), (960, 540), (960, 540), (960, 540), (960, 540), (960, 540), (960, 540), (960, 540), (960, 540), (960, 540), (960, 540), (960, 540), (960, 540), (960, 540), (960, 540), (960, 540), (960, 540), (960, 540), (960, 540), (960, 540), (960, 540), (960, 540), (960, 540), (960, 540), (960, 540), (960, 540), (960, 540), (960, 540), (960, 540), (960, 540), (960, 540), (960, 540), (960, 540), (960, 540), (960, 540), (960, 540), (960, 540), (960, 540), (960, 540), (960, 540), (960, 540), (960, 540), (960, 540), (960, 540), (960, 540), (960, 540), (960, 540), (960, 540), (960, 540), (960, 540), (960, 540), (960, 540), (960, 540), (960, 540), (960, 540), (960, 540), (960, 540), (960, 540), (960, 540), (960, 540), (960, 540), (960, 540), (960, 540), (960, 540), (960, 540), (960, 540), (960, 540), (960, 540), (960, 540), (960, 540), (960, 540), (960, 540), (960, 540), (960, 540), (960, 540), (960, 540), (960, 540), (960, 540), (960, 540), (960, 540), (960, 540), (960, 540), (960, 540), (960, 540), (960, 540), (960, 539), (960, 535), (963, 532), (972, 524), (999, 507), (1022, 492), (1054, 476), (1107, 456), (1236, 406), (1298, 381), (1365, 359)]",335.9194837225559,"[6, 9, 7, 8, 3, 1, 2, 4, 5]","(0, 0.25)",ENG003B,ENG,B,English,Tue Aug 07 11:20:51 2018,Mouse
1,0,2,0,14,7,7,1,730,640,90,141,0,500,200,8000,"[(960, 540), (960, 540), (960, 540), (960, 540), (960, 540), (960, 540), (960, 540), (960, 540), (960, 540), (960, 540), (960, 540), (960, 540), (960, 540), (960, 540), (960, 540), (960, 540), (960, 540), (960, 540), (960, 540), (960, 540), (960, 540), (960, 540), (960, 540), (960, 540), (960, 540), (960, 540), (960, 540), (960, 540), (960, 540), (960, 540), (960, 540), (960, 540), (960, 540), (960, 540), (960, 540), (960, 540), (960, 540), (960, 540), (960, 540), (960, 540), (960, 540), (960, 540), (960, 540), (960, 540), (960, 540), (960, 540), (960, 540), (960, 540), (960, 540), (960, 540), (960, 540), (960, 540), (960, 540), (960, 540), (960, 540), (960, 540), (960, 540), (960, 540), (960, 540), (960, 540), (960, 540), (960, 540), (960, 540), (960, 545), (960, 565), (960, 580), (960, 601), (958, 630), (937, 710), (924, 749), (912, 798), (892, 844), (853, 935)]",105.15688342938326,"[6, 9, 7, 8, 3, 1, 2, 4, 5]","(0, 0.25)",ENG003B,ENG,B,English,Tue Aug 07 11:20:51 2018,Mouse
1,0,2,0,15,1,1,1,530,440,90,140,0,500,200,8000,"[(960, 540), (960, 540), (960, 540), (960, 540), (960, 540), (960, 540), (960, 540), (960, 540), (960, 540), (960, 540), (960, 540), (960, 540), (960, 540), (960, 540), (960, 540), (960, 540), (960, 540), (960, 540), (960, 540), (960, 540), (960, 540), (960, 540), (960, 540), (960, 540), (960, 540), (960, 540), (960, 540), (960, 540), (960, 540), (960, 540), (960, 540), (960, 540), (960, 540), (960, 540), (960, 540), (960, 540), (960, 540), (960, 540), (960, 540), (960, 540), (960, 540), (960, 540), (960, 540), (960, 539), (960, 535), (957, 528), (942, 506), (927, 486), (895, 456), (844, 418), (738, 333), (684, 290), (632, 257)]",220.78778500637804,"[6, 9, 7, 8, 3, 1, 2, 4, 5]","(0, 0.25)",ENG003B,ENG,B,English,Tue Aug 07 11:20:51 2018,Mouse
1,0,2,0,16,2,2,1,980,900,80,139,0,500,200,8000,"[(960, 540), (960, 540), (960, 540), (960, 540), (960, 540), (960, 540), (960, 540), (960, 540), (960, 540), (960, 540), (960, 540), (960, 540), (960, 540), (960, 540), (960, 540), (960, 540), (960, 540), (960, 540), (960, 540), (960, 540), (960, 540), (960, 540), (960, 540), (960, 540), (960, 540), (960, 540), (960, 540), (960, 540), (960, 540), (960, 540), (960, 540), (960, 540), (960, 540), (960, 540), (960, 540), (960, 540), (960, 540), (960, 540), (960, 540), (960, 540), (960, 540), (960, 540), (960, 540), (960, 540), (960, 540), (960, 540), (960, 540), (960, 540), (960, 540), (960, 540), (960, 540), (960, 540), (960, 540), (960, 540), (960, 540), (960, 540), (960, 540), (960, 540), (960, 540), (960, 540), (960, 540), (960, 540), (960, 540), (960, 540), (960, 540), (960, 540), (960, 540), (960, 540), (960, 540), (960, 540), (960, 540), (960, 540), (960, 540), (960, 540), (960, 540), (960, 540), (960, 540), (960, 540), (960, 540), (960, 540), (960, 540), (960, 540), (960, 540), (960, 540), (960, 540), (960, 540), (960, 540), (960, 540), (960, 540), (960, 539), (959, 534), (956, 524), (950, 482), (947, 445), (939, 391), (930, 331), (913, 190), (905, 128)]",262.3962476045357,"[6, 9, 7, 8, 3, 1, 2, 4, 5]","(0, 0.25)",ENG003B,ENG,B,English,Tue Aug 07 11:20:51 2018,Mouse
1,0,2,0,17,6,6,1,899,759,140,138,0,500,200,8000,"[(960, 540), (960, 540), (960, 540), (960, 540), (960, 540), (960, 540), (960, 540), (960, 540), (960, 540), (960, 540), (960, 540), (960, 540), (960, 540), (960, 540), (960, 540), (960, 540), (960, 540), (960, 540), (960, 540), (960, 540), (960, 540), (960, 540), (960, 540), (960, 540), (960, 540), (960, 540), (960, 540), (960, 540), (960, 540), (960, 540), (960, 540), (960, 540), (960, 540), (960, 540), (960, 540), (960, 540), (960, 540), (960, 540), (960, 540), (960, 540), (960, 540), (960, 540), (960, 540), (960, 540), (960, 540), (960, 540), (960, 540), (960, 540), (960, 540), (960, 540), (960, 540), (960, 540), (960, 540), (960, 540), (960, 540), (960, 540), (960, 540), (960, 540), (960, 540), (960, 540), (960, 540), (960, 540), (960, 540), (960, 540), (960, 540), (960, 540), (960, 540), (960, 540), (960, 540), (960, 540), (960, 540), (960, 540), (960, 540), (960, 540), (960, 540), (960, 541), (960, 543), (961, 546), (964, 548), (968, 551), (971, 553), (987, 563), (997, 567), (1013, 573), (1039, 583), (1114, 603), (1166, 615), (1215, 623), (1283, 634), (1421, 655)]",14.006996007724087,"[6, 9, 7, 8, 3, 1, 2, 4, 5]","(0, 0.25)",ENG003B,ENG,B,English,Tue Aug 07 11:20:51 2018,Mouse
1,0,2,0,18,7,7,1,548,458,90,137,0,500,200,8000,"[(960, 540), (960, 540), (960, 540), (960, 540), (960, 540), (960, 540), (960, 540), (960, 540), (960, 540), (960, 540), (960, 540), (960, 540), (960, 540), (960, 540), (960, 540), (960, 540), (960, 540), (960, 540), (960, 540), (960, 540), (960, 540), (960, 540), (960, 540), (960, 540), (960, 540), (960, 540), (960, 540), (960, 540), (960, 540), (960, 540), (960, 540), (960, 540), (960, 540), (960, 540), (960, 540), (960, 540), (960, 540), (960, 540), (960, 540), (960, 540), (960, 540), (960, 540), (960, 540), (960, 540), (960, 540), (961, 544), (961, 569), (961, 587), (961, 626), (961, 665), (949, 757), (942, 798), (938, 843), (930, 881), (921, 964)]",95.25534296038857,"[6, 9, 7, 8, 3, 1, 2, 4, 5]","(0, 0.25)",ENG003B,ENG,B,English,Tue Aug 07 11:20:51 2018,Mouse
1,0,2,0,19,6,6,1,429,369,60,136,0,500,200,8000,"[(960, 540), (960, 540), (960, 540), (960, 540), (960, 540), (960, 540), (960, 540), (960, 540), (960, 540), (960, 540), (960, 540), (960, 540), (960, 540), (960, 540), (960, 540), (960, 540), (960, 540), (960, 540), (960, 540), (960, 540), (960, 540), (960, 540), (960, 540), (960, 540), (960, 540), (960, 540), (960, 540), (960, 540), (960, 540), (960, 540), (960, 540), (960, 540), (960, 540), (960, 540), (960, 540), (960, 540), (967, 545), (990, 553), (1083, 587), (1151, 604), (1221, 626), (1306, 643), (1467, 677)]",15.121160878807565,"[6, 9, 7, 8, 3, 1, 2, 4, 5]","(0, 0.25)",ENG003B,ENG,B,English,Tue Aug 07 11:20:51 2018,Mouse
1,0,2,0,20,2,2,1,659,589,70,135,0,500,200,8000,"[(960, 540), (960, 540), (960, 540), (960, 540), (960, 540), (960, 540), (960, 540), (960, 540), (960, 540), (960, 540), (960, 540), (960, 540), (960, 540), (960, 540), (960, 540), (960, 540), (960, 540), (960, 540), (960, 540), (960, 540), (960, 540), (960, 540), (960, 540), (960, 540), (960, 540), (960, 540), (960, 540), (960, 540), (960, 540), (960, 540), (960, 540), (960, 540), (960, 540), (960, 540), (960, 540), (960, 540), (960, 540), (960, 540), (960, 540), (960, 540), (960, 540), (960, 540), (960, 540), (960, 540), (960, 540), (960, 540), (960, 540), (960, 540), (960, 540), (960, 540), (960, 540), (960, 540), (960, 540), (960, 540), (960, 540), (960, 540), (960, 540), (960, 540), (960, 527), (958, 516), (955, 495), (948, 462), (920, 357), (907, 284), (896, 213), (887, 143)]",259.58089221237174,"[6, 9, 7, 8, 3, 1, 2, 4, 5]","(0, 0.25)",ENG003B,ENG,B,English,Tue Aug 07 11:20:51 2018,Mouse
1,0,2,0,21,4,4,1,1160,1090,70,134,0,500,200,8000,"[(960, 540), (960, 540), (960, 540), (960, 540), (960, 540), (960, 540), (960, 540), (960, 540), (960, 540), (960, 540), (960, 540), (960, 540), (960, 540), (960, 540), (960, 540), (960, 540), (960, 540), (960, 540), (960, 540), (960, 540), (960, 540), (960, 540), (960, 540), (960, 540), (960, 540), (960, 540), (960, 540), (960, 540), (960, 540), (960, 540), (960, 540), (960, 540), (960, 540), (960, 540), (960, 540), (960, 540), (960, 540), (960, 540), (960, 540), (960, 540), (960, 540), (960, 540), (960, 540), (960, 540), (960, 540), (960, 540), (960, 540), (960, 540), (960, 540), (960, 540), (960, 540), (960, 540), (960, 540), (960, 540), (960, 540), (960, 540), (960, 540), (960, 540), (960, 540), (960, 540), (960, 540), (960, 540), (960, 540), (960, 540), (960, 540), (960, 540), (960, 540), (960, 540), (960, 540), (960, 540), (960, 540), (960, 540), (960, 540), (960, 540), (960, 540), (960, 540), (960, 540), (960, 540), (960, 540), (960, 540), (960, 540), (960, 540), (960, 540), (960, 540), (960, 540), (960, 540), (960, 540), (960, 540), (960, 540), (960, 540), (960, 540), (960, 540), (960, 540), (960, 540), (960, 540), (960, 540), (960, 540), (960, 540), (960, 540), (960, 540), (960, 540), (960, 540), (960, 540), (960, 540), (960, 540), (960, 540), (960, 540), (960, 540), (959, 539), (959, 532), (959, 521), (973, 459), (985, 404), (1003, 338), (1020, 266), (1076, 94)]",284.57902935154834,"[6, 9, 7, 8, 3, 1, 2, 4, 5]","(0, 0.25)",ENG003B,ENG,B,English,Tue Aug 07 11:20:51 2018,Mouse
1,0,2,0,22,7,7,1,500,360,140,133,0,500,200,8000,"[(960, 540), (960, 540), (960, 540), (960, 540), (960, 540), (960, 540), (960, 540), (960, 540), (960, 540), (960, 540), (960, 540), (960, 540), (960, 540), (960, 540), (960, 540), (960, 540), (960, 540), (960, 540), (960, 540), (960, 540), (960, 540), (960, 540), (960, 540), (960, 540), (960, 540), (960, 540), (960, 540), (960, 540), (960, 540), (960, 540), (960, 540), (960, 540), (960, 540), (960, 540), (960, 540), (960, 541), (960, 542), (960, 545), (964, 566), (964, 579), (964, 595), (964, 612), (964, 654), (962, 675), (955, 708), (947, 738), (932, 825), (924, 879), (922, 930), (918, 980)]",95.45262198781253,"[6, 9, 7, 8, 3, 1, 2, 4, 5]","(0, 0.25)",ENG003B,ENG,B,English,Tue Aug 07 11:20:51 2018,Mouse
1,0,2,0,23,6,6,1,440,380,60,132,0,500,200,8000,"[(960, 540), (960, 540), (960, 540), (960, 540), (960, 540), (960, 540), (960, 540), (960, 540), (960, 540), (960, 540), (960, 540), (960, 540), (960, 540), (960, 540), (960, 540), (960, 540), (960, 540), (960, 540), (960, 540), (960, 540), (960, 540), (960, 540), (960, 540), (960, 540), (960, 540), (960, 540), (960, 540), (960, 540), (960, 540), (960, 540), (960, 540), (960, 540), (960, 540), (960, 540), (960, 540), (960, 540), (960, 540), (964, 540), (978, 545), (1040, 561), (1106, 578), (1171, 589), (1242, 604), (1400, 626)]",11.059296367066404,"[6, 9, 7, 8, 3, 1, 2, 4, 5]","(0, 0.25)",ENG003B,ENG,B,English,Tue Aug 07 11:20:51 2018,Mouse
1,0,2,0,24,5,5,1,428,349,79,131,0,500,200,8000,"[(960, 540), (960, 540), (960, 540), (960, 540), (960, 540), (960, 540), (960, 540), (960, 540), (960, 540), (960, 540), (960, 540), (960, 540), (960, 540), (960, 540), (960, 540), (960, 540), (960, 540), (960, 540), (960, 540), (960, 540), (960, 540), (960, 540), (960, 540), (960, 540), (960, 540), (960, 540), (960, 540), (960, 540), (960, 540), (960, 540), (960, 540), (960, 540), (960, 540), (960, 540), (965, 537), (974, 528), (986, 517), (1001, 503), (1057, 455), (1090, 429), (1151, 395), (1205, 367), (1323, 321)]",328.8971763150154,"[6, 9, 7, 8, 3, 1, 2, 4, 5]","(0, 0.25)",ENG003B,ENG,B,English,Tue Aug 07 11:20:51 2018,Mouse
1,0,2,0,25,8,3,0,-650,600,50,130,0,500,200,8000,"[(960, 540), (960, 540), (960, 540), (960, 540), (960, 540), (960, 540), (960, 540), (960, 540), (960, 540), (960, 540), (960, 540), (960, 540), (960, 540), (960, 540), (960, 540), (960, 540), (960, 540), (960, 540), (960, 540), (960, 540), (960, 540), (960, 540), (960, 540), (960, 540), (960, 540), (960, 540), (960, 540), (960, 540), (960, 540), (960, 540), (960, 540), (960, 540), (960, 540), (960, 540), (960, 540), (960, 540), (960, 540), (960, 540), (960, 540), (960, 540), (960, 540), (960, 540), (960, 540), (960, 540), (960, 540), (960, 540), (960, 540), (960, 540), (960, 540), (960, 540), (960, 540), (960, 540), (960, 540), (960, 540), (960, 540), (960, 540), (960, 540), (960, 540), (960, 540), (956, 540), (928, 542), (870, 542), (710, 542), (613, 542), (517, 542)]",179.74133006661324,"[6, 9, 7, 8, 3, 1, 2, 4, 5]","(0, 0.25)",ENG003B,ENG,B,English,Tue Aug 07 11:20:51 2018,Mouse
1,0,2,0,26,6,6,1,449,379,70,131,0,500,200,8000,"[(960, 540), (960, 540), (960, 540), (960, 540), (960, 540), (960, 540), (960, 540), (960, 540), (960, 540), (960, 540), (960, 540), (960, 540), (960, 540), (960, 540), (960, 540), (960, 540), (960, 540), (960, 540), (960, 540), (960, 540), (960, 540), (960, 540), (960, 540), (960, 540), (960, 540), (960, 540), (960, 540), (960, 540), (960, 540), (960, 540), (960, 540), (960, 540), (960, 540), (960, 540), (960, 540), (960, 540), (960, 540), (962, 540), (970, 546), (995, 556), (1091, 592), (1153, 602), (1216, 615), (1287, 626), (1431, 649)]",13.030149053726063,"[6, 9, 7, 8, 3, 1, 2, 4, 5]","(0, 0.25)",ENG003B,ENG,B,English,Tue Aug 07 11:20:51 2018,Mouse
1,0,2,0,27,6,6,1,600,540,60,131,0,500,200,8000,"[(960, 540), (960, 540), (960, 540), (960, 540), (960, 540), (960, 540), (960, 540), (960, 540), (960, 540), (960, 540), (960, 540), (960, 540), (960, 540), (960, 540), (960, 540), (960, 540), (960, 540), (960, 540), (960, 540), (960, 540), (960, 540), (960, 540), (960, 540), (960, 540), (960, 540), (960, 540), (960, 540), (960, 540), (960, 540), (960, 540), (960, 540), (960, 540), (960, 540), (960, 540), (960, 540), (960, 540), (960, 540), (960, 540), (960, 540), (960, 540), (960, 540), (960, 540), (960, 540), (960, 540), (960, 540), (960, 540), (960, 540), (960, 540), (960, 540), (960, 540), (960, 540), (960, 540), (960, 540), (966, 542), (1018, 562), (1054, 571), (1103, 583), (1166, 596), (1325, 633), (1411, 658)]",14.662239042008425,"[6, 9, 7, 8, 3, 1, 2, 4, 5]","(0, 0.25)",ENG003B,ENG,B,English,Tue Aug 07 11:20:51 2018,Mouse
1,0,2,0,28,1,4,0,-939,359,580,130,0,500,200,8000,"[(960, 540), (960, 540), (960, 540), (960, 540), (960, 540), (960, 540), (960, 540), (960, 540), (960, 540), (960, 540), (960, 540), (960, 540), (960, 540), (960, 540), (960, 540), (960, 540), (960, 540), (960, 540), (960, 540), (960, 540), (960, 540), (960, 540), (960, 540), (960, 540), (960, 540), (960, 540), (960, 540), (960, 540), (960, 540), (960, 540), (960, 540), (960, 540), (960, 540), (960, 540), (960, 540), (961, 540), (961, 540), (961, 540), (961, 540), (961, 540), (961, 540), (961, 540), (961, 540), (961, 540), (961, 540), (961, 540), (961, 540), (962, 540), (962, 540), (962, 540), (962, 540), (962, 539), (962, 539), (962, 539), (962, 539), (964, 537), (964, 537), (964, 537), (964, 536), (964, 536), (964, 535), (964, 535), (964, 534), (965, 532), (965, 532), (965, 532), (965, 532), (965, 532), (965, 532), (965, 532), (965, 532), (965, 532), (965, 532), (965, 532), (965, 532), (965, 532), (965, 532), (965, 532), (965, 532), (965, 532), (965, 532), (965, 532), (965, 532), (965, 530), (965, 528), (966, 522), (969, 515), (973, 503), (983, 481), (1025, 389), (1057, 329), (1102, 263), (1150, 199), (1252, 70)]",301.85171673492204,"[6, 9, 7, 8, 3, 1, 2, 4, 5]","(0, 0.25)",ENG003B,ENG,B,English,Tue Aug 07 11:20:51 2018,Mouse
1,0,2,0,29,3,5,0,-1379,569,810,131,0,500,200,8000,"[(960, 540), (960, 540), (960, 540), (960, 540), (960, 540), (960, 540), (960, 540), (960, 540), (960, 540), (960, 540), (960, 540), (960, 540), (960, 540), (960, 540), (960, 540), (960, 540), (960, 540), (960, 540), (960, 540), (960, 540), (960, 540), (960, 540), (960, 540), (960, 540), (960, 540), (960, 540), (960, 540), (960, 540), (960, 540), (960, 540), (960, 540), (960, 540), (960, 540), (960, 540), (960, 540), (960, 540), (960, 540), (960, 540), (960, 540), (960, 540), (960, 540), (960, 540), (960, 540), (960, 540), (960, 540), (960, 540), (960, 540), (960, 540), (960, 540), (960, 540), (960, 540), (960, 540), (960, 540), (960, 540), (960, 540), (960, 540), (957, 540), (954, 540), (945, 539), (939, 539), (935, 539), (932, 539), (928, 539), (927, 539), (927, 539), (927, 539), (927, 539), (927, 539), (927, 539), (927, 539), (927, 539), (927, 539), (927, 539), (927, 539), (927, 539), (927, 539), (927, 539), (927, 539), (927, 539), (927, 539), (927, 539), (927, 539), (927, 539), (927, 539), (927, 539), (927, 539), (927, 539), (927, 539), (927, 539), (927, 539), (927, 539), (927, 539), (927, 539), (927, 539), (927, 539), (927, 539), (927, 539), (927, 539), (927, 539), (927, 539), (927, 539), (927, 539), (927, 539), (927, 539), (927, 539), (927, 539), (927, 539), (927, 539), (927, 539), (927, 539), (927, 539), (927, 539), (927, 539), (927, 539), (927, 539), (927, 539), (927, 539), (927, 539), (927, 539), (927, 539), (927, 539), (927, 539), (927, 539), (927, 539), (927, 539), (927, 539), (927, 539), (927, 539), (927, 539), (927, 539), (927, 539), (927, 538), (936, 536), (962, 527), (1072, 481), (1165, 442), (1284, 399), (1406, 354)]",337.3618937983533,"[6, 9, 7, 8, 3, 1, 2, 4, 5]","(0, 0.25)",ENG003B,ENG,B,English,Tue Aug 07 11:20:51 2018,Mouse
1,0,2,0,30,3,6,0,-348,278,70,132,0,500,200,8000,"[(960, 540), (960, 540), (960, 540), (960, 540), (960, 540), (960, 540), (960, 540), (960, 540), (960, 540), (960, 540), (960, 540), (960, 540), (960, 540), (960, 540), (960, 540), (960, 540), (960, 540), (960, 540), (960, 540), (960, 540), (960, 540), (960, 540), (960, 540), (960, 540), (960, 540), (960, 540), (960, 540), (969, 546), (979, 549), (994, 555), (1029, 571), (1139, 602), (1209, 624), (1279, 634), (1356, 645)]",14.850338298984228,"[6, 9, 7, 8, 3, 1, 2, 4, 5]","(0, 0.25)",ENG003B,ENG,B,English,Tue Aug 07 11:20:51 2018,Mouse
1,0,2,0,31,3,6,0,-439,359,80,133,0,500,200,8000,"[(960, 540), (960, 540), (960, 540), (960, 540), (960, 540), (960, 540), (960, 540), (960, 540), (960, 540), (960, 540), (960, 540), (960, 540), (960, 540), (960, 540), (960, 540), (960, 540), (960, 540), (960, 540), (960, 540), (960, 540), (960, 540), (960, 540), (960, 540), (960, 540), (960, 540), (960, 540), (960, 540), (960, 540), (960, 540), (960, 540), (960, 540), (960, 540), (960, 540), (960, 540), (960, 540), (965, 541), (972, 548), (981, 555), (1000, 564), (1078, 600), (1131, 621), (1194, 649), (1263, 670), (1395, 707)]",21.002197760547748,"[6, 9, 7, 8, 3, 1, 2, 4, 5]","(0, 0.25)",ENG003B,ENG,B,English,Tue Aug 07 11:20:51 2018,Mouse
1,0,2,0,32,5,5,1,1390,619,771,134,0,500,200,8000,"[(960, 540), (960, 540), (960, 540), (960, 540), (960, 540), (960, 540), (960, 540), (960, 540), (960, 540), (960, 540), (960, 540), (960, 540), (960, 540), (960, 540), (960, 540), (960, 540), (960, 540), (960, 540), (960, 540), (960, 540), (960, 540), (960, 540), (960, 540), (960, 540), (960, 540), (960, 540), (960, 540), (960, 540), (960, 540), (960, 540), (960, 540), (960, 540), (960, 540), (960, 540), (960, 540), (960, 540), (960, 540), (960, 540), (960, 540), (960, 540), (960, 540), (960, 540), (960, 540), (960, 540), (960, 540), (960, 540), (960, 540), (960, 540), (960, 540), (960, 540), (960, 540), (960, 540), (960, 540), (960, 540), (960, 540), (960, 540), (960, 540), (960, 540), (960, 540), (960, 540), (960, 540), (962, 539), (962, 539), (962, 539), (962, 539), (962, 539), (962, 539), (962, 539), (962, 539), (962, 539), (962, 539), (962, 539), (962, 539), (962, 539), (962, 539), (962, 539), (962, 539), (962, 539), (962, 539), (962, 539), (962, 539), (962, 539), (962, 539), (962, 539), (962, 539), (962, 539), (962, 539), (962, 539), (962, 539), (962, 539), (962, 539), (962, 539), (962, 539), (962, 539), (962, 539), (962, 539), (962, 539), (962, 539), (962, 539), (962, 539), (962, 539), (962, 539), (962, 539), (962, 539), (962, 539), (962, 539), (962, 539), (962, 539), (962, 539), (962, 539), (962, 539), (962, 539), (962, 539), (962, 539), (962, 539), (962, 539), (962, 539), (962, 539), (962, 539), (962, 539), (962, 539), (962, 539), (962, 539), (962, 539), (962, 539), (962, 539), (962, 539), (962, 539), (962, 539), (962, 539), (971, 532), (980, 525), (992, 517), (1010, 502), (1082, 452), (1134, 426), (1179, 391), (1236, 359), (1334, 306)]",327.96708398312126,"[6, 9, 7, 8, 3, 1, 2, 4, 5]","(0, 0.25)",ENG003B,ENG,B,English,Tue Aug 07 11:20:51 2018,Mouse
1,0,2,0,33,4,4,1,1010,930,80,134,0,500,200,8000,"[(960, 540), (960, 540), (960, 540), (960, 540), (960, 540), (960, 540), (960, 540), (960, 540), (960, 540), (960, 540), (960, 540), (960, 540), (960, 540), (960, 540), (960, 540), (960, 540), (960, 540), (960, 540), (960, 540), (960, 540), (960, 540), (960, 540), (960, 540), (960, 540), (960, 540), (960, 540), (960, 540), (960, 540), (960, 540), (960, 540), (960, 540), (960, 540), (960, 540), (960, 540), (960, 540), (960, 540), (960, 540), (960, 540), (960, 540), (960, 540), (960, 540), (960, 540), (960, 540), (960, 540), (960, 540), (960, 540), (960, 540), (960, 540), (960, 540), (960, 540), (960, 540), (960, 540), (960, 540), (960, 540), (960, 540), (960, 540), (960, 540), (960, 540), (960, 540), (960, 540), (960, 540), (960, 540), (960, 540), (960, 540), (960, 540), (960, 540), (960, 540), (960, 540), (960, 540), (960, 540), (960, 540), (960, 540), (960, 540), (960, 540), (960, 540), (960, 540), (960, 540), (960, 540), (960, 540), (960, 540), (960, 540), (960, 540), (960, 540), (960, 540), (960, 540), (960, 540), (960, 540), (960, 540), (960, 540), (960, 540), (960, 540), (960, 540), (960, 539), (963, 529), (985, 480), (998, 451), (1022, 410), (1049, 358), (1117, 261), (1149, 219), (1178, 182)]",301.3388462930945,"[6, 9, 7, 8, 3, 1, 2, 4, 5]","(0, 0.25)",ENG003B,ENG,B,English,Tue Aug 07 11:20:51 2018,Mouse
1,0,2,0,34,9,6,0,-549,379,170,133,0,500,200,8000,"[(960, 540), (960, 540), (960, 540), (960, 540), (960, 540), (960, 540), (960, 540), (960, 540), (960, 540), (960, 540), (960, 540), (960, 540), (960, 540), (960, 540), (960, 540), (960, 540), (960, 540), (960, 540), (960, 540), (960, 540), (960, 540), (960, 540), (960, 540), (960, 540), (960, 540), (960, 540), (960, 540), (960, 540), (960, 540), (960, 540), (960, 540), (960, 540), (960, 540), (960, 540), (960, 540), (960, 540), (960, 540), (961, 540), (961, 540), (961, 540), (961, 540), (961, 540), (961, 540), (961, 540), (961, 540), (962, 540), (964, 540), (965, 542), (983, 549), (1004, 558), (1040, 569), (1095, 581), (1231, 603), (1293, 611), (1359, 622)]",11.61337382315365,"[6, 9, 7, 8, 3, 1, 2, 4, 5]","(0, 0.25)",ENG003B,ENG,B,English,Tue Aug 07 11:20:51 2018,Mouse
1,0,2,0,35,7,7,1,510,200,310,134,0,500,200,8000,"[(960, 540), (960, 540), (960, 540), (960, 540), (960, 540), (960, 540), (960, 540), (960, 540), (960, 540), (960, 540), (960, 540), (960, 540), (960, 540), (960, 540), (960, 540), (960, 540), (960, 540), (960, 540), (960, 540), (960, 542), (960, 542), (960, 542), (959, 543), (959, 543), (959, 543), (959, 543), (959, 543), (959, 543), (959, 544), (959, 544), (959, 544), (959, 544), (959, 545), (959, 545), (959, 545), (959, 545), (959, 545), (959, 546), (959, 547), (959, 550), (959, 559), (959, 569), (959, 584), (959, 600), (944, 646), (936, 676), (925, 713), (917, 756), (902, 854), (893, 916), (885, 973)]",99.82671245099456,"[6, 9, 7, 8, 3, 1, 2, 4, 5]","(0, 0.25)",ENG003B,ENG,B,English,Tue Aug 07 11:20:51 2018,Mouse
1,0,2,0,36,1,8,0,-3008,48,2960,134,0,500,200,8000,"[(960, 540), (960, 540), (960, 540), (960, 540), (962, 539), (964, 538), (964, 538), (965, 537), (967, 536), (968, 535), (968, 535), (968, 535), (968, 535), (968, 535), (968, 535), (968, 535), (968, 535), (968, 535), (968, 535), (968, 535), (968, 535), (968, 535), (968, 535), (968, 535), (968, 535), (968, 535), (968, 535), (968, 535), (968, 535), (968, 535), (968, 535), (968, 535), (968, 535), (968, 535), (968, 535), (968, 535), (968, 535), (968, 535), (968, 535), (968, 535), (968, 535), (968, 535), (968, 535), (968, 535), (968, 535), (968, 535), (968, 535), (968, 535), (968, 535), (968, 535), (968, 535), (968, 535), (968, 535), (968, 535), (968, 535), (968, 535), (968, 535), (968, 535), (968, 535), (968, 535), (968, 535), (968, 535), (968, 535), (968, 535), (968, 535), (968, 535), (968, 535), (968, 535), (968, 535), (968, 535), (968, 535), (968, 535), (968, 535), (968, 535), (968, 535), (968, 535), (968, 535), (968, 535), (968, 535), (968, 535), (968, 535), (968, 535), (968, 535), (968, 535), (968, 535), (968, 535), (968, 535), (968, 535), (968, 535), (968, 535), (968, 535), (968, 535), (968, 535), (968, 535), (968, 535), (968, 535), (968, 535), (968, 535), (968, 535), (968, 535), (968, 535), (968, 535), (968, 535), (968, 535), (968, 535), (968, 535), (968, 535), (968, 535), (968, 535), (968, 535), (968, 535), (968, 535), (968, 535), (968, 535), (968, 535), (968, 535), (968, 535), (968, 535), (968, 535), (968, 535), (968, 535), (968, 535), (968, 535), (968, 535), (968, 535), (968, 535), (968, 535), (968, 535), (968, 535), (968, 535), (968, 535), (968, 535), (968, 535), (968, 535), (968, 535), (968, 535), (968, 535), (968, 535), (968, 535), (968, 535), (968, 535), (968, 535), (968, 535), (968, 535), (968, 535), (968, 535), (968, 535), (968, 535), (968, 535), (968, 535), (968, 535), (968, 535), (968, 535), (968, 535), (968, 535), (968, 535), (968, 535), (968, 535), (968, 535), (968, 535), (968, 535), (968, 535), (968, 535), (968, 535), (968, 535), (968, 535), (968, 535), (968, 535), (968, 535), (968, 535), (968, 535), (968, 535), (968, 535), (968, 535), (968, 535), (968, 535), (968, 535), (968, 535), (968, 535), (968, 535), (968, 535), (968, 535), (968, 535), (968, 535), (968, 535), (968, 535), (968, 535), (968, 535), (968, 535), (968, 535), (968, 535), (968, 535), (968, 535), (968, 535), (968, 535), (968, 535), (968, 535), (968, 535), (968, 535), (968, 535), (968, 535), (968, 535), (968, 535), (968, 535), (968, 535), (968, 535), (968, 535), (968, 535), (968, 535), (968, 535), (968, 535), (968, 535), (968, 535), (968, 535), (968, 535), (968, 535), (968, 535), (968, 535), (968, 535), (968, 535), (968, 535), (968, 535), (968, 535), (968, 535), (968, 535), (968, 535), (968, 535), (968, 535), (968, 535), (968, 535), (968, 535), (968, 535), (968, 535), (968, 535), (968, 535), (968, 535), (968, 535), (968, 535), (968, 535), (968, 535), (968, 535), (968, 535), (968, 535), (968, 535), (968, 535), (968, 535), (968, 535), (968, 535), (968, 535), (968, 535), (968, 535), (968, 535), (968, 535), (968, 535), (968, 535), (968, 535), (968, 535), (968, 535), (968, 535), (968, 535), (968, 535), (968, 535), (968, 535), (968, 535), (968, 535), (968, 535), (968, 535), (968, 535), (968, 535), (968, 535), (968, 535), (968, 535), (968, 535), (968, 535), (968, 535), (968, 535), (968, 535), (968, 535), (968, 535), (968, 535), (968, 535), (968, 535), (968, 535), (968, 535), (968, 535), (968, 535), (968, 535), (968, 535), (968, 535), (968, 535), (968, 535), (967, 535), (954, 547), (942, 558), (921, 575), (898, 593), (827, 638), (773, 663), (722, 684), (665, 709), (542, 758)]",152.4565581336669,"[6, 9, 7, 8, 3, 1, 2, 4, 5]","(0, 0.25)",ENG003B,ENG,B,English,Tue Aug 07 11:20:51 2018,Mouse
1,0,2,0,37,8,3,0,-1400,109,1291,135,0,500,200,8000,"[(960, 540), (960, 540), (960, 540), (960, 540), (960, 540), (960, 540), (960, 540), (960, 540), (960, 540), (960, 540), (963, 541), (966, 542), (966, 542), (967, 542), (969, 543), (969, 544), (970, 544), (970, 545), (971, 545), (972, 545), (972, 546), (972, 546), (973, 546), (973, 546), (973, 547), (973, 548), (974, 549), (974, 550), (974, 550), (974, 550), (975, 553), (975, 553), (976, 554), (976, 555), (977, 559), (978, 559), (978, 560), (979, 561), (983, 567), (986, 571), (989, 576), (992, 582), (998, 592), (1000, 597), (1002, 599), (1003, 600), (1006, 605), (1006, 606), (1007, 607), (1008, 608), (1008, 608), (1008, 608), (1008, 608), (1008, 608), (1008, 608), (1008, 608), (1008, 608), (1008, 608), (1008, 608), (1008, 608), (1008, 608), (1008, 608), (1008, 608), (1008, 608), (1008, 608), (1008, 608), (1008, 608), (1008, 608), (1008, 608), (1008, 608), (1008, 608), (1008, 608), (1008, 608), (1008, 608), (1008, 608), (1008, 608), (1008, 608), (1008, 608), (1008, 608), (1008, 608), (1008, 608), (1008, 608), (1008, 608), (1008, 608), (1008, 608), (1008, 608), (1008, 608), (1008, 608), (1008, 608), (1008, 608), (1008, 608), (1008, 608), (1008, 608), (1008, 608), (1008, 608), (1008, 608), (1008, 608), (1008, 608), (1008, 608), (1008, 608), (1008, 608), (1008, 608), (1008, 608), (1008, 608), (1008, 608), (1008, 608), (1008, 608), (1008, 608), (1008, 608), (1008, 608), (1008, 608), (1008, 608), (1008, 608), (1008, 608), (1008, 608), (1008, 608), (1008, 608), (1008, 608), (1008, 608), (1008, 608), (1008, 608), (1008, 608), (1008, 608), (1008, 608), (1008, 608), (1008, 608), (1008, 608), (1008, 608), (1007, 607), (1005, 607), (990, 605), (980, 605), (963, 604), (920, 598), (807, 590), (749, 588), (693, 588), (646, 588), (574, 588), (559, 588)]",173.17412965881684,"[6, 9, 7, 8, 3, 1, 2, 4, 5]","(0, 0.25)",ENG003B,ENG,B,English,Tue Aug 07 11:20:51 2018,Mouse
1,0,2,0,38,5,5,1,1590,420,1170,136,0,500,200,8000,"[(960, 540), (960, 540), (960, 540), (960, 540), (960, 540), (960, 540), (960, 540), (960, 540), (960, 540), (960, 540), (960, 540), (960, 540), (960, 540), (960, 540), (960, 540), (960, 540), (960, 540), (960, 540), (960, 540), (960, 540), (960, 540), (960, 540), (960, 540), (960, 540), (960, 540), (960, 540), (960, 540), (960, 540), (960, 540), (960, 540), (960, 540), (960, 540), (960, 540), (960, 540), (960, 540), (960, 540), (960, 540), (960, 540), (960, 540), (960, 540), (960, 540), (960, 541), (960, 541), (960, 542), (960, 542), (960, 542), (960, 542), (960, 542), (960, 542), (960, 542), (960, 542), (960, 542), (960, 542), (960, 542), (960, 542), (960, 542), (960, 542), (960, 542), (960, 542), (960, 542), (960, 542), (960, 542), (960, 542), (960, 542), (960, 542), (960, 542), (960, 542), (960, 542), (960, 542), (960, 542), (960, 542), (960, 542), (960, 542), (960, 542), (960, 542), (960, 542), (960, 542), (960, 542), (960, 542), (960, 542), (960, 542), (960, 542), (960, 542), (960, 542), (960, 542), (960, 542), (960, 542), (960, 542), (960, 542), (960, 542), (960, 542), (960, 542), (960, 542), (960, 542), (960, 542), (960, 542), (960, 542), (960, 542), (960, 542), (960, 542), (960, 542), (960, 542), (960, 542), (960, 542), (960, 542), (960, 542), (960, 542), (960, 542), (960, 542), (960, 542), (960, 542), (960, 542), (960, 542), (960, 542), (960, 542), (960, 542), (960, 542), (960, 542), (960, 542), (960, 542), (960, 542), (960, 542), (960, 542), (960, 542), (960, 542), (960, 542), (960, 542), (960, 542), (960, 542), (960, 542), (960, 542), (960, 542), (960, 542), (960, 542), (960, 542), (960, 542), (960, 542), (960, 542), (960, 542), (960, 542), (960, 542), (960, 542), (960, 542), (960, 542), (960, 542), (960, 542), (960, 542), (960, 542), (960, 542), (960, 542), (960, 542), (962, 543), (969, 543), (1001, 529), (1038, 514), (1089, 490), (1156, 462), (1321, 394), (1400, 360)]",337.7509763427876,"[6, 9, 7, 8, 3, 1, 2, 4, 5]","(0, 0.25)",ENG003B,ENG,B,English,Tue Aug 07 11:20:51 2018,Mouse
1,0,2,0,39,6,6,1,469,359,110,136,0,500,200,8000,"[(960, 540), (960, 540), (960, 540), (960, 540), (960, 540), (960, 540), (960, 540), (960, 540), (960, 540), (960, 540), (960, 540), (960, 540), (960, 540), (960, 540), (960, 540), (960, 540), (960, 540), (960, 540), (960, 540), (960, 540), (960, 540), (960, 540), (960, 540), (960, 540), (960, 540), (960, 540), (960, 540), (960, 540), (960, 540), (960, 540), (960, 540), (960, 540), (960, 540), (960, 540), (960, 540), (961, 541), (961, 541), (965, 545), (969, 548), (979, 554), (992, 560), (1038, 582), (1088, 596), (1140, 610), (1198, 627), (1321, 652), (1378, 660)]",16.017784718392438,"[6, 9, 7, 8, 3, 1, 2, 4, 5]","(0, 0.25)",ENG003B,ENG,B,English,Tue Aug 07 11:20:51 2018,Mouse
1,0,2,0,40,4,4,1,1539,1459,80,135,0,500,200,8000,"[(960, 540), (960, 540), (960, 540), (960, 540), (960, 540), (960, 540), (960, 540), (960, 540), (960, 540), (960, 540), (960, 540), (960, 540), (960, 540), (960, 540), (960, 540), (960, 540), (960, 540), (960, 540), (960, 540), (960, 540), (960, 540), (960, 540), (960, 540), (960, 540), (960, 540), (960, 540), (960, 540), (960, 540), (960, 540), (960, 540), (960, 540), (960, 540), (960, 540), (960, 540), (960, 540), (960, 540), (960, 540), (960, 540), (960, 540), (960, 540), (960, 540), (960, 540), (960, 540), (960, 540), (960, 540), (960, 540), (960, 540), (960, 540), (960, 540), (960, 540), (960, 540), (960, 540), (960, 540), (960, 540), (960, 540), (960, 540), (960, 540), (960, 540), (960, 540), (960, 540), (960, 540), (960, 540), (960, 540), (960, 540), (960, 540), (960, 540), (960, 540), (960, 540), (960, 540), (960, 540), (960, 540), (960, 540), (960, 540), (960, 540), (960, 540), (960, 540), (960, 540), (960, 540), (960, 540), (960, 540), (960, 540), (960, 540), (960, 540), (960, 540), (960, 540), (960, 540), (960, 540), (960, 540), (960, 540), (960, 540), (960, 540), (960, 540), (960, 540), (960, 540), (960, 540), (960, 540), (960, 540), (960, 540), (960, 540), (960, 540), (960, 540), (960, 540), (960, 540), (960, 540), (960, 540), (960, 540), (960, 540), (960, 540), (960, 540), (960, 540), (960, 540), (960, 540), (960, 540), (960, 540), (960, 540), (960, 540), (960, 540), (960, 540), (960, 540), (960, 540), (960, 540), (960, 540), (960, 540), (960, 540), (960, 540), (960, 540), (960, 540), (960, 540), (960, 540), (960, 540), (960, 540), (960, 540), (960, 540), (960, 540), (960, 540), (960, 540), (960, 540), (960, 540), (960, 540), (960, 540), (960, 540), (960, 540), (960, 540), (960, 540), (960, 540), (964, 530), (969, 518), (976, 499), (984, 479), (1009, 400), (1022, 351), (1041, 290), (1063, 226), (1117, 91)]",289.2729922124953,"[6, 9, 7, 8, 3, 1, 2, 4, 5]","(0, 0.25)",ENG003B,ENG,B,English,Tue Aug 07 11:20:51 2018,Mouse
1,0,2,0,41,4,4,1,168,78,90,134,0,500,200,8000,"[(960, 540), (960, 540), (960, 540), (960, 540), (960, 540), (960, 540), (960, 540), (963, 538), (966, 533), (971, 527), (991, 499), (1001, 481), (1024, 442), (1045, 399), (1111, 287), (1153, 220), (1209, 153)]",302.75766880112553,"[6, 9, 7, 8, 3, 1, 2, 4, 5]","(0, 0.25)",ENG003B,ENG,B,English,Tue Aug 07 11:20:51 2018,Mouse
1,0,2,0,42,9,4,0,-320,250,70,133,0,500,200,8000,"[(960, 540), (960, 540), (960, 540), (960, 540), (960, 540), (960, 540), (960, 540), (960, 540), (960, 540), (960, 540), (960, 540), (960, 540), (960, 540), (960, 540), (960, 540), (960, 540), (960, 540), (960, 540), (960, 540), (960, 540), (960, 540), (960, 540), (960, 540), (960, 540), (967, 527), (975, 510), (990, 486), (1004, 456), (1052, 338), (1085, 273), (1127, 202), (1162, 141)]",296.8515276873551,"[6, 9, 7, 8, 3, 1, 2, 4, 5]","(0, 0.25)",ENG003B,ENG,B,English,Tue Aug 07 11:20:51 2018,Mouse
1,0,2,0,43,1,4,0,-1889,1799,90,134,0,500,200,8000,"[(960, 540), (960, 540), (960, 540), (960, 540), (960, 540), (960, 540), (960, 540), (960, 540), (960, 540), (960, 540), (960, 540), (960, 540), (960, 540), (960, 540), (960, 540), (960, 540), (960, 540), (960, 540), (960, 540), (960, 540), (960, 540), (960, 540), (960, 540), (960, 540), (960, 540), (960, 540), (960, 540), (960, 540), (960, 540), (960, 540), (960, 540), (960, 540), (960, 540), (960, 540), (960, 540), (960, 540), (960, 540), (960, 540), (960, 540), (960, 540), (960, 540), (960, 540), (960, 540), (960, 540), (960, 540), (960, 540), (960, 540), (960, 540), (960, 540), (960, 540), (960, 540), (960, 540), (960, 540), (960, 540), (960, 540), (960, 540), (960, 540), (960, 540), (960, 540), (960, 540), (960, 540), (960, 540), (960, 540), (960, 540), (960, 540), (960, 540), (960, 540), (960, 540), (960, 540), (960, 540), (960, 540), (960, 540), (960, 540), (960, 540), (960, 540), (960, 540), (960, 540), (960, 540), (960, 540), (960, 540), (960, 540), (960, 540), (960, 540), (960, 540), (960, 540), (960, 540), (960, 540), (960, 540), (960, 540), (960, 540), (960, 540), (960, 540), (960, 540), (960, 540), (960, 540), (960, 540), (960, 540), (960, 540), (960, 540), (960, 540), (960, 540), (960, 540), (960, 540), (960, 540), (960, 540), (960, 540), (960, 540), (960, 540), (960, 540), (960, 540), (960, 540), (960, 540), (960, 540), (960, 540), (960, 540), (960, 540), (960, 540), (960, 540), (960, 540), (960, 540), (960, 540), (960, 540), (960, 540), (960, 540), (960, 540), (960, 540), (960, 540), (960, 540), (960, 540), (960, 540), (960, 540), (960, 540), (960, 540), (960, 540), (960, 540), (960, 540), (960, 540), (960, 540), (960, 540), (960, 540), (960, 540), (960, 540), (960, 540), (960, 540), (960, 540), (960, 540), (960, 540), (960, 540), (960, 540), (960, 540), (960, 540), (960, 540), (960, 540), (960, 540), (960, 540), (960, 540), (960, 540), (960, 540), (960, 540), (960, 540), (960, 540), (960, 540), (960, 540), (960, 540), (960, 540), (960, 540), (960, 540), (960, 540), (960, 540), (960, 540), (960, 540), (960, 540), (960, 540), (960, 540), (960, 540), (960, 540), (960, 540), (960, 540), (960, 540), (962, 538), (964, 534), (970, 525), (974, 516), (993, 487), (1010, 462), (1031, 424), (1062, 367), (1137, 233), (1170, 160)]",298.9264258352536,"[6, 9, 7, 8, 3, 1, 2, 4, 5]","(0, 0.25)",ENG003B,ENG,B,English,Tue Aug 07 11:20:51 2018,Mouse
1,0,2,0,44,3,3,1,1120,1050,70,135,0,500,200,8000,"[(960, 540), (960, 540), (960, 540), (960, 540), (960, 540), (960, 540), (960, 540), (960, 540), (960, 540), (960, 540), (960, 540), (960, 540), (960, 540), (960, 540), (960, 540), (960, 540), (960, 540), (960, 540), (960, 540), (960, 540), (960, 540), (960, 540), (960, 540), (960, 540), (960, 540), (960, 540), (960, 540), (960, 540), (960, 540), (960, 540), (960, 540), (960, 540), (960, 540), (960, 540), (960, 540), (960, 540), (960, 540), (960, 540), (960, 540), (960, 540), (960, 540), (960, 540), (960, 540), (960, 540), (960, 540), (960, 540), (960, 540), (960, 540), (960, 540), (960, 540), (960, 540), (960, 540), (960, 540), (960, 540), (960, 540), (960, 540), (960, 540), (960, 540), (960, 540), (960, 540), (960, 540), (960, 540), (960, 540), (960, 540), (960, 540), (960, 540), (960, 540), (960, 540), (960, 540), (960, 540), (960, 540), (960, 540), (960, 540), (960, 540), (960, 540), (960, 540), (960, 540), (960, 540), (960, 540), (960, 540), (960, 540), (960, 540), (960, 540), (960, 540), (960, 540), (960, 540), (960, 540), (960, 540), (960, 540), (960, 540), (960, 540), (960, 540), (960, 540), (960, 540), (960, 540), (960, 540), (960, 540), (960, 540), (960, 540), (960, 540), (960, 540), (960, 540), (960, 540), (960, 540), (957, 543), (930, 547), (907, 550), (864, 553), (803, 553), (659, 553), (570, 562), (481, 564)]",177.13162894930412,"[6, 9, 7, 8, 3, 1, 2, 4, 5]","(0, 0.25)",ENG003B,ENG,B,English,Tue Aug 07 11:20:51 2018,Mouse
1,0,2,0,45,6,6,1,400,320,80,135,0,500,200,8000,"[(960, 540), (960, 540), (960, 540), (960, 540), (960, 540), (960, 540), (960, 540), (960, 540), (960, 540), (960, 540), (960, 540), (960, 540), (960, 540), (960, 540), (960, 540), (960, 540), (960, 540), (960, 540), (960, 540), (960, 540), (960, 540), (960, 540), (960, 540), (960, 540), (960, 540), (960, 540), (960, 540), (960, 540), (960, 540), (960, 540), (960, 540), (961, 540), (978, 547), (996, 552), (1013, 556), (1055, 570), (1162, 596), (1226, 615), (1292, 634), (1367, 656)]",15.908202930156694,"[6, 9, 7, 8, 3, 1, 2, 4, 5]","(0, 0.25)",ENG003B,ENG,B,English,Tue Aug 07 11:20:51 2018,Mouse
1,0,2,0,46,8,8,1,759,639,120,134,0,500,200,8000,"[(960, 540), (960, 540), (960, 540), (960, 540), (960, 540), (960, 540), (960, 540), (960, 540), (960, 540), (960, 540), (960, 540), (960, 540), (960, 540), (960, 540), (960, 540), (960, 540), (960, 540), (960, 540), (960, 540), (960, 540), (960, 540), (960, 540), (960, 540), (960, 540), (960, 540), (960, 540), (960, 540), (960, 540), (960, 540), (960, 540), (960, 540), (960, 540), (960, 540), (960, 540), (960, 540), (960, 540), (960, 540), (960, 540), (960, 540), (960, 540), (960, 540), (960, 540), (960, 540), (960, 540), (960, 540), (960, 540), (960, 540), (960, 540), (960, 540), (960, 540), (960, 540), (960, 540), (960, 540), (960, 540), (960, 540), (960, 540), (960, 540), (960, 540), (960, 540), (960, 540), (960, 540), (960, 540), (960, 540), (960, 544), (960, 552), (960, 562), (960, 577), (953, 610), (945, 626), (929, 651), (911, 674), (844, 720), (798, 744), (744, 769), (690, 790), (571, 823)]",143.9638698092924,"[6, 9, 7, 8, 3, 1, 2, 4, 5]","(0, 0.25)",ENG003B,ENG,B,English,Tue Aug 07 11:20:51 2018,Mouse
1,0,2,0,47,8,8,1,410,310,100,133,0,500,200,8000,"[(960, 540), (960, 540), (960, 540), (960, 540), (960, 540), (960, 540), (960, 540), (960, 540), (960, 540), (960, 540), (960, 540), (960, 540), (960, 540), (960, 540), (960, 540), (960, 540), (960, 540), (960, 540), (960, 540), (960, 540), (960, 540), (960, 540), (960, 540), (960, 540), (960, 540), (960, 540), (960, 540), (960, 540), (960, 540), (960, 540), (961, 545), (958, 552), (951, 563), (942, 574), (906, 599), (874, 617), (833, 642), (792, 664), (704, 715), (662, 745), (613, 774)]",146.00618035879666,"[6, 9, 7, 8, 3, 1, 2, 4, 5]","(0, 0.25)",ENG003B,ENG,B,English,Tue Aug 07 11:20:51 2018,Mouse
1,0,2,0,48,1,4,0,-880,820,60,132,0,500,200,8000,"[(960, 540), (960, 540), (960, 540), (960, 540), (960, 540), (960, 540), (960, 540), (960, 540), (960, 540), (960, 540), (960, 540), (960, 540), (960, 540), (960, 540), (960, 540), (960, 540), (960, 540), (960, 540), (960, 540), (960, 540), (960, 540), (960, 540), (960, 540), (960, 540), (960, 540), (960, 540), (960, 540), (960, 540), (960, 540), (960, 540), (960, 540), (960, 540), (960, 540), (960, 540), (960, 540), (960, 540), (960, 540), (960, 540), (960, 540), (960, 540), (960, 540), (960, 540), (960, 540), (960, 540), (960, 540), (960, 540), (960, 540), (960, 540), (960, 540), (960, 540), (960, 540), (960, 540), (960, 540), (960, 540), (960, 540), (960, 540), (960, 540), (960, 540), (960, 540), (960, 540), (960, 540), (960, 540), (960, 540), (960, 540), (960, 540), (960, 540), (960, 540), (960, 540), (960, 540), (960, 540), (960, 540), (960, 540), (960, 540), (960, 540), (960, 540), (960, 540), (960, 540), (960, 540), (960, 540), (960, 540), (960, 540), (965, 532), (974, 515), (993, 480), (1044, 354), (1073, 278), (1112, 183), (1152, 86)]",292.92386591917665,"[6, 9, 7, 8, 3, 1, 2, 4, 5]","(0, 0.25)",ENG003B,ENG,B,English,Tue Aug 07 11:20:51 2018,Mouse
1,0,2,0,49,1,1,1,470,400,70,133,0,500,200,8000,"[(960, 540), (960, 540), (960, 540), (960, 540), (960, 540), (960, 540), (960, 540), (960, 540), (960, 540), (960, 540), (960, 540), (960, 540), (960, 540), (960, 540), (960, 540), (960, 540), (960, 540), (960, 540), (960, 540), (960, 540), (960, 540), (960, 540), (960, 540), (960, 540), (960, 540), (960, 540), (960, 540), (960, 540), (960, 540), (960, 540), (960, 540), (960, 540), (960, 540), (960, 540), (960, 540), (960, 540), (960, 540), (960, 540), (960, 540), (957, 530), (948, 515), (936, 495), (910, 464), (826, 362), (771, 305), (708, 235), (637, 172)]",228.72601222618863,"[6, 9, 7, 8, 3, 1, 2, 4, 5]","(0, 0.25)",ENG003B,ENG,B,English,Tue Aug 07 11:20:51 2018,Mouse
1,0,2,0,50,2,3,0,-760,690,70,133,0,500,200,8000,"[(960, 540), (960, 540), (960, 540), (960, 540), (960, 540), (960, 540), (960, 540), (960, 540), (960, 540), (960, 540), (960, 540), (960, 540), (960, 540), (960, 540), (960, 540), (960, 540), (960, 540), (960, 540), (960, 540), (960, 540), (960, 540), (960, 540), (960, 540), (960, 540), (960, 540), (960, 540), (960, 540), (960, 540), (960, 540), (960, 540), (960, 540), (960, 540), (960, 540), (960, 540), (960, 540), (960, 540), (960, 540), (960, 540), (960, 540), (960, 540), (960, 540), (960, 540), (960, 540), (960, 540), (960, 540), (960, 540), (960, 540), (960, 540), (960, 540), (960, 540), (960, 540), (960, 540), (960, 540), (960, 540), (960, 540), (960, 540), (960, 540), (960, 540), (960, 540), (960, 540), (960, 540), (960, 540), (960, 540), (960, 540), (960, 540), (960, 540), (960, 540), (960, 540), (960, 542), (953, 545), (937, 549), (847, 554), (778, 554), (698, 554), (604, 554), (435, 554)]",178.47247455778708,"[6, 9, 7, 8, 3, 1, 2, 4, 5]","(0, 0.25)",ENG003B,ENG,B,English,Tue Aug 07 11:20:51 2018,Mouse
1,0,2,0,51,2,2,1,619,549,70,134,0,500,200,8000,"[(960, 540), (960, 540), (960, 540), (960, 540), (960, 540), (960, 540), (960, 540), (960, 540), (960, 540), (960, 540), (960, 540), (960, 540), (960, 540), (960, 540), (960, 540), (960, 540), (960, 540), (960, 540), (960, 540), (960, 540), (960, 540), (960, 540), (960, 540), (960, 540), (960, 540), (960, 540), (960, 540), (960, 540), (960, 540), (960, 540), (960, 540), (960, 540), (960, 540), (960, 540), (960, 540), (960, 540), (960, 540), (960, 540), (960, 540), (960, 540), (960, 540), (960, 540), (960, 540), (960, 540), (960, 540), (960, 540), (960, 540), (960, 540), (960, 540), (960, 540), (960, 540), (960, 540), (960, 540), (960, 540), (960, 528), (960, 514), (960, 494), (960, 457), (956, 340), (956, 271), (956, 202), (956, 127)]",269.44509454628985,"[6, 9, 7, 8, 3, 1, 2, 4, 5]","(0, 0.25)",ENG003B,ENG,B,English,Tue Aug 07 11:20:51 2018,Mouse
1,0,2,0,52,2,2,1,58,18,40,134,0,500,200,8000,"[(950, 502), (934, 452), (920, 399), (882, 264), (860, 192), (842, 120)]",254.3071657230626,"[6, 9, 7, 8, 3, 1, 2, 4, 5]","(0, 0.25)",ENG003B,ENG,B,English,Tue Aug 07 11:20:51 2018,Mouse
1,0,2,0,53,8,3,0,-867,307,560,133,0,500,200,8000,"[(960, 540), (960, 540), (960, 540), (960, 540), (960, 540), (960, 540), (960, 540), (960, 540), (960, 540), (960, 540), (960, 540), (960, 540), (960, 540), (960, 540), (960, 540), (960, 540), (960, 540), (960, 540), (960, 540), (960, 540), (960, 540), (960, 540), (960, 540), (960, 540), (960, 540), (960, 540), (960, 540), (960, 540), (960, 540), (960, 540), (961, 540), (961, 540), (961, 540), (961, 540), (961, 540), (961, 540), (961, 540), (961, 540), (961, 540), (961, 540), (961, 540), (962, 540), (962, 540), (962, 540), (962, 540), (962, 540), (962, 540), (962, 540), (962, 540), (962, 540), (962, 540), (962, 540), (962, 540), (962, 540), (962, 540), (962, 540), (962, 540), (962, 540), (962, 540), (962, 540), (962, 540), (962, 540), (962, 540), (962, 540), (962, 540), (962, 540), (962, 540), (962, 540), (962, 540), (962, 540), (962, 540), (962, 540), (962, 540), (962, 540), (962, 540), (962, 540), (962, 540), (962, 540), (962, 540), (962, 540), (962, 540), (959, 540), (936, 540), (886, 540), (699, 540), (572, 540), (439, 540)]",180.0,"[6, 9, 7, 8, 3, 1, 2, 4, 5]","(0, 0.25)",ENG003B,ENG,B,English,Tue Aug 07 11:20:51 2018,Mouse
1,0,2,0,54,2,2,1,350,290,60,134,0,500,200,8000,"[(960, 540), (960, 540), (960, 540), (960, 540), (960, 540), (960, 540), (960, 540), (960, 540), (960, 540), (960, 540), (960, 540), (960, 540), (960, 540), (960, 540), (960, 540), (960, 540), (960, 540), (960, 540), (960, 540), (960, 540), (960, 540), (960, 540), (960, 540), (960, 540), (960, 540), (960, 540), (960, 540), (960, 540), (960, 539), (960, 529), (954, 507), (947, 467), (927, 328), (918, 228), (911, 114)]",263.43847618669565,"[6, 9, 7, 8, 3, 1, 2, 4, 5]","(0, 0.25)",ENG003B,ENG,B,English,Tue Aug 07 11:20:51 2018,Mouse
1,0,2,0,55,4,4,1,530,450,80,134,0,500,200,8000,"[(960, 540), (960, 540), (960, 540), (960, 540), (960, 540), (960, 540), (960, 540), (960, 540), (960, 540), (960, 540), (960, 540), (960, 540), (960, 540), (960, 540), (960, 540), (960, 540), (960, 540), (960, 540), (960, 540), (960, 540), (960, 540), (960, 540), (960, 540), (960, 540), (960, 540), (960, 540), (960, 540), (960, 540), (960, 540), (960, 540), (960, 540), (960, 540), (960, 540), (960, 540), (960, 540), (960, 540), (960, 540), (960, 540), (960, 540), (960, 540), (960, 540), (960, 540), (960, 540), (960, 540), (963, 540), (969, 538), (980, 527), (992, 513), (1048, 445), (1084, 390), (1135, 325), (1189, 248), (1308, 74)]",306.7516809370228,"[6, 9, 7, 8, 3, 1, 2, 4, 5]","(0, 0.25)",ENG003B,ENG,B,English,Tue Aug 07 11:20:51 2018,Mouse
1,0,2,0,56,4,4,1,88,28,60,133,0,500,200,8000,"[(960, 540), (960, 540), (964, 536), (977, 513), (994, 473), (1018, 424), (1098, 290), (1150, 212), (1214, 139)]",302.3508426320622,"[6, 9, 7, 8, 3, 1, 2, 4, 5]","(0, 0.25)",ENG003B,ENG,B,English,Tue Aug 07 11:20:51 2018,Mouse
1,0,2,0,57,8,8,1,769,679,90,132,0,500,200,8000,"[(960, 540), (960, 540), (960, 540), (960, 540), (960, 540), (960, 540), (960, 540), (960, 540), (960, 540), (960, 540), (960, 540), (960, 540), (960, 540), (960, 540), (960, 540), (960, 540), (960, 540), (960, 540), (960, 540), (960, 540), (960, 540), (960, 540), (960, 540), (960, 540), (960, 540), (960, 540), (960, 540), (960, 540), (960, 540), (960, 540), (960, 540), (960, 540), (960, 540), (960, 540), (960, 540), (960, 540), (960, 540), (960, 540), (960, 540), (960, 540), (960, 540), (960, 540), (960, 540), (960, 540), (960, 540), (960, 540), (960, 540), (960, 540), (960, 540), (960, 540), (960, 540), (960, 540), (960, 540), (960, 540), (960, 540), (960, 540), (960, 540), (960, 540), (960, 540), (960, 540), (960, 540), (960, 540), (960, 540), (960, 540), (960, 540), (960, 540), (960, 540), (960, 542), (956, 550), (948, 557), (934, 569), (909, 585), (839, 636), (799, 670), (751, 708), (706, 749), (607, 827)]",140.88781428439881,"[6, 9, 7, 8, 3, 1, 2, 4, 5]","(0, 0.25)",ENG003B,ENG,B,English,Tue Aug 07 11:20:51 2018,Mouse
1,0,2,0,58,1,3,0,-737,697,40,131,0,500,200,8000,"[(960, 540), (960, 540), (960, 540), (960, 540), (960, 540), (960, 540), (960, 540), (960, 540), (960, 540), (960, 540), (960, 540), (960, 540), (960, 540), (960, 540), (960, 540), (960, 540), (960, 540), (960, 540), (960, 540), (960, 540), (960, 540), (960, 540), (960, 540), (960, 540), (960, 540), (960, 540), (960, 540), (960, 540), (960, 540), (960, 540), (960, 540), (960, 540), (960, 540), (960, 540), (960, 540), (960, 540), (960, 540), (960, 540), (960, 540), (960, 540), (960, 540), (960, 540), (960, 540), (960, 540), (960, 540), (960, 540), (960, 540), (960, 540), (960, 540), (960, 540), (960, 540), (960, 540), (960, 540), (960, 540), (960, 540), (960, 540), (960, 540), (960, 540), (960, 540), (960, 540), (960, 540), (960, 540), (960, 540), (960, 540), (960, 540), (960, 540), (960, 540), (960, 540), (960, 540), (954, 540), (854, 544), (758, 544), (642, 544), (515, 544)]",179.48499562730728,"[6, 9, 7, 8, 3, 1, 2, 4, 5]","(0, 0.25)",ENG003B,ENG,B,English,Tue Aug 07 11:20:51 2018,Mouse
1,0,2,0,59,9,8,0,-519,439,80,132,0,500,200,8000,"[(960, 540), (960, 540), (960, 540), (960, 540), (960, 540), (960, 540), (960, 540), (960, 540), (960, 540), (960, 540), (960, 540), (960, 540), (960, 540), (960, 540), (960, 540), (960, 540), (960, 540), (960, 540), (960, 540), (960, 540), (960, 540), (960, 540), (960, 540), (960, 540), (960, 540), (960, 540), (960, 540), (960, 540), (960, 540), (960, 540), (960, 540), (960, 540), (960, 540), (960, 540), (960, 540), (960, 540), (960, 540), (960, 540), (960, 540), (960, 540), (960, 540), (960, 540), (960, 540), (961, 544), (959, 553), (952, 566), (940, 586), (894, 660), (860, 702), (817, 743), (766, 788), (657, 867)]",132.81835859644852,"[6, 9, 7, 8, 3, 1, 2, 4, 5]","(0, 0.25)",ENG003B,ENG,B,English,Tue Aug 07 11:20:51 2018,Mouse
1,0,2,0,60,6,6,1,550,490,60,133,0,500,200,8000,"[(960, 540), (960, 540), (960, 540), (960, 540), (960, 540), (960, 540), (960, 540), (960, 540), (960, 540), (960, 540), (960, 540), (960, 540), (960, 540), (960, 540), (960, 540), (960, 540), (960, 540), (960, 540), (960, 540), (960, 540), (960, 540), (960, 540), (960, 540), (960, 540), (960, 540), (960, 540), (960, 540), (960, 540), (960, 540), (960, 540), (960, 540), (960, 540), (960, 540), (960, 540), (960, 540), (960, 540), (960, 540), (960, 540), (960, 540), (960, 540), (960, 540), (960, 540), (960, 540), (960, 540), (960, 540), (960, 540), (960, 540), (960, 540), (961, 539), (964, 539), (1008, 555), (1075, 576), (1174, 604), (1289, 625), (1519, 660)]",12.11575479639202,"[6, 9, 7, 8, 3, 1, 2, 4, 5]","(0, 0.25)",ENG003B,ENG,B,English,Tue Aug 07 11:20:51 2018,Mouse
1,0,2,0,61,9,1,0,-441,391,50,133,0,500,200,8000,"[(960, 540), (960, 540), (960, 540), (960, 540), (960, 540), (960, 540), (960, 540), (960, 540), (960, 540), (960, 540), (960, 540), (960, 540), (960, 540), (960, 540), (960, 540), (960, 540), (960, 540), (960, 540), (960, 540), (960, 540), (960, 540), (960, 540), (960, 540), (960, 540), (960, 540), (960, 540), (960, 540), (960, 540), (960, 540), (960, 540), (960, 540), (960, 540), (960, 540), (960, 540), (960, 540), (960, 540), (960, 540), (960, 540), (960, 540), (952, 529), (924, 500), (889, 465), (843, 423), (721, 280), (655, 207)]",227.51293577181502,"[6, 9, 7, 8, 3, 1, 2, 4, 5]","(0, 0.25)",ENG003B,ENG,B,English,Tue Aug 07 11:20:51 2018,Mouse
1,0,2,0,62,8,8,1,650,410,240,134,0,500,200,8000,"[(960, 540), (960, 540), (960, 540), (960, 540), (960, 540), (960, 540), (960, 540), (960, 540), (960, 540), (960, 540), (960, 540), (960, 540), (960, 540), (960, 540), (960, 540), (960, 540), (960, 540), (960, 540), (960, 540), (960, 540), (960, 540), (960, 540), (960, 540), (960, 540), (960, 540), (960, 540), (960, 540), (960, 540), (960, 540), (960, 540), (960, 540), (960, 540), (960, 540), (960, 540), (960, 540), (960, 540), (960, 540), (960, 540), (960, 540), (960, 540), (959, 542), (955, 545), (952, 548), (949, 551), (944, 555), (939, 561), (935, 563), (932, 566), (927, 569), (917, 573), (914, 576), (908, 580), (900, 585), (881, 604), (868, 616), (853, 632), (835, 645), (799, 676), (777, 691), (758, 702), (739, 713), (700, 731), (676, 741), (656, 749), (626, 763)]",146.27036357180737,"[6, 9, 7, 8, 3, 1, 2, 4, 5]","(0, 0.25)",ENG003B,ENG,B,English,Tue Aug 07 11:20:51 2018,Mouse
1,0,2,0,63,9,3,0,-549,489,60,134,0,500,200,8000,"[(960, 540), (960, 540), (960, 540), (960, 540), (960, 540), (960, 540), (960, 540), (960, 540), (960, 540), (960, 540), (960, 540), (960, 540), (960, 540), (960, 540), (960, 540), (960, 540), (960, 540), (960, 540), (960, 540), (960, 540), (960, 540), (960, 540), (960, 540), (960, 540), (960, 540), (960, 540), (960, 540), (960, 540), (960, 540), (960, 540), (960, 540), (960, 540), (960, 540), (960, 540), (960, 540), (960, 540), (960, 540), (960, 540), (960, 540), (960, 540), (960, 540), (960, 540), (960, 540), (960, 540), (960, 540), (960, 540), (960, 540), (960, 540), (957, 543), (938, 543), (896, 543), (783, 543), (711, 543), (645, 543), (559, 543)]",179.5713612672979,"[6, 9, 7, 8, 3, 1, 2, 4, 5]","(0, 0.25)",ENG003B,ENG,B,English,Tue Aug 07 11:20:51 2018,Mouse
1,0,2,0,64,5,6,0,-559,479,80,135,0,500,200,8000,"[(960, 540), (960, 540), (960, 540), (960, 540), (960, 540), (960, 540), (960, 540), (960, 540), (960, 540), (960, 540), (960, 540), (960, 540), (960, 540), (960, 540), (960, 540), (960, 540), (960, 540), (960, 540), (960, 540), (960, 540), (960, 540), (960, 540), (960, 540), (960, 540), (960, 540), (960, 540), (960, 540), (960, 540), (960, 540), (960, 540), (960, 540), (960, 540), (960, 540), (960, 540), (960, 540), (960, 540), (960, 540), (960, 540), (960, 540), (960, 540), (960, 540), (960, 540), (960, 540), (960, 540), (960, 540), (960, 540), (960, 540), (960, 541), (965, 544), (970, 547), (980, 553), (1033, 583), (1087, 610), (1160, 641), (1244, 673), (1423, 720)]",21.244533464262112,"[6, 9, 7, 8, 3, 1, 2, 4, 5]","(0, 0.25)",ENG003B,ENG,B,English,Tue Aug 07 11:20:51 2018,Mouse
1,0,2,0,65,4,4,1,1248,1188,60,136,0,500,200,8000,"[(960, 540), (960, 540), (960, 540), (960, 540), (960, 540), (960, 540), (960, 540), (960, 540), (960, 540), (960, 540), (960, 540), (960, 540), (960, 540), (960, 540), (960, 540), (960, 540), (960, 540), (960, 540), (960, 540), (960, 540), (960, 540), (960, 540), (960, 540), (960, 540), (960, 540), (960, 540), (960, 540), (960, 540), (960, 540), (960, 540), (960, 540), (960, 540), (960, 540), (960, 540), (960, 540), (960, 540), (960, 540), (960, 540), (960, 540), (960, 540), (960, 540), (960, 540), (960, 540), (960, 540), (960, 540), (960, 540), (960, 540), (960, 540), (960, 540), (960, 540), (960, 540), (960, 540), (960, 540), (960, 540), (960, 540), (960, 540), (960, 540), (960, 540), (960, 540), (960, 540), (960, 540), (960, 540), (960, 540), (960, 540), (960, 540), (960, 540), (960, 540), (960, 540), (960, 540), (960, 540), (960, 540), (960, 540), (960, 540), (960, 540), (960, 540), (960, 540), (960, 540), (960, 540), (960, 540), (960, 540), (960, 540), (960, 540), (960, 540), (960, 540), (960, 540), (960, 540), (960, 540), (960, 540), (960, 540), (960, 540), (960, 540), (960, 540), (960, 540), (960, 540), (960, 540), (960, 540), (960, 540), (960, 540), (960, 540), (960, 540), (960, 540), (960, 540), (960, 540), (960, 540), (960, 540), (960, 540), (960, 540), (960, 540), (960, 540), (960, 540), (960, 540), (960, 540), (960, 540), (960, 540), (960, 540), (960, 540), (960, 540), (960, 540), (964, 528), (974, 502), (990, 470), (1002, 418), (1074, 307), (1122, 251), (1169, 185)]",300.4867002832418,"[6, 9, 7, 8, 3, 1, 2, 4, 5]","(0, 0.25)",ENG003B,ENG,B,English,Tue Aug 07 11:20:51 2018,Mouse
1,0,2,0,66,8,8,1,589,139,450,136,0,500,200,8000,"[(960, 540), (960, 540), (960, 540), (960, 540), (960, 540), (960, 540), (960, 540), (960, 540), (960, 540), (960, 540), (960, 540), (960, 540), (960, 540), (959, 541), (959, 541), (959, 541), (959, 542), (959, 542), (959, 542), (959, 542), (959, 542), (959, 542), (959, 543), (959, 543), (959, 543), (959, 543), (959, 543), (959, 543), (959, 543), (959, 543), (959, 543), (959, 543), (959, 543), (959, 543), (959, 543), (959, 543), (959, 543), (959, 543), (959, 543), (959, 543), (959, 543), (959, 543), (959, 543), (959, 543), (959, 544), (959, 546), (959, 549), (959, 551), (953, 563), (947, 569), (938, 578), (924, 588), (873, 616), (840, 634), (803, 651), (771, 667), (681, 715), (637, 741), (592, 775)]",147.43822952786996,"[6, 9, 7, 8, 3, 1, 2, 4, 5]","(0, 0.25)",ENG003B,ENG,B,English,Tue Aug 07 11:20:51 2018,Mouse
1,0,2,0,67,2,2,1,531,381,150,135,0,500,200,8000,"[(960, 540), (960, 540), (960, 540), (960, 540), (960, 540), (960, 540), (960, 540), (960, 540), (960, 540), (960, 540), (960, 540), (960, 540), (960, 540), (960, 540), (960, 540), (960, 540), (960, 540), (960, 540), (960, 540), (960, 540), (960, 540), (960, 540), (960, 540), (960, 540), (960, 540), (960, 540), (960, 540), (960, 540), (960, 540), (960, 540), (960, 540), (960, 540), (960, 540), (960, 540), (960, 540), (960, 540), (960, 540), (960, 540), (961, 540), (961, 540), (961, 540), (961, 540), (961, 540), (961, 540), (961, 540), (961, 540), (961, 538), (961, 532), (959, 522), (952, 479), (947, 431), (936, 357), (927, 262), (896, 14)]",263.0627500466057,"[6, 9, 7, 8, 3, 1, 2, 4, 5]","(0, 0.25)",ENG003B,ENG,B,English,Tue Aug 07 11:20:51 2018,Mouse
1,0,2,0,68,4,4,1,489,429,60,134,0,500,200,8000,"[(960, 540), (960, 540), (960, 540), (960, 540), (960, 540), (960, 540), (960, 540), (960, 540), (960, 540), (960, 540), (960, 540), (960, 540), (960, 540), (960, 540), (960, 540), (960, 540), (960, 540), (960, 540), (960, 540), (960, 540), (960, 540), (960, 540), (960, 540), (960, 540), (960, 540), (960, 540), (960, 540), (960, 540), (960, 540), (960, 540), (960, 540), (960, 540), (960, 540), (960, 540), (960, 540), (960, 540), (960, 540), (960, 540), (960, 540), (960, 540), (960, 540), (960, 540), (960, 536), (967, 515), (979, 481), (998, 430), (1058, 303), (1099, 242), (1156, 175)]",298.2351892658398,"[6, 9, 7, 8, 3, 1, 2, 4, 5]","(0, 0.25)",ENG003B,ENG,B,English,Tue Aug 07 11:20:51 2018,Mouse
1,0,2,0,69,8,3,0,-1109,1049,60,133,0,500,200,8000,"[(960, 540), (960, 540), (960, 540), (960, 540), (960, 540), (960, 540), (960, 540), (960, 540), (960, 540), (960, 540), (960, 540), (960, 540), (960, 540), (960, 540), (960, 540), (960, 540), (960, 540), (960, 540), (960, 540), (960, 540), (960, 540), (960, 540), (960, 540), (960, 540), (960, 540), (960, 540), (960, 540), (960, 540), (960, 540), (960, 540), (960, 540), (960, 540), (960, 540), (960, 540), (960, 540), (960, 540), (960, 540), (960, 540), (960, 540), (960, 540), (960, 540), (960, 540), (960, 540), (960, 540), (960, 540), (960, 540), (960, 540), (960, 540), (960, 540), (960, 540), (960, 540), (960, 540), (960, 540), (960, 540), (960, 540), (960, 540), (960, 540), (960, 540), (960, 540), (960, 540), (960, 540), (960, 540), (960, 540), (960, 540), (960, 540), (960, 540), (960, 540), (960, 540), (960, 540), (960, 540), (960, 540), (960, 540), (960, 540), (960, 540), (960, 540), (960, 540), (960, 540), (960, 540), (960, 540), (960, 540), (960, 540), (960, 540), (960, 540), (960, 540), (960, 540), (960, 540), (960, 540), (960, 540), (960, 540), (960, 540), (960, 540), (960, 540), (960, 540), (960, 540), (960, 540), (960, 540), (960, 540), (960, 540), (960, 540), (960, 540), (960, 540), (960, 540), (960, 540), (960, 540), (950, 546), (931, 547), (897, 547), (839, 547), (701, 547), (615, 547), (527, 547)]",179.0738209646039,"[6, 9, 7, 8, 3, 1, 2, 4, 5]","(0, 0.25)",ENG003B,ENG,B,English,Tue Aug 07 11:20:51 2018,Mouse
1,0,2,0,70,7,7,1,649,289,360,134,0,500,200,8000,"[(960, 540), (960, 540), (960, 540), (960, 540), (960, 540), (960, 540), (960, 540), (960, 540), (960, 540), (960, 540), (960, 540), (960, 540), (960, 540), (960, 540), (960, 540), (960, 540), (960, 540), (960, 540), (960, 540), (960, 540), (960, 540), (960, 540), (960, 540), (960, 540), (960, 540), (960, 540), (960, 540), (960, 540), (961, 541), (961, 541), (962, 541), (963, 542), (963, 542), (963, 542), (963, 542), (963, 542), (963, 542), (963, 542), (963, 542), (963, 542), (963, 542), (963, 542), (963, 542), (963, 542), (963, 542), (963, 542), (963, 542), (963, 542), (963, 542), (963, 542), (963, 542), (963, 542), (963, 542), (963, 542), (963, 542), (963, 542), (963, 542), (963, 544), (963, 554), (963, 579), (963, 696), (963, 765), (955, 835), (945, 908), (923, 1050)]",94.1494827471291,"[6, 9, 7, 8, 3, 1, 2, 4, 5]","(0, 0.25)",ENG003B,ENG,B,English,Tue Aug 07 11:20:51 2018,Mouse
1,0,2,0,71,8,8,1,688,618,70,134,0,500,200,8000,"[(960, 540), (960, 540), (960, 540), (960, 540), (960, 540), (960, 540), (960, 540), (960, 540), (960, 540), (960, 540), (960, 540), (960, 540), (960, 540), (960, 540), (960, 540), (960, 540), (960, 540), (960, 540), (960, 540), (960, 540), (960, 540), (960, 540), (960, 540), (960, 540), (960, 540), (960, 540), (960, 540), (960, 540), (960, 540), (960, 540), (960, 540), (960, 540), (960, 540), (960, 540), (960, 540), (960, 540), (960, 540), (960, 540), (960, 540), (960, 540), (960, 540), (960, 540), (960, 540), (960, 540), (960, 540), (960, 540), (960, 540), (960, 540), (960, 540), (960, 540), (960, 540), (960, 540), (960, 540), (960, 540), (960, 540), (960, 540), (960, 540), (960, 540), (960, 540), (960, 540), (960, 540), (958, 541), (938, 554), (916, 570), (882, 592), (833, 623), (704, 697), (631, 730), (558, 764)]",150.87283902179396,"[6, 9, 7, 8, 3, 1, 2, 4, 5]","(0, 0.25)",ENG003B,ENG,B,English,Tue Aug 07 11:20:51 2018,Mouse
1,0,2,0,72,6,6,1,560,520,40,133,0,500,200,8000,"[(960, 540), (960, 540), (960, 540), (960, 540), (960, 540), (960, 540), (960, 540), (960, 540), (960, 540), (960, 540), (960, 540), (960, 540), (960, 540), (960, 540), (960, 540), (960, 540), (960, 540), (960, 540), (960, 540), (960, 540), (960, 540), (960, 540), (960, 540), (960, 540), (960, 540), (960, 540), (960, 540), (960, 540), (960, 540), (960, 540), (960, 540), (960, 540), (960, 540), (960, 540), (960, 540), (960, 540), (960, 540), (960, 540), (960, 540), (960, 540), (960, 540), (960, 540), (960, 540), (960, 540), (960, 540), (960, 540), (960, 540), (960, 540), (960, 540), (960, 540), (960, 540), (968, 543), (1024, 567), (1105, 599), (1211, 639), (1338, 672)]",19.24952587268173,"[6, 9, 7, 8, 3, 1, 2, 4, 5]","(0, 0.25)",ENG003B,ENG,B,English,Tue Aug 07 11:20:51 2018,Mouse
1,0,2,0,73,2,7,0,-760,690,70,132,0,500,200,8000,"[(960, 540), (960, 540), (960, 540), (960, 540), (960, 540), (960, 540), (960, 540), (960, 540), (960, 540), (960, 540), (960, 540), (960, 540), (960, 540), (960, 540), (960, 540), (960, 540), (960, 540), (960, 540), (960, 540), (960, 540), (960, 540), (960, 540), (960, 540), (960, 540), (960, 540), (960, 540), (960, 540), (960, 540), (960, 540), (960, 540), (960, 540), (960, 540), (960, 540), (960, 540), (960, 540), (960, 540), (960, 540), (960, 540), (960, 540), (960, 540), (960, 540), (960, 540), (960, 540), (960, 540), (960, 540), (960, 540), (960, 540), (960, 540), (960, 540), (960, 540), (960, 540), (960, 540), (960, 540), (960, 540), (960, 540), (960, 540), (960, 540), (960, 540), (960, 540), (960, 540), (960, 540), (960, 540), (960, 540), (960, 540), (960, 540), (960, 540), (960, 540), (960, 540), (962, 541), (962, 548), (962, 560), (966, 626), (966, 693), (966, 756), (966, 828), (966, 991)]",89.23779512718436,"[6, 9, 7, 8, 3, 1, 2, 4, 5]","(0, 0.25)",ENG003B,ENG,B,English,Tue Aug 07 11:20:51 2018,Mouse
1,0,2,0,74,7,7,1,290,70,220,133,0,500,200,8000,"[(960, 540), (960, 540), (960, 540), (960, 540), (960, 540), (960, 540), (960, 541), (960, 541), (960, 541), (960, 541), (960, 541), (960, 541), (960, 541), (960, 541), (960, 541), (960, 541), (960, 541), (960, 541), (960, 542), (961, 548), (962, 556), (967, 572), (968, 606), (968, 634), (968, 672), (964, 721), (941, 833), (926, 891), (907, 954)]",97.29528562333432,"[6, 9, 7, 8, 3, 1, 2, 4, 5]","(0, 0.25)",ENG003B,ENG,B,English,Tue Aug 07 11:20:51 2018,Mouse
1,0,2,0,75,5,5,1,450,390,60,133,0,500,200,8000,"[(960, 540), (960, 540), (960, 540), (960, 540), (960, 540), (960, 540), (960, 540), (960, 540), (960, 540), (960, 540), (960, 540), (960, 540), (960, 540), (960, 540), (960, 540), (960, 540), (960, 540), (960, 540), (960, 540), (960, 540), (960, 540), (960, 540), (960, 540), (960, 540), (960, 540), (960, 540), (960, 540), (960, 540), (960, 540), (960, 540), (960, 540), (960, 540), (960, 540), (960, 540), (960, 540), (960, 540), (960, 540), (960, 540), (963, 537), (976, 529), (1024, 497), (1066, 469), (1126, 437), (1201, 403), (1366, 340)]",333.7746431402347,"[6, 9, 7, 8, 3, 1, 2, 4, 5]","(0, 0.25)",ENG003B,ENG,B,English,Tue Aug 07 11:20:51 2018,Mouse
1,0,2,0,76,5,1,0,-1030,970,60,132,0,500,200,8000,"[(960, 540), (960, 540), (960, 540), (960, 540), (960, 540), (960, 540), (960, 540), (960, 540), (960, 540), (960, 540), (960, 540), (960, 540), (960, 540), (960, 540), (960, 540), (960, 540), (960, 540), (960, 540), (960, 540), (960, 540), (960, 540), (960, 540), (960, 540), (960, 540), (960, 540), (960, 540), (960, 540), (960, 540), (960, 540), (960, 540), (960, 540), (960, 540), (960, 540), (960, 540), (960, 540), (960, 540), (960, 540), (960, 540), (960, 540), (960, 540), (960, 540), (960, 540), (960, 540), (960, 540), (960, 540), (960, 540), (960, 540), (960, 540), (960, 540), (960, 540), (960, 540), (960, 540), (960, 540), (960, 540), (960, 540), (960, 540), (960, 540), (960, 540), (960, 540), (960, 540), (960, 540), (960, 540), (960, 540), (960, 540), (960, 540), (960, 540), (960, 540), (960, 540), (960, 540), (960, 540), (960, 540), (960, 540), (960, 540), (960, 540), (960, 540), (960, 540), (960, 540), (960, 540), (960, 540), (960, 540), (960, 540), (960, 540), (960, 540), (960, 540), (960, 540), (960, 540), (960, 540), (960, 540), (960, 540), (960, 540), (960, 540), (960, 540), (960, 540), (960, 540), (960, 540), (960, 540), (957, 538), (948, 528), (909, 483), (869, 449), (817, 400), (770, 349), (673, 253)]",225.0,"[6, 9, 7, 8, 3, 1, 2, 4, 5]","(0, 0.25)",ENG003B,ENG,B,English,Tue Aug 07 11:20:51 2018,Mouse
1,0,2,0,77,8,8,1,428,338,90,133,0,500,200,8000,"[(960, 540), (960, 540), (960, 540), (960, 540), (960, 540), (960, 540), (960, 540), (960, 540), (960, 540), (960, 540), (960, 540), (960, 540), (960, 540), (960, 540), (960, 540), (960, 540), (960, 540), (960, 540), (960, 540), (960, 540), (960, 540), (960, 540), (960, 540), (960, 540), (960, 540), (960, 540), (960, 540), (960, 540), (960, 540), (960, 540), (960, 540), (960, 540), (960, 540), (960, 542), (957, 552), (950, 563), (942, 575), (924, 597), (894, 629), (799, 697), (742, 733), (668, 766), (499, 827)]",148.09527294751385,"[6, 9, 7, 8, 3, 1, 2, 4, 5]","(0, 0.25)",ENG003B,ENG,B,English,Tue Aug 07 11:20:51 2018,Mouse
1,0,2,0,78,5,3,0,-569,529,40,133,0,500,200,8000,"[(960, 540), (960, 540), (960, 540), (960, 540), (960, 540), (960, 540), (960, 540), (960, 540), (960, 540), (960, 540), (960, 540), (960, 540), (960, 540), (960, 540), (960, 540), (960, 540), (960, 540), (960, 540), (960, 540), (960, 540), (960, 540), (960, 540), (960, 540), (960, 540), (960, 540), (960, 540), (960, 540), (960, 540), (960, 540), (960, 540), (960, 540), (960, 540), (960, 540), (960, 540), (960, 540), (960, 540), (960, 540), (960, 540), (960, 540), (960, 540), (960, 540), (960, 540), (960, 540), (960, 540), (960, 540), (960, 540), (960, 540), (960, 540), (960, 540), (960, 540), (960, 540), (960, 540), (950, 540), (904, 536), (749, 514), (660, 503), (550, 484)]",187.7776378901293,"[6, 9, 7, 8, 3, 1, 2, 4, 5]","(0, 0.25)",ENG003B,ENG,B,English,Tue Aug 07 11:20:51 2018,Mouse
1,0,2,0,79,4,4,1,371,301,70,134,0,500,200,8000,"[(960, 540), (960, 540), (960, 540), (960, 540), (960, 540), (960, 540), (960, 540), (960, 540), (960, 540), (960, 540), (960, 540), (960, 540), (960, 540), (960, 540), (960, 540), (960, 540), (960, 540), (960, 540), (960, 540), (960, 540), (960, 540), (960, 540), (960, 540), (960, 540), (960, 540), (960, 540), (960, 540), (960, 540), (960, 540), (960, 540), (963, 537), (969, 524), (977, 503), (1018, 417), (1051, 352), (1091, 286), (1138, 212), (1234, 68)]",300.13552828573785,"[6, 9, 7, 8, 3, 1, 2, 4, 5]","(0, 0.25)",ENG003B,ENG,B,English,Tue Aug 07 11:20:51 2018,Mouse
1,0,2,0,80,4,4,1,89,19,70,134,0,500,200,8000,"[(960, 540), (963, 536), (973, 518), (980, 505), (996, 483), (1016, 455), (1088, 342), (1132, 280), (1186, 206)]",304.0841175683069,"[6, 9, 7, 8, 3, 1, 2, 4, 5]","(0, 0.25)",ENG003B,ENG,B,English,Tue Aug 07 11:20:51 2018,Mouse
1,0,2,0,81,9,5,0,-389,339,50,133,0,500,200,8000,"[(960, 540), (960, 540), (960, 540), (960, 540), (960, 540), (960, 540), (960, 540), (960, 540), (960, 540), (960, 540), (960, 540), (960, 540), (960, 540), (960, 540), (960, 540), (960, 540), (960, 540), (960, 540), (960, 540), (960, 540), (960, 540), (960, 540), (960, 540), (960, 540), (960, 540), (960, 540), (960, 540), (960, 540), (960, 540), (960, 540), (960, 540), (960, 540), (960, 540), (961, 540), (979, 532), (1027, 514), (1190, 458), (1283, 419), (1397, 374)]",339.2000833808944,"[6, 9, 7, 8, 3, 1, 2, 4, 5]","(0, 0.25)",ENG003B,ENG,B,English,Tue Aug 07 11:20:51 2018,Mouse
1,0,2,0,82,9,9,1,1050,970,80,134,0,500,200,8000,"[(960, 540), (960, 540), (960, 540), (960, 540), (960, 540), (960, 540), (960, 540), (960, 540), (960, 540), (960, 540), (960, 540), (960, 540), (960, 540), (960, 540), (960, 540), (960, 540), (960, 540), (960, 540), (960, 540), (960, 540), (960, 540), (960, 540), (960, 540), (960, 540), (960, 540), (960, 540), (960, 540), (960, 540), (960, 540), (960, 540), (960, 540), (960, 540), (960, 540), (960, 540), (960, 540), (960, 540), (960, 540), (960, 540), (960, 540), (960, 540), (960, 540), (960, 540), (960, 540), (960, 540), (960, 540), (960, 540), (960, 540), (960, 540), (960, 540), (960, 540), (960, 540), (960, 540), (960, 540), (960, 540), (960, 540), (960, 540), (960, 540), (960, 540), (960, 540), (960, 540), (960, 540), (960, 540), (960, 540), (960, 540), (960, 540), (960, 540), (960, 540), (960, 540), (960, 540), (960, 540), (960, 540), (960, 540), (960, 540), (960, 540), (960, 540), (960, 540), (960, 540), (960, 540), (960, 540), (960, 540), (960, 540), (960, 540), (960, 540), (960, 540), (960, 540), (960, 540), (960, 540), (960, 540), (960, 540), (960, 540), (960, 540), (960, 540), (960, 540), (960, 540), (960, 540), (960, 540), (967, 553), (972, 563), (983, 580), (1010, 619), (1084, 719), (1113, 771), (1137, 818), (1163, 869), (1227, 966)]",57.922136401087926,"[6, 9, 7, 8, 3, 1, 2, 4, 5]","(0, 0.25)",ENG003B,ENG,B,English,Tue Aug 07 11:20:51 2018,Mouse
1,0,2,0,83,9,9,1,319,239,80,134,0,500,200,8000,"[(960, 540), (960, 540), (960, 540), (960, 540), (960, 540), (960, 540), (960, 540), (960, 540), (960, 540), (960, 540), (960, 540), (960, 540), (960, 540), (960, 540), (960, 540), (960, 540), (960, 540), (960, 540), (960, 540), (960, 540), (960, 540), (960, 540), (960, 540), (963, 544), (969, 550), (976, 565), (1012, 630), (1036, 676), (1059, 725), (1079, 775), (1121, 869), (1145, 918)]",63.92204254604199,"[6, 9, 7, 8, 3, 1, 2, 4, 5]","(0, 0.25)",ENG003B,ENG,B,English,Tue Aug 07 11:20:51 2018,Mouse
1,0,2,0,84,4,4,1,420,370,50,133,0,500,200,8000,"[(960, 540), (960, 540), (960, 540), (960, 540), (960, 540), (960, 540), (960, 540), (960, 540), (960, 540), (960, 540), (960, 540), (960, 540), (960, 540), (960, 540), (960, 540), (960, 540), (960, 540), (960, 540), (960, 540), (960, 540), (960, 540), (960, 540), (960, 540), (960, 540), (960, 540), (960, 540), (960, 540), (960, 540), (960, 540), (960, 540), (960, 540), (960, 540), (960, 540), (960, 540), (960, 540), (960, 540), (960, 541), (976, 520), (999, 482), (1026, 427), (1056, 360), (1158, 184)]",299.0819268340175,"[6, 9, 7, 8, 3, 1, 2, 4, 5]","(0, 0.25)",ENG003B,ENG,B,English,Tue Aug 07 11:20:51 2018,Mouse
1,0,2,0,85,3,5,0,-880,810,70,132,0,500,200,8000,"[(960, 540), (960, 540), (960, 540), (960, 540), (960, 540), (960, 540), (960, 540), (960, 540), (960, 540), (960, 540), (960, 540), (960, 540), (960, 540), (960, 540), (960, 540), (960, 540), (960, 540), (960, 540), (960, 540), (960, 540), (960, 540), (960, 540), (960, 540), (960, 540), (960, 540), (960, 540), (960, 540), (960, 540), (960, 540), (960, 540), (960, 540), (960, 540), (960, 540), (960, 540), (960, 540), (960, 540), (960, 540), (960, 540), (960, 540), (960, 540), (960, 540), (960, 540), (960, 540), (960, 540), (960, 540), (960, 540), (960, 540), (960, 540), (960, 540), (960, 540), (960, 540), (960, 540), (960, 540), (960, 540), (960, 540), (960, 540), (960, 540), (960, 540), (960, 540), (960, 540), (960, 540), (960, 540), (960, 540), (960, 540), (960, 540), (960, 540), (960, 540), (960, 540), (960, 540), (960, 540), (960, 540), (960, 540), (960, 540), (960, 540), (960, 540), (960, 540), (960, 540), (960, 540), (960, 540), (960, 540), (963, 540), (970, 540), (999, 534), (1032, 525), (1071, 514), (1132, 495), (1282, 451), (1357, 425)]",343.8451488757247,"[6, 9, 7, 8, 3, 1, 2, 4, 5]","(0, 0.25)",ENG003B,ENG,B,English,Tue Aug 07 11:20:51 2018,Mouse
1,0,2,0,86,1,1,1,450,390,60,133,0,500,200,8000,"[(960, 540), (960, 540), (960, 540), (960, 540), (960, 540), (960, 540), (960, 540), (960, 540), (960, 540), (960, 540), (960, 540), (960, 540), (960, 540), (960, 540), (960, 540), (960, 540), (960, 540), (960, 540), (960, 540), (960, 540), (960, 540), (960, 540), (960, 540), (960, 540), (960, 540), (960, 540), (960, 540), (960, 540), (960, 540), (960, 540), (960, 540), (960, 540), (960, 540), (960, 540), (960, 540), (960, 540), (960, 540), (960, 540), (960, 541), (953, 537), (939, 523), (849, 458), (781, 418), (693, 372), (598, 323)]",210.94047503009884,"[6, 9, 7, 8, 3, 1, 2, 4, 5]","(0, 0.25)",ENG003B,ENG,B,English,Tue Aug 07 11:20:51 2018,Mouse
1,0,2,0,87,4,4,1,729,559,170,133,0,500,200,8000,"[(960, 540), (960, 540), (960, 540), (960, 540), (960, 540), (960, 540), (960, 540), (960, 540), (960, 540), (960, 540), (960, 540), (960, 540), (960, 540), (960, 540), (960, 540), (960, 540), (960, 540), (960, 540), (960, 540), (960, 540), (960, 540), (960, 540), (960, 540), (960, 540), (960, 540), (960, 540), (960, 540), (960, 540), (960, 540), (960, 540), (960, 540), (960, 540), (960, 540), (960, 540), (960, 540), (960, 540), (960, 540), (960, 540), (960, 540), (960, 540), (960, 540), (960, 540), (960, 540), (960, 540), (960, 540), (960, 540), (960, 540), (960, 540), (960, 540), (960, 540), (960, 540), (960, 540), (960, 540), (960, 540), (960, 540), (960, 541), (960, 541), (960, 541), (960, 541), (960, 541), (960, 541), (960, 541), (960, 541), (960, 541), (960, 541), (960, 541), (961, 541), (966, 536), (974, 517), (985, 479), (1004, 423), (1071, 263), (1122, 170)]",293.6456226351019,"[6, 9, 7, 8, 3, 1, 2, 4, 5]","(0, 0.25)",ENG003B,ENG,B,English,Tue Aug 07 11:20:51 2018,Mouse
1,0,2,0,88,4,4,1,219,169,50,132,0,500,200,8000,"[(960, 540), (960, 540), (960, 540), (960, 540), (960, 540), (960, 540), (960, 540), (960, 540), (960, 540), (960, 540), (960, 540), (960, 540), (960, 540), (960, 540), (960, 540), (960, 540), (966, 539), (1002, 489), (1034, 447), (1078, 381), (1139, 313), (1289, 173)]",311.8748849163569,"[6, 9, 7, 8, 3, 1, 2, 4, 5]","(0, 0.25)",ENG003B,ENG,B,English,Tue Aug 07 11:20:51 2018,Mouse
1,0,2,0,89,2,3,0,-1108,1048,60,131,0,500,200,8000,"[(960, 540), (960, 540), (960, 540), (960, 540), (960, 540), (960, 540), (960, 540), (960, 540), (960, 540), (960, 540), (960, 540), (960, 540), (960, 540), (960, 540), (960, 540), (960, 540), (960, 540), (960, 540), (960, 540), (960, 540), (960, 540), (960, 540), (960, 540), (960, 540), (960, 540), (960, 540), (960, 540), (960, 540), (960, 540), (960, 540), (960, 540), (960, 540), (960, 540), (960, 540), (960, 540), (960, 540), (960, 540), (960, 540), (960, 540), (960, 540), (960, 540), (960, 540), (960, 540), (960, 540), (960, 540), (960, 540), (960, 540), (960, 540), (960, 540), (960, 540), (960, 540), (960, 540), (960, 540), (960, 540), (960, 540), (960, 540), (960, 540), (960, 540), (960, 540), (960, 540), (960, 540), (960, 540), (960, 540), (960, 540), (960, 540), (960, 540), (960, 540), (960, 540), (960, 540), (960, 540), (960, 540), (960, 540), (960, 540), (960, 540), (960, 540), (960, 540), (960, 540), (960, 540), (960, 540), (960, 540), (960, 540), (960, 540), (960, 540), (960, 540), (960, 540), (960, 540), (960, 540), (960, 540), (960, 540), (960, 540), (960, 540), (960, 540), (960, 540), (960, 540), (960, 540), (960, 540), (960, 540), (960, 540), (960, 540), (960, 540), (960, 540), (960, 540), (960, 540), (960, 540), (958, 542), (941, 544), (848, 548), (773, 548), (691, 548), (580, 548), (364, 539)]",180.0961337680319,"[6, 9, 7, 8, 3, 1, 2, 4, 5]","(0, 0.25)",ENG003B,ENG,B,English,Tue Aug 07 11:20:51 2018,Mouse
1,0,2,0,90,7,4,0,-269,219,50,132,0,500,200,8000,"[(960, 540), (960, 540), (960, 540), (960, 540), (960, 540), (960, 540), (960, 540), (960, 540), (960, 540), (960, 540), (960, 540), (960, 540), (960, 540), (960, 540), (960, 540), (960, 540), (960, 540), (960, 540), (960, 540), (960, 540), (960, 540), (960, 535), (977, 489), (998, 433), (1029, 352), (1068, 254), (1175, 36)]",293.10247978266096,"[6, 9, 7, 8, 3, 1, 2, 4, 5]","(0, 0.25)",ENG003B,ENG,B,English,Tue Aug 07 11:20:51 2018,Mouse
1,0,2,0,91,3,3,1,1020,960,60,133,0,500,200,8000,"[(960, 540), (960, 540), (960, 540), (960, 540), (960, 540), (960, 540), (960, 540), (960, 540), (960, 540), (960, 540), (960, 540), (960, 540), (960, 540), (960, 540), (960, 540), (960, 540), (960, 540), (960, 540), (960, 540), (960, 540), (960, 540), (960, 540), (960, 540), (960, 540), (960, 540), (960, 540), (960, 540), (960, 540), (960, 540), (960, 540), (960, 540), (960, 540), (960, 540), (960, 540), (960, 540), (960, 540), (960, 540), (960, 540), (960, 540), (960, 540), (960, 540), (960, 540), (960, 540), (960, 540), (960, 540), (960, 540), (960, 540), (960, 540), (960, 540), (960, 540), (960, 540), (960, 540), (960, 540), (960, 540), (960, 540), (960, 540), (960, 540), (960, 540), (960, 540), (960, 540), (960, 540), (960, 540), (960, 540), (960, 540), (960, 540), (960, 540), (960, 540), (960, 540), (960, 540), (960, 540), (960, 540), (960, 540), (960, 540), (960, 540), (960, 540), (960, 540), (960, 540), (960, 540), (960, 540), (960, 540), (960, 540), (960, 540), (960, 540), (960, 540), (960, 540), (960, 540), (960, 540), (960, 540), (960, 540), (960, 540), (960, 540), (960, 540), (960, 540), (960, 540), (960, 540), (955, 541), (943, 541), (909, 537), (779, 518), (700, 507), (610, 494), (510, 482)]",187.34429928950266,"[6, 9, 7, 8, 3, 1, 2, 4, 5]","(0, 0.25)",ENG003B,ENG,B,English,Tue Aug 07 11:20:51 2018,Mouse
1,0,2,0,92,8,3,0,-120,60,60,133,0,500,200,8000,"[(960, 540), (960, 540), (960, 540), (960, 540), (960, 540), (958, 541), (950, 541), (895, 541), (840, 541), (784, 541), (718, 541), (553, 527)]",181.82946433484733,"[6, 9, 7, 8, 3, 1, 2, 4, 5]","(0, 0.25)",ENG003B,ENG,B,English,Tue Aug 07 11:20:51 2018,Mouse
1,0,2,0,93,1,1,1,489,419,70,134,0,500,200,8000,"[(960, 540), (960, 540), (960, 540), (960, 540), (960, 540), (960, 540), (960, 540), (960, 540), (960, 540), (960, 540), (960, 540), (960, 540), (960, 540), (960, 540), (960, 540), (960, 540), (960, 540), (960, 540), (960, 540), (960, 540), (960, 540), (960, 540), (960, 540), (960, 540), (960, 540), (960, 540), (960, 540), (960, 540), (960, 540), (960, 540), (960, 540), (960, 540), (960, 540), (960, 540), (960, 540), (960, 540), (960, 540), (960, 540), (960, 540), (960, 540), (960, 540), (960, 539), (947, 515), (922, 486), (886, 449), (838, 407), (724, 323), (653, 288), (579, 245)]",217.74983835426738,"[6, 9, 7, 8, 3, 1, 2, 4, 5]","(0, 0.25)",ENG003B,ENG,B,English,Tue Aug 07 11:20:51 2018,Mouse
1,0,2,0,94,1,1,1,60,20,40,134,0,500,200,8000,"[(941, 512), (914, 478), (878, 436), (832, 392), (695, 291), (608, 243)]",220.1559996249193,"[6, 9, 7, 8, 3, 1, 2, 4, 5]","(0, 0.25)",ENG003B,ENG,B,English,Tue Aug 07 11:20:51 2018,Mouse
1,0,2,0,95,3,3,1,299,239,60,133,0,500,200,8000,"[(960, 540), (960, 540), (960, 540), (960, 540), (960, 540), (960, 540), (960, 540), (960, 540), (960, 540), (960, 540), (960, 540), (960, 540), (960, 540), (960, 540), (960, 540), (960, 540), (960, 540), (960, 540), (960, 540), (960, 540), (960, 540), (960, 540), (960, 540), (957, 540), (942, 540), (853, 540), (778, 540), (690, 540), (582, 540), (356, 540)]",180.0,"[6, 9, 7, 8, 3, 1, 2, 4, 5]","(0, 0.25)",ENG003B,ENG,B,English,Tue Aug 07 11:20:51 2018,Mouse
1,0,2,0,96,2,1,0,-317,247,70,132,0,500,200,8000,"[(960, 540), (960, 540), (960, 540), (960, 540), (960, 540), (960, 540), (960, 540), (960, 540), (960, 540), (960, 540), (960, 540), (960, 540), (960, 540), (960, 540), (960, 540), (960, 540), (960, 540), (960, 540), (960, 540), (960, 540), (960, 540), (960, 540), (960, 540), (960, 540), (957, 533), (946, 521), (894, 468), (859, 432), (823, 395), (785, 355), (707, 266), (672, 224)]",227.65419551340662,"[6, 9, 7, 8, 3, 1, 2, 4, 5]","(0, 0.25)",ENG003B,ENG,B,English,Tue Aug 07 11:20:51 2018,Mouse
1,0,2,0,97,7,1,0,-219,119,100,133,0,500,200,8000,"[(960, 540), (960, 540), (960, 540), (960, 540), (960, 540), (960, 540), (960, 540), (960, 540), (960, 540), (960, 540), (960, 540), (960, 539), (960, 539), (960, 539), (960, 537), (960, 531), (949, 517), (892, 460), (842, 429), (784, 388), (715, 349), (559, 251)]",215.78022667969046,"[6, 9, 7, 8, 3, 1, 2, 4, 5]","(0, 0.25)",ENG003B,ENG,B,English,Tue Aug 07 11:20:51 2018,Mouse
1,0,2,0,98,7,1,0,-239,189,50,134,0,500,200,8000,"[(960, 540), (960, 540), (960, 540), (960, 540), (960, 540), (960, 540), (960, 540), (960, 540), (960, 540), (960, 540), (960, 540), (960, 540), (960, 540), (960, 540), (960, 540), (960, 540), (960, 540), (960, 540), (958, 535), (949, 518), (930, 483), (901, 426), (790, 299), (698, 233)]",229.52188878145807,"[6, 9, 7, 8, 3, 1, 2, 4, 5]","(0, 0.25)",ENG003B,ENG,B,English,Tue Aug 07 11:20:51 2018,Mouse
1,0,2,0,99,9,9,1,720,280,440,135,0,500,200,8000,"[(960, 540), (960, 540), (960, 540), (960, 540), (960, 540), (960, 540), (960, 540), (960, 540), (960, 540), (960, 540), (960, 540), (960, 540), (960, 540), (960, 540), (960, 540), (960, 540), (960, 540), (960, 540), (960, 540), (960, 540), (960, 540), (960, 540), (960, 540), (960, 540), (960, 540), (960, 540), (960, 540), (961, 541), (961, 541), (961, 541), (961, 541), (961, 541), (961, 541), (961, 541), (961, 541), (961, 541), (961, 541), (961, 541), (961, 541), (961, 541), (961, 541), (961, 541), (961, 541), (961, 541), (961, 541), (961, 541), (961, 541), (961, 541), (961, 541), (961, 541), (961, 541), (962, 542), (962, 542), (962, 543), (963, 543), (964, 544), (964, 544), (969, 550), (973, 555), (978, 562), (985, 573), (1002, 597), (1010, 616), (1019, 636), (1032, 663), (1056, 718), (1065, 741), (1076, 768), (1090, 797), (1114, 857), (1126, 883), (1135, 907)]",64.50636215279773,"[6, 9, 7, 8, 3, 1, 2, 4, 5]","(0, 0.25)",ENG003B,ENG,B,English,Tue Aug 07 11:20:51 2018,Mouse
1,0,2,0,100,1,1,1,240,160,80,135,0,500,200,8000,"[(960, 540), (960, 540), (960, 540), (960, 540), (960, 540), (960, 540), (960, 540), (960, 540), (960, 540), (960, 540), (960, 540), (960, 540), (960, 540), (960, 540), (960, 540), (958, 537), (949, 516), (936, 494), (918, 469), (887, 432), (801, 357), (747, 309), (694, 271), (635, 223)]",224.2860708511144,"[6, 9, 7, 8, 3, 1, 2, 4, 5]","(0, 0.25)",ENG003B,ENG,B,English,Tue Aug 07 11:20:51 2018,Mouse
1,0,2,0,101,9,9,1,199,119,80,134,0,500,200,8000,"[(960, 540), (960, 540), (960, 540), (960, 540), (960, 540), (960, 540), (960, 540), (960, 540), (960, 540), (960, 540), (960, 540), (965, 549), (972, 558), (982, 573), (998, 596), (1050, 668), (1076, 715), (1103, 764), (1131, 808), (1178, 892)]",58.22931401282411,"[6, 9, 7, 8, 3, 1, 2, 4, 5]","(0, 0.25)",ENG003B,ENG,B,English,Tue Aug 07 11:20:51 2018,Mouse
1,0,2,0,102,5,6,0,-579,309,270,133,0,500,200,8000,"[(960, 540), (960, 540), (960, 540), (960, 540), (960, 540), (960, 540), (960, 540), (960, 540), (960, 540), (960, 540), (960, 540), (960, 540), (960, 540), (960, 540), (960, 540), (960, 540), (960, 540), (960, 540), (960, 540), (960, 540), (960, 540), (960, 540), (960, 540), (960, 540), (960, 540), (960, 540), (960, 540), (960, 540), (960, 540), (960, 540), (963, 540), (964, 540), (965, 540), (968, 539), (968, 539), (968, 539), (968, 539), (968, 539), (970, 539), (970, 539), (970, 539), (971, 539), (975, 540), (978, 542), (980, 544), (983, 546), (991, 551), (997, 554), (1007, 558), (1024, 565), (1062, 580), (1090, 588), (1121, 597), (1154, 606), (1235, 630), (1281, 640), (1328, 653), (1378, 669)]",17.15087667159551,"[6, 9, 7, 8, 3, 1, 2, 4, 5]","(0, 0.25)",ENG003B,ENG,B,English,Tue Aug 07 11:20:51 2018,Mouse
1,0,2,0,103,6,6,1,509,439,70,134,0,500,200,8000,"[(960, 540), (960, 540), (960, 540), (960, 540), (960, 540), (960, 540), (960, 540), (960, 540), (960, 540), (960, 540), (960, 540), (960, 540), (960, 540), (960, 540), (960, 540), (960, 540), (960, 540), (960, 540), (960, 540), (960, 540), (960, 540), (960, 540), (960, 540), (960, 540), (960, 540), (960, 540), (960, 540), (960, 540), (960, 540), (960, 540), (960, 540), (960, 540), (960, 540), (960, 540), (960, 540), (960, 540), (960, 540), (960, 540), (960, 540), (960, 540), (960, 540), (960, 540), (960, 540), (973, 546), (986, 551), (1009, 561), (1048, 579), (1174, 625), (1241, 647), (1313, 669), (1387, 686)]",18.876603407175118,"[6, 9, 7, 8, 3, 1, 2, 4, 5]","(0, 0.25)",ENG003B,ENG,B,English,Tue Aug 07 11:20:51 2018,Mouse
1,0,2,0,104,1,1,1,279,229,50,134,0,500,200,8000,"[(960, 540), (960, 540), (960, 540), (960, 540), (960, 540), (960, 540), (960, 540), (960, 540), (960, 540), (960, 540), (960, 540), (960, 540), (960, 540), (960, 540), (960, 540), (960, 540), (960, 540), (960, 540), (960, 540), (960, 540), (960, 540), (960, 540), (954, 535), (914, 496), (879, 463), (831, 424), (767, 380), (614, 294)]",215.41216697518135,"[6, 9, 7, 8, 3, 1, 2, 4, 5]","(0, 0.25)",ENG003B,ENG,B,English,Tue Aug 07 11:20:51 2018,Mouse
