NativeLangNumber,LanuageNumber,SessionNumber,Block,TrialNum,ConditionNumber,Response,Accuracy,RT,MovementOnsetTime,TimeInMotion,SignalContrast,SignalContrastNumber,StimDisplayTime,MaskTime,MaxResponseTime,MousePositionXY,MouseAngle,WheelOrder,NoiseMuSigma,ParticipantID,LanuageTested,SessionTested,NativeLanuage,Date,ResponseDevice
1,0,3,0,1,5,5,1,1122,832,290,153,0,500,200,8000,"[(960, 540), (960, 540), (960, 540), (960, 540), (960, 540), (960, 540), (960, 540), (960, 540), (960, 540), (960, 540), (960, 540), (960, 540), (960, 540), (960, 540), (960, 540), (960, 540), (960, 540), (960, 540), (960, 540), (960, 540), (960, 540), (960, 540), (960, 540), (960, 540), (960, 540), (960, 540), (960, 540), (960, 540), (960, 540), (960, 540), (960, 540), (960, 540), (960, 540), (960, 540), (960, 540), (960, 540), (960, 540), (960, 540), (960, 540), (960, 540), (960, 540), (960, 540), (960, 540), (960, 540), (960, 540), (960, 540), (960, 540), (960, 540), (960, 540), (960, 540), (960, 540), (960, 540), (960, 540), (960, 540), (960, 540), (960, 540), (960, 540), (960, 540), (960, 540), (960, 540), (960, 540), (960, 540), (960, 540), (960, 540), (960, 540), (960, 540), (960, 540), (960, 540), (960, 540), (960, 540), (960, 540), (960, 540), (960, 540), (960, 540), (960, 540), (960, 540), (960, 540), (960, 540), (960, 540), (960, 540), (960, 540), (960, 540), (960, 540), (961, 541), (962, 543), (964, 546), (965, 548), (967, 552), (973, 563), (976, 567), (978, 571), (981, 576), (983, 581), (985, 583), (985, 585), (985, 588), (985, 595), (985, 599), (984, 605), (982, 611), (975, 627), (972, 634), (969, 642), (967, 650), (963, 665), (959, 676), (957, 687), (952, 707), (934, 773), (925, 814), (915, 858), (908, 899), (896, 996)]",97.9893267663969,"[4, 3, 5, 9, 7, 6, 2, 1, 8]","(0, 0.25)",ENG009C,ENG,C,English,Fri Aug 31 09:56:13 2018,Mouse
1,0,3,0,2,5,5,1,311,11,300,153,0,500,200,8000,"[(960, 540), (960, 542), (960, 546), (959, 553), (959, 556), (959, 559), (959, 561), (959, 574), (959, 582), (959, 591), (959, 600), (964, 621), (967, 632), (967, 643), (967, 656), (967, 686), (967, 701), (965, 714), (963, 725), (963, 744), (963, 751), (964, 759), (965, 766), (966, 780), (966, 790), (966, 795), (966, 801), (958, 828), (949, 851), (939, 877), (925, 906), (915, 947)]",96.30928787646178,"[4, 3, 5, 9, 7, 6, 2, 1, 8]","(0, 0.25)",ENG009C,ENG,C,English,Fri Aug 31 09:56:13 2018,Mouse
1,0,3,0,3,2,2,1,560,310,250,152,0,500,200,8000,"[(960, 540), (960, 540), (960, 540), (960, 540), (960, 540), (960, 540), (960, 540), (960, 540), (960, 540), (960, 540), (960, 540), (960, 540), (960, 540), (960, 540), (960, 540), (960, 540), (960, 540), (960, 540), (960, 540), (960, 540), (960, 540), (960, 540), (960, 540), (960, 540), (960, 540), (960, 540), (960, 540), (960, 540), (960, 540), (960, 540), (960, 539), (960, 537), (960, 535), (960, 532), (960, 523), (960, 514), (960, 509), (960, 503), (960, 482), (951, 455), (940, 416), (925, 379), (901, 322), (895, 299), (890, 280), (886, 266), (878, 241), (875, 228), (870, 217), (869, 209), (867, 196), (867, 189), (867, 182), (867, 175), (865, 159), (864, 149)]",256.2053638087859,"[4, 3, 5, 9, 7, 6, 2, 1, 8]","(0, 0.25)",ENG009C,ENG,C,English,Fri Aug 31 09:56:13 2018,Mouse
1,0,3,0,4,6,6,1,649,419,230,151,0,500,200,8000,"[(960, 540), (960, 540), (960, 540), (960, 540), (960, 540), (960, 540), (960, 540), (960, 540), (960, 540), (960, 540), (960, 540), (960, 540), (960, 540), (960, 540), (960, 540), (960, 540), (960, 540), (960, 540), (960, 540), (960, 540), (960, 540), (960, 540), (960, 540), (960, 540), (960, 540), (960, 540), (960, 540), (960, 540), (960, 540), (960, 540), (960, 540), (960, 540), (960, 540), (960, 540), (960, 540), (960, 540), (960, 540), (960, 540), (960, 540), (960, 540), (960, 540), (953, 536), (948, 533), (943, 529), (937, 524), (928, 515), (925, 508), (923, 502), (916, 491), (905, 473), (900, 466), (892, 455), (885, 447), (866, 426), (856, 415), (844, 406), (829, 393), (806, 376), (788, 364), (774, 353), (755, 343), (716, 319), (692, 305), (661, 285), (628, 261)]",220.0423990653756,"[4, 3, 5, 9, 7, 6, 2, 1, 8]","(0, 0.25)",ENG009C,ENG,C,English,Fri Aug 31 09:56:13 2018,Mouse
1,0,3,0,5,8,8,1,969,829,140,150,0,500,200,8000,"[(960, 540), (960, 540), (960, 540), (960, 540), (960, 540), (960, 540), (960, 540), (960, 540), (960, 540), (960, 540), (960, 540), (960, 540), (960, 540), (960, 540), (960, 540), (960, 540), (960, 540), (960, 540), (960, 540), (960, 540), (960, 540), (960, 540), (960, 540), (960, 540), (960, 540), (960, 540), (960, 540), (960, 540), (960, 540), (960, 540), (960, 540), (960, 540), (960, 540), (960, 540), (960, 540), (960, 540), (960, 540), (960, 540), (960, 540), (960, 540), (960, 540), (960, 540), (960, 540), (960, 540), (960, 540), (960, 540), (960, 540), (960, 540), (960, 540), (960, 540), (960, 540), (960, 540), (960, 540), (960, 540), (960, 540), (960, 540), (960, 540), (960, 540), (960, 540), (960, 540), (960, 540), (960, 540), (960, 540), (960, 540), (960, 540), (960, 540), (960, 540), (960, 540), (960, 540), (960, 540), (960, 540), (960, 540), (960, 540), (960, 540), (960, 540), (960, 540), (960, 540), (960, 540), (960, 540), (960, 540), (960, 540), (960, 540), (967, 540), (985, 535), (998, 531), (1016, 526), (1035, 522), (1088, 505), (1116, 497), (1141, 489), (1168, 478), (1214, 459), (1234, 452), (1259, 446), (1284, 438), (1339, 416), (1361, 410)]",342.03784882838954,"[4, 3, 5, 9, 7, 6, 2, 1, 8]","(0, 0.25)",ENG009C,ENG,C,English,Fri Aug 31 09:56:13 2018,Mouse
1,0,3,0,6,3,3,1,518,318,200,149,0,500,200,8000,"[(960, 540), (960, 540), (960, 540), (960, 540), (960, 540), (960, 540), (960, 540), (960, 540), (960, 540), (960, 540), (960, 540), (960, 540), (960, 540), (960, 540), (960, 540), (960, 540), (960, 540), (960, 540), (960, 540), (960, 540), (960, 540), (960, 540), (960, 540), (960, 540), (960, 540), (960, 540), (960, 540), (960, 540), (960, 540), (960, 540), (960, 540), (959, 540), (959, 540), (957, 544), (955, 550), (954, 556), (953, 563), (953, 583), (959, 596), (965, 614), (975, 633), (995, 672), (1008, 699), (1028, 734), (1047, 767), (1082, 825), (1094, 846), (1104, 861), (1110, 873), (1123, 891), (1129, 900), (1133, 905)]",64.64032999812544,"[4, 3, 5, 9, 7, 6, 2, 1, 8]","(0, 0.25)",ENG009C,ENG,C,English,Fri Aug 31 09:56:13 2018,Mouse
1,0,3,0,7,4,4,1,489,369,120,148,0,500,200,8000,"[(960, 540), (960, 540), (960, 540), (960, 540), (960, 540), (960, 540), (960, 540), (960, 540), (960, 540), (960, 540), (960, 540), (960, 540), (960, 540), (960, 540), (960, 540), (960, 540), (960, 540), (960, 540), (960, 540), (960, 540), (960, 540), (960, 540), (960, 540), (960, 540), (960, 540), (960, 540), (960, 540), (960, 540), (960, 540), (960, 540), (960, 540), (960, 540), (960, 540), (960, 540), (960, 540), (960, 540), (963, 541), (974, 547), (987, 551), (1007, 558), (1058, 574), (1086, 584), (1118, 600), (1147, 612), (1194, 632), (1223, 644), (1252, 656), (1281, 668), (1333, 689)]",21.774920454714763,"[4, 3, 5, 9, 7, 6, 2, 1, 8]","(0, 0.25)",ENG009C,ENG,C,English,Fri Aug 31 09:56:13 2018,Mouse
1,0,3,0,8,2,2,1,390,200,190,147,0,500,200,8000,"[(960, 540), (960, 540), (960, 540), (960, 540), (960, 540), (960, 540), (960, 540), (960, 540), (960, 540), (960, 540), (960, 540), (960, 540), (960, 540), (960, 540), (960, 540), (960, 540), (960, 540), (960, 540), (960, 540), (959, 537), (959, 533), (959, 526), (963, 511), (964, 505), (966, 498), (966, 490), (966, 465), (963, 443), (958, 417), (957, 396), (952, 350), (952, 316), (952, 274), (952, 249), (944, 199), (942, 185), (941, 171), (939, 159), (937, 140)]",266.70911631393267,"[4, 3, 5, 9, 7, 6, 2, 1, 8]","(0, 0.25)",ENG009C,ENG,C,English,Fri Aug 31 09:56:13 2018,Mouse
1,0,3,0,9,9,9,1,789,409,380,146,0,500,200,8000,"[(960, 540), (960, 540), (960, 540), (960, 540), (960, 540), (960, 540), (960, 540), (960, 540), (960, 540), (960, 540), (960, 540), (960, 540), (960, 540), (960, 540), (960, 540), (960, 540), (960, 540), (960, 540), (960, 540), (960, 540), (960, 540), (960, 540), (960, 540), (960, 540), (960, 540), (960, 540), (960, 540), (960, 540), (960, 540), (960, 540), (960, 540), (960, 540), (960, 540), (960, 540), (960, 540), (960, 540), (960, 540), (960, 540), (960, 540), (960, 540), (956, 540), (955, 540), (951, 544), (947, 547), (944, 551), (937, 557), (915, 576), (900, 588), (885, 602), (875, 612), (856, 635), (846, 646), (833, 664), (825, 674), (797, 710), (786, 720), (776, 730), (767, 739), (750, 755), (745, 760), (740, 766), (738, 769), (733, 774), (730, 777), (728, 779), (724, 783), (717, 789), (713, 793), (711, 795), (709, 797), (705, 802), (702, 804), (701, 806), (698, 808), (695, 811), (692, 814), (690, 817), (686, 822), (673, 837)]",134.01900375587013,"[4, 3, 5, 9, 7, 6, 2, 1, 8]","(0, 0.25)",ENG009C,ENG,C,English,Fri Aug 31 09:56:13 2018,Mouse
1,0,3,0,10,6,6,1,750,470,280,145,0,500,200,8000,"[(960, 540), (960, 540), (960, 540), (960, 540), (960, 540), (960, 540), (960, 540), (960, 540), (960, 540), (960, 540), (960, 540), (960, 540), (960, 540), (960, 540), (960, 540), (960, 540), (960, 540), (960, 540), (960, 540), (960, 540), (960, 540), (960, 540), (960, 540), (960, 540), (960, 540), (960, 540), (960, 540), (960, 540), (960, 540), (960, 540), (960, 540), (960, 540), (960, 540), (960, 540), (960, 540), (960, 540), (960, 540), (960, 540), (960, 540), (960, 540), (960, 540), (960, 540), (960, 540), (960, 540), (960, 540), (960, 540), (960, 538), (952, 534), (944, 528), (932, 523), (910, 511), (898, 506), (889, 500), (883, 496), (874, 490), (871, 490), (870, 488), (869, 488), (869, 488), (869, 487), (868, 487), (867, 487), (865, 485), (862, 483), (858, 479), (852, 474), (835, 462), (825, 453), (811, 440), (795, 426), (757, 384), (733, 353), (709, 319), (681, 280), (628, 207)]",225.08615900199345,"[4, 3, 5, 9, 7, 6, 2, 1, 8]","(0, 0.25)",ENG009C,ENG,C,English,Fri Aug 31 09:56:13 2018,Mouse
1,0,3,0,11,6,6,1,270,70,200,144,0,500,200,8000,"[(960, 540), (960, 540), (960, 540), (960, 540), (960, 540), (960, 540), (959, 540), (959, 540), (959, 540), (959, 540), (957, 540), (955, 540), (952, 540), (949, 540), (943, 539), (940, 538), (935, 535), (931, 533), (917, 528), (906, 524), (886, 519), (853, 510), (781, 488), (744, 473), (703, 454), (665, 433), (581, 386)]",202.1135032467536,"[4, 3, 5, 9, 7, 6, 2, 1, 8]","(0, 0.25)",ENG009C,ENG,C,English,Fri Aug 31 09:56:13 2018,Mouse
1,0,3,0,12,5,5,1,700,480,220,143,0,500,200,8000,"[(960, 540), (960, 540), (960, 540), (960, 540), (960, 540), (960, 540), (960, 540), (960, 540), (960, 540), (960, 540), (960, 540), (960, 540), (960, 540), (960, 540), (960, 540), (960, 540), (960, 540), (960, 540), (960, 540), (960, 540), (960, 540), (960, 540), (960, 540), (960, 540), (960, 540), (960, 540), (960, 540), (960, 540), (960, 540), (960, 540), (960, 540), (960, 540), (960, 540), (960, 540), (960, 540), (960, 540), (960, 540), (960, 540), (960, 540), (960, 540), (960, 540), (960, 540), (960, 540), (960, 540), (960, 540), (960, 540), (960, 540), (959, 540), (959, 540), (959, 540), (959, 540), (959, 540), (959, 540), (959, 540), (959, 540), (959, 540), (959, 540), (958, 545), (954, 568), (954, 581), (954, 598), (954, 614), (956, 669), (956, 699), (956, 725), (956, 755), (956, 819), (958, 861), (963, 904), (967, 942)]",89.0024131150965,"[4, 3, 5, 9, 7, 6, 2, 1, 8]","(0, 0.25)",ENG009C,ENG,C,English,Fri Aug 31 09:56:13 2018,Mouse
1,0,3,0,13,7,7,1,360,100,260,142,0,500,200,8000,"[(960, 540), (960, 540), (960, 540), (960, 540), (960, 540), (960, 540), (960, 540), (960, 540), (960, 540), (959, 540), (959, 540), (956, 540), (953, 540), (952, 539), (950, 539), (944, 537), (941, 536), (939, 536), (937, 536), (933, 535), (931, 535), (930, 535), (928, 534), (924, 534), (921, 534), (919, 534), (913, 534), (887, 531), (868, 531), (842, 529), (808, 528), (716, 522), (668, 522), (620, 518), (574, 511), (491, 501)]",184.75353126564792,"[4, 3, 5, 9, 7, 6, 2, 1, 8]","(0, 0.25)",ENG009C,ENG,C,English,Fri Aug 31 09:56:13 2018,Mouse
1,0,3,0,14,4,4,1,597,387,210,141,0,500,200,8000,"[(960, 540), (960, 540), (960, 540), (960, 540), (960, 540), (960, 540), (960, 540), (960, 540), (960, 540), (960, 540), (960, 540), (960, 540), (960, 540), (960, 540), (960, 540), (960, 540), (960, 540), (960, 540), (960, 540), (960, 540), (960, 540), (960, 540), (960, 540), (960, 540), (960, 540), (960, 540), (960, 540), (960, 540), (960, 540), (960, 540), (960, 540), (960, 540), (960, 540), (960, 540), (960, 540), (960, 540), (960, 540), (960, 540), (960, 541), (960, 541), (960, 541), (960, 541), (960, 542), (962, 544), (962, 544), (964, 546), (970, 548), (975, 550), (980, 552), (990, 555), (1021, 567), (1047, 579), (1078, 591), (1106, 597), (1172, 617), (1203, 625), (1231, 633), (1264, 642), (1323, 659), (1356, 669)]",18.043412005331277,"[4, 3, 5, 9, 7, 6, 2, 1, 8]","(0, 0.25)",ENG009C,ENG,C,English,Fri Aug 31 09:56:13 2018,Mouse
1,0,3,0,15,1,1,1,621,301,320,140,0,500,200,8000,"[(960, 540), (960, 540), (960, 540), (960, 540), (960, 540), (960, 540), (960, 540), (960, 540), (960, 540), (960, 540), (960, 540), (960, 540), (960, 540), (960, 540), (960, 540), (960, 540), (960, 540), (960, 540), (960, 540), (960, 540), (960, 540), (960, 540), (960, 540), (960, 540), (960, 540), (960, 540), (960, 540), (960, 540), (960, 540), (960, 540), (961, 539), (963, 536), (965, 535), (967, 530), (972, 522), (974, 516), (977, 508), (983, 496), (989, 479), (993, 473), (998, 463), (1003, 452), (1012, 432), (1016, 424), (1022, 415), (1027, 407), (1038, 385), (1042, 373), (1048, 360), (1051, 350), (1062, 329), (1071, 315), (1078, 304), (1085, 289), (1098, 266), (1105, 255), (1111, 245), (1115, 235), (1126, 213), (1132, 203), (1137, 196), (1143, 186), (1152, 172)]",297.5528115767178,"[4, 3, 5, 9, 7, 6, 2, 1, 8]","(0, 0.25)",ENG009C,ENG,C,English,Fri Aug 31 09:56:13 2018,Mouse
1,0,3,0,16,5,5,1,589,309,280,139,0,500,200,8000,"[(960, 540), (960, 540), (960, 540), (960, 540), (960, 540), (960, 540), (960, 540), (960, 540), (960, 540), (960, 540), (960, 540), (960, 540), (960, 540), (960, 540), (960, 540), (960, 540), (960, 540), (960, 540), (960, 540), (960, 540), (960, 540), (960, 540), (960, 540), (960, 540), (960, 540), (960, 540), (960, 540), (960, 540), (960, 540), (960, 540), (958, 542), (956, 542), (955, 544), (952, 546), (950, 551), (947, 555), (945, 564), (941, 574), (935, 598), (931, 612), (930, 623), (930, 638), (924, 669), (923, 688), (919, 710), (916, 731), (908, 769), (905, 792), (903, 815), (903, 838), (903, 877), (903, 891), (903, 902), (905, 909), (906, 919), (908, 923), (908, 926), (908, 930), (908, 939)]",97.42526891842486,"[4, 3, 5, 9, 7, 6, 2, 1, 8]","(0, 0.25)",ENG009C,ENG,C,English,Fri Aug 31 09:56:13 2018,Mouse
1,0,3,0,17,9,9,1,750,140,610,138,0,500,200,8000,"[(960, 540), (960, 540), (960, 540), (960, 540), (960, 540), (960, 540), (960, 540), (960, 540), (960, 540), (960, 540), (960, 540), (960, 540), (960, 540), (960, 538), (962, 538), (962, 538), (962, 538), (962, 538), (962, 537), (962, 537), (963, 536), (964, 536), (966, 535), (966, 535), (967, 534), (967, 534), (967, 534), (967, 534), (967, 534), (967, 534), (967, 534), (967, 534), (967, 534), (967, 534), (967, 534), (967, 534), (967, 534), (967, 534), (967, 534), (967, 534), (967, 534), (967, 534), (967, 534), (967, 534), (967, 534), (967, 534), (967, 534), (967, 534), (967, 534), (967, 534), (967, 534), (967, 534), (967, 534), (967, 534), (967, 534), (967, 534), (967, 534), (967, 534), (967, 534), (967, 534), (967, 534), (967, 534), (967, 534), (964, 534), (962, 536), (957, 538), (946, 546), (939, 554), (921, 565), (891, 584), (824, 629), (786, 654), (755, 672), (720, 692), (564, 773)]",149.5281324388186,"[4, 3, 5, 9, 7, 6, 2, 1, 8]","(0, 0.25)",ENG009C,ENG,C,English,Fri Aug 31 09:56:13 2018,Mouse
1,0,3,0,18,9,9,1,300,100,200,137,0,500,200,8000,"[(960, 540), (960, 540), (960, 540), (960, 540), (960, 540), (960, 540), (960, 540), (960, 540), (960, 540), (959, 540), (959, 540), (958, 540), (958, 540), (956, 541), (951, 545), (949, 547), (944, 552), (939, 557), (926, 569), (917, 578), (908, 588), (898, 602), (876, 633), (864, 652), (839, 679), (804, 714), (735, 775), (710, 794), (686, 814), (670, 832)]",134.80310806192807,"[4, 3, 5, 9, 7, 6, 2, 1, 8]","(0, 0.25)",ENG009C,ENG,C,English,Fri Aug 31 09:56:13 2018,Mouse
1,0,3,0,19,3,3,1,540,290,250,136,0,500,200,8000,"[(960, 540), (960, 540), (960, 540), (960, 540), (960, 540), (960, 540), (960, 540), (960, 540), (960, 540), (960, 540), (960, 540), (960, 540), (960, 540), (960, 540), (960, 540), (960, 540), (960, 540), (960, 540), (960, 540), (960, 540), (960, 540), (960, 540), (960, 540), (960, 540), (960, 540), (960, 540), (960, 540), (960, 540), (960, 541), (962, 547), (964, 555), (972, 575), (979, 588), (988, 604), (998, 623), (1023, 664), (1032, 680), (1042, 696), (1051, 713), (1067, 734), (1073, 745), (1078, 757), (1083, 770), (1094, 799), (1099, 811), (1105, 823), (1110, 834), (1116, 848), (1118, 854), (1121, 859), (1123, 865), (1130, 881), (1137, 889), (1143, 898)]",62.92509994905056,"[4, 3, 5, 9, 7, 6, 2, 1, 8]","(0, 0.25)",ENG009C,ENG,C,English,Fri Aug 31 09:56:13 2018,Mouse
1,0,3,0,20,5,9,0,-868,268,600,135,0,500,200,8000,"[(960, 540), (960, 540), (960, 540), (960, 540), (960, 540), (960, 540), (960, 540), (960, 540), (960, 540), (960, 540), (960, 540), (960, 540), (960, 540), (960, 540), (960, 540), (960, 540), (960, 540), (960, 540), (960, 540), (960, 540), (960, 540), (960, 540), (960, 540), (960, 540), (960, 540), (960, 540), (959, 538), (958, 537), (957, 534), (957, 533), (956, 533), (956, 531), (956, 531), (956, 531), (956, 531), (956, 531), (956, 531), (956, 531), (956, 531), (956, 531), (956, 531), (956, 531), (956, 531), (956, 531), (956, 531), (956, 531), (956, 531), (956, 531), (956, 531), (956, 531), (956, 531), (956, 531), (956, 531), (955, 531), (952, 531), (947, 532), (930, 538), (922, 543), (911, 551), (901, 559), (867, 585), (842, 601), (817, 618), (791, 639), (751, 668), (736, 680), (726, 688), (716, 695), (701, 709), (697, 713), (693, 719), (689, 725), (684, 733), (682, 738), (680, 742), (678, 745), (675, 751), (672, 753), (670, 757), (665, 763), (656, 775), (654, 779), (651, 782), (650, 785), (647, 788), (647, 788), (646, 789)]",141.58580737879606,"[4, 3, 5, 9, 7, 6, 2, 1, 8]","(0, 0.25)",ENG009C,ENG,C,English,Fri Aug 31 09:56:13 2018,Mouse
1,0,3,0,21,1,1,1,370,50,320,136,0,500,200,8000,"[(960, 540), (960, 540), (960, 540), (960, 540), (962, 538), (963, 538), (964, 537), (964, 535), (966, 532), (967, 532), (967, 532), (968, 530), (969, 528), (970, 528), (970, 527), (970, 527), (971, 525), (971, 525), (972, 524), (975, 521), (980, 517), (983, 513), (988, 508), (991, 502), (1000, 489), (1006, 482), (1010, 474), (1016, 467), (1027, 452), (1035, 440), (1045, 427), (1053, 408), (1085, 354), (1104, 319), (1127, 278), (1151, 237), (1190, 166)]",301.5904041329059,"[4, 3, 5, 9, 7, 6, 2, 1, 8]","(0, 0.25)",ENG009C,ENG,C,English,Fri Aug 31 09:56:13 2018,Mouse
1,0,3,0,22,2,2,1,410,310,100,136,0,500,200,8000,"[(960, 540), (960, 540), (960, 540), (960, 540), (960, 540), (960, 540), (960, 540), (960, 540), (960, 540), (960, 540), (960, 540), (960, 540), (960, 540), (960, 540), (960, 540), (960, 540), (960, 540), (960, 540), (960, 540), (960, 540), (960, 540), (960, 540), (960, 540), (960, 540), (960, 540), (960, 540), (960, 540), (960, 540), (960, 540), (960, 540), (960, 537), (960, 531), (958, 512), (953, 482), (944, 405), (944, 352), (944, 313), (944, 280), (944, 205), (944, 163), (944, 121)]",267.81315686428434,"[4, 3, 5, 9, 7, 6, 2, 1, 8]","(0, 0.25)",ENG009C,ENG,C,English,Fri Aug 31 09:56:13 2018,Mouse
1,0,3,0,23,1,1,1,420,290,130,135,0,500,200,8000,"[(960, 540), (960, 540), (960, 540), (960, 540), (960, 540), (960, 540), (960, 540), (960, 540), (960, 540), (960, 540), (960, 540), (960, 540), (960, 540), (960, 540), (960, 540), (960, 540), (960, 540), (960, 540), (960, 540), (960, 540), (960, 540), (960, 540), (960, 540), (960, 540), (960, 540), (960, 540), (960, 540), (960, 540), (961, 539), (966, 533), (971, 526), (978, 519), (1000, 492), (1013, 477), (1027, 460), (1047, 439), (1086, 394), (1106, 366), (1123, 336), (1144, 298), (1180, 220), (1190, 192)]",303.4614951500686,"[4, 3, 5, 9, 7, 6, 2, 1, 8]","(0, 0.25)",ENG009C,ENG,C,English,Fri Aug 31 09:56:13 2018,Mouse
1,0,3,0,24,7,7,1,619,259,360,134,0,500,200,8000,"[(960, 540), (960, 540), (960, 540), (960, 540), (960, 540), (960, 540), (960, 540), (960, 540), (960, 540), (960, 540), (960, 540), (960, 540), (960, 540), (960, 540), (960, 540), (960, 540), (960, 540), (960, 540), (960, 540), (960, 540), (960, 540), (960, 540), (960, 540), (960, 540), (960, 540), (959, 540), (959, 540), (959, 540), (959, 540), (956, 540), (955, 541), (953, 541), (950, 542), (948, 545), (947, 545), (947, 545), (945, 546), (943, 547), (941, 547), (938, 547), (935, 548), (924, 549), (918, 550), (912, 550), (905, 550), (894, 550), (889, 550), (879, 550), (868, 550), (838, 550), (818, 550), (790, 550), (765, 550), (707, 555), (672, 560), (643, 565), (619, 569), (595, 572), (586, 573), (577, 575), (571, 576), (557, 578)]",174.61334710027404,"[4, 3, 5, 9, 7, 6, 2, 1, 8]","(0, 0.25)",ENG009C,ENG,C,English,Fri Aug 31 09:56:13 2018,Mouse
1,0,3,0,25,7,7,1,1220,400,820,133,0,500,200,8000,"[(960, 540), (960, 540), (960, 540), (960, 540), (960, 540), (960, 540), (960, 540), (960, 540), (960, 540), (960, 540), (960, 540), (960, 540), (960, 540), (960, 540), (960, 540), (960, 540), (960, 540), (960, 540), (960, 540), (960, 540), (960, 540), (960, 540), (960, 540), (960, 540), (960, 540), (960, 540), (960, 540), (960, 540), (960, 540), (960, 540), (960, 540), (960, 540), (960, 540), (960, 540), (960, 540), (960, 540), (960, 540), (960, 540), (960, 540), (959, 540), (956, 540), (954, 541), (946, 544), (941, 546), (934, 548), (929, 549), (918, 551), (912, 551), (909, 552), (908, 552), (907, 552), (907, 552), (907, 552), (906, 553), (906, 553), (906, 553), (906, 553), (906, 553), (906, 553), (906, 553), (906, 553), (906, 553), (906, 553), (906, 553), (906, 553), (906, 553), (906, 553), (906, 553), (906, 553), (906, 553), (905, 553), (905, 553), (905, 553), (905, 553), (905, 553), (905, 553), (905, 553), (905, 553), (905, 553), (905, 553), (905, 553), (905, 553), (905, 553), (905, 553), (905, 553), (905, 553), (905, 553), (905, 553), (905, 553), (905, 553), (905, 553), (905, 553), (905, 553), (905, 553), (905, 553), (905, 553), (905, 553), (905, 553), (905, 553), (905, 553), (905, 553), (905, 553), (905, 553), (905, 553), (905, 553), (905, 553), (901, 553), (892, 553), (885, 555), (874, 556), (851, 561), (835, 563), (820, 563), (801, 564), (751, 572), (729, 576), (706, 579), (681, 584), (622, 587), (590, 590), (568, 590), (550, 592)]",172.77181009002217,"[4, 3, 5, 9, 7, 6, 2, 1, 8]","(0, 0.25)",ENG009C,ENG,C,English,Fri Aug 31 09:56:13 2018,Mouse
1,0,3,0,26,3,4,0,-1079,569,510,132,0,500,200,8000,"[(960, 540), (960, 540), (960, 540), (960, 540), (960, 540), (960, 540), (960, 540), (960, 540), (960, 540), (960, 540), (960, 540), (960, 540), (960, 540), (960, 540), (960, 540), (960, 540), (960, 540), (960, 540), (960, 540), (960, 540), (960, 540), (960, 540), (960, 540), (960, 540), (960, 540), (960, 540), (960, 540), (960, 540), (960, 540), (960, 540), (960, 540), (960, 540), (960, 540), (960, 540), (960, 540), (960, 540), (960, 540), (960, 540), (960, 540), (960, 540), (960, 540), (960, 540), (960, 540), (960, 540), (960, 540), (960, 540), (960, 540), (960, 540), (960, 540), (960, 540), (960, 540), (960, 540), (960, 540), (960, 540), (960, 540), (960, 540), (962, 542), (968, 545), (974, 547), (990, 553), (1000, 556), (1010, 561), (1017, 563), (1033, 567), (1043, 570), (1045, 571), (1047, 571), (1049, 572), (1049, 572), (1049, 572), (1049, 572), (1049, 572), (1049, 572), (1049, 572), (1049, 572), (1049, 572), (1049, 572), (1049, 572), (1049, 572), (1049, 572), (1049, 572), (1049, 572), (1049, 572), (1049, 572), (1049, 572), (1049, 572), (1049, 572), (1049, 572), (1049, 572), (1049, 572), (1049, 572), (1049, 572), (1049, 572), (1049, 572), (1049, 572), (1049, 572), (1049, 572), (1051, 572), (1058, 572), (1077, 578), (1095, 583), (1120, 587), (1145, 595), (1211, 613), (1247, 622), (1286, 633), (1322, 644), (1377, 659)]",15.927247095855757,"[4, 3, 5, 9, 7, 6, 2, 1, 8]","(0, 0.25)",ENG009C,ENG,C,English,Fri Aug 31 09:56:13 2018,Mouse
1,0,3,0,27,6,8,0,-850,620,230,133,0,500,200,8000,"[(960, 540), (960, 540), (960, 540), (960, 540), (960, 540), (960, 540), (960, 540), (960, 540), (960, 540), (960, 540), (960, 540), (960, 540), (960, 540), (960, 540), (960, 540), (960, 540), (960, 540), (960, 540), (960, 540), (960, 540), (960, 540), (960, 540), (960, 540), (960, 540), (960, 540), (960, 540), (960, 540), (960, 540), (960, 540), (960, 540), (960, 540), (960, 540), (960, 540), (960, 540), (960, 540), (960, 540), (960, 540), (960, 540), (960, 540), (960, 540), (960, 540), (960, 540), (960, 540), (960, 540), (960, 540), (960, 540), (960, 540), (960, 540), (960, 540), (960, 540), (960, 540), (960, 540), (960, 540), (960, 540), (960, 540), (960, 540), (960, 540), (960, 540), (960, 540), (960, 540), (960, 540), (962, 540), (970, 538), (976, 535), (981, 533), (987, 530), (995, 529), (998, 528), (1002, 526), (1005, 525), (1011, 524), (1018, 520), (1027, 518), (1039, 514), (1067, 507), (1085, 502), (1102, 496), (1120, 490), (1167, 467), (1189, 455), (1213, 440), (1238, 425), (1292, 397), (1324, 381), (1348, 368)]",336.0923395058275,"[4, 3, 5, 9, 7, 6, 2, 1, 8]","(0, 0.25)",ENG009C,ENG,C,English,Fri Aug 31 09:56:13 2018,Mouse
1,0,3,0,28,4,4,1,579,329,250,134,0,500,200,8000,"[(960, 540), (960, 540), (960, 540), (960, 540), (960, 540), (960, 540), (960, 540), (960, 540), (960, 540), (960, 540), (960, 540), (960, 540), (960, 540), (960, 540), (960, 540), (960, 540), (960, 540), (960, 540), (960, 540), (960, 540), (960, 540), (960, 540), (960, 540), (960, 540), (960, 540), (960, 540), (960, 540), (960, 540), (960, 540), (960, 540), (960, 540), (960, 540), (963, 540), (964, 542), (965, 543), (969, 547), (978, 554), (985, 560), (995, 565), (1006, 570), (1031, 578), (1050, 583), (1063, 586), (1079, 591), (1110, 599), (1122, 603), (1133, 607), (1147, 611), (1172, 621), (1187, 627), (1205, 634), (1217, 639), (1251, 658), (1264, 665), (1283, 675), (1298, 682), (1324, 690), (1336, 693)]",22.14213974852764,"[4, 3, 5, 9, 7, 6, 2, 1, 8]","(0, 0.25)",ENG009C,ENG,C,English,Fri Aug 31 09:56:13 2018,Mouse
1,0,3,0,29,4,4,1,420,180,240,134,0,500,200,8000,"[(960, 540), (960, 540), (960, 540), (960, 540), (960, 540), (960, 540), (960, 540), (960, 540), (960, 540), (960, 540), (960, 540), (960, 540), (960, 540), (960, 540), (960, 540), (960, 540), (960, 540), (961, 540), (963, 541), (965, 541), (968, 541), (977, 544), (982, 545), (988, 547), (995, 550), (1004, 554), (1010, 556), (1017, 559), (1026, 562), (1050, 573), (1063, 578), (1076, 583), (1092, 588), (1133, 600), (1159, 608), (1183, 620), (1212, 632), (1259, 653), (1287, 663), (1307, 670), (1323, 678), (1355, 695)]",21.425293798087385,"[4, 3, 5, 9, 7, 6, 2, 1, 8]","(0, 0.25)",ENG009C,ENG,C,English,Fri Aug 31 09:56:13 2018,Mouse
1,0,3,0,30,5,9,0,-590,70,520,133,0,500,200,8000,"[(960, 540), (960, 540), (960, 540), (960, 540), (960, 540), (960, 540), (960, 541), (960, 541), (960, 541), (960, 541), (959, 542), (959, 542), (958, 543), (958, 543), (956, 544), (956, 544), (956, 544), (956, 544), (956, 544), (956, 544), (956, 544), (956, 544), (956, 544), (956, 544), (956, 544), (957, 543), (961, 542), (965, 540), (965, 540), (965, 540), (965, 540), (965, 540), (965, 540), (965, 540), (965, 540), (965, 540), (965, 540), (965, 540), (965, 540), (965, 540), (964, 540), (962, 541), (952, 549), (945, 554), (939, 560), (928, 566), (903, 581), (893, 589), (882, 595), (860, 610), (805, 642), (780, 652), (755, 667), (739, 676), (698, 707), (678, 723), (661, 736), (640, 757), (608, 797)]",143.86630865752946,"[4, 3, 5, 9, 7, 6, 2, 1, 8]","(0, 0.25)",ENG009C,ENG,C,English,Fri Aug 31 09:56:13 2018,Mouse
1,0,3,0,31,2,2,1,630,210,420,134,0,500,200,8000,"[(960, 540), (960, 540), (960, 540), (960, 540), (960, 540), (960, 540), (960, 540), (960, 540), (960, 540), (960, 540), (960, 540), (960, 540), (960, 540), (960, 540), (960, 540), (960, 540), (960, 540), (960, 540), (960, 540), (960, 540), (961, 540), (962, 540), (963, 540), (964, 540), (964, 540), (965, 539), (965, 537), (966, 537), (966, 536), (966, 536), (968, 534), (968, 532), (969, 532), (970, 531), (970, 530), (971, 529), (971, 529), (973, 525), (979, 515), (985, 504), (988, 498), (990, 494), (994, 483), (994, 480), (995, 477), (995, 474), (995, 471), (995, 469), (993, 467), (991, 463), (983, 452), (978, 442), (972, 432), (967, 422), (953, 394), (944, 374), (937, 353), (929, 323), (908, 261), (903, 231), (898, 196), (894, 157), (891, 81)]",261.4509231795813,"[4, 3, 5, 9, 7, 6, 2, 1, 8]","(0, 0.25)",ENG009C,ENG,C,English,Fri Aug 31 09:56:13 2018,Mouse
1,0,3,0,32,2,2,1,758,478,280,134,0,500,200,8000,"[(960, 540), (960, 540), (960, 540), (960, 540), (960, 540), (960, 540), (960, 540), (960, 540), (960, 540), (960, 540), (960, 540), (960, 540), (960, 540), (960, 540), (960, 540), (960, 540), (960, 540), (960, 540), (960, 540), (960, 540), (960, 540), (960, 540), (960, 540), (960, 540), (960, 540), (960, 540), (960, 540), (960, 540), (960, 540), (960, 540), (960, 540), (960, 540), (960, 540), (960, 540), (960, 540), (960, 540), (960, 540), (960, 540), (960, 540), (960, 540), (960, 540), (960, 540), (960, 540), (960, 540), (960, 540), (960, 540), (960, 540), (959, 540), (958, 540), (958, 540), (958, 540), (958, 540), (958, 540), (958, 540), (958, 540), (958, 540), (958, 540), (958, 540), (954, 537), (953, 531), (951, 521), (948, 513), (943, 485), (941, 464), (937, 445), (932, 423), (927, 394), (923, 380), (920, 365), (914, 349), (900, 312), (894, 289), (885, 259), (875, 225), (850, 162), (839, 136)]",253.32678155550104,"[4, 3, 5, 9, 7, 6, 2, 1, 8]","(0, 0.25)",ENG009C,ENG,C,English,Fri Aug 31 09:56:13 2018,Mouse
1,0,3,0,33,6,8,0,-1540,360,1180,133,0,500,200,8000,"[(960, 540), (960, 540), (960, 540), (960, 540), (960, 540), (960, 540), (960, 540), (960, 540), (960, 540), (960, 540), (960, 540), (960, 540), (960, 540), (960, 540), (960, 540), (960, 540), (960, 540), (960, 540), (960, 540), (960, 540), (960, 540), (960, 540), (960, 540), (960, 540), (960, 540), (960, 540), (960, 540), (960, 540), (960, 540), (960, 540), (960, 540), (960, 540), (960, 540), (960, 540), (960, 540), (961, 540), (961, 541), (960, 541), (960, 541), (960, 541), (960, 543), (960, 543), (960, 543), (960, 543), (960, 543), (960, 543), (959, 543), (959, 543), (959, 543), (959, 544), (959, 544), (959, 544), (958, 546), (958, 546), (958, 546), (958, 546), (958, 546), (958, 546), (958, 546), (958, 546), (958, 546), (958, 546), (958, 546), (958, 546), (958, 546), (958, 546), (958, 546), (958, 546), (958, 546), (958, 546), (958, 546), (958, 546), (958, 546), (958, 546), (958, 546), (958, 546), (958, 546), (958, 546), (958, 546), (958, 546), (958, 546), (958, 546), (958, 546), (958, 546), (958, 546), (958, 546), (958, 546), (958, 546), (958, 546), (958, 546), (958, 546), (958, 546), (958, 546), (958, 546), (958, 546), (958, 546), (958, 546), (958, 546), (958, 546), (958, 546), (958, 546), (958, 546), (958, 546), (958, 546), (958, 546), (958, 546), (958, 546), (958, 546), (958, 546), (958, 546), (958, 546), (958, 546), (958, 546), (958, 546), (958, 546), (958, 546), (958, 546), (958, 548), (958, 549), (958, 549), (958, 551), (959, 552), (959, 553), (961, 555), (961, 555), (961, 556), (961, 556), (962, 557), (962, 557), (970, 555), (976, 552), (982, 548), (988, 542), (1004, 531), (1011, 523), (1020, 515), (1030, 509), (1052, 492), (1061, 487), (1072, 480), (1085, 474), (1109, 464), (1125, 459), (1142, 454), (1158, 451), (1198, 444), (1218, 443), (1236, 440), (1254, 439), (1285, 434), (1298, 433), (1312, 431), (1331, 428), (1364, 425)]",344.11081315185555,"[4, 3, 5, 9, 7, 6, 2, 1, 8]","(0, 0.25)",ENG009C,ENG,C,English,Fri Aug 31 09:56:13 2018,Mouse
1,0,3,0,34,8,7,0,-860,310,550,134,0,500,200,8000,"[(960, 540), (960, 540), (960, 540), (960, 540), (960, 540), (960, 540), (960, 540), (960, 540), (960, 540), (960, 540), (960, 540), (960, 540), (960, 540), (960, 540), (960, 540), (960, 540), (960, 540), (960, 540), (960, 540), (960, 540), (960, 540), (960, 540), (960, 540), (960, 540), (960, 540), (960, 540), (960, 540), (960, 540), (960, 540), (960, 540), (959, 540), (959, 540), (959, 541), (959, 541), (959, 541), (959, 541), (959, 541), (959, 541), (959, 542), (959, 542), (959, 542), (959, 542), (959, 544), (959, 544), (959, 544), (959, 544), (958, 544), (958, 544), (958, 544), (958, 545), (958, 545), (958, 545), (958, 545), (958, 545), (958, 545), (958, 545), (957, 546), (957, 546), (957, 546), (956, 546), (956, 546), (956, 546), (955, 547), (955, 547), (955, 547), (954, 548), (953, 549), (953, 549), (951, 549), (951, 550), (944, 551), (937, 551), (928, 551), (918, 551), (894, 551), (880, 551), (859, 551), (837, 551), (781, 551), (747, 551), (711, 551), (678, 551), (616, 551), (594, 551), (569, 551), (552, 551)]",178.45563496531207,"[4, 3, 5, 9, 7, 6, 2, 1, 8]","(0, 0.25)",ENG009C,ENG,C,English,Fri Aug 31 09:56:13 2018,Mouse
1,0,3,0,35,2,2,1,529,189,340,135,0,500,200,8000,"[(960, 540), (960, 540), (960, 540), (960, 540), (960, 540), (960, 540), (960, 540), (960, 540), (960, 540), (960, 540), (960, 540), (960, 540), (960, 540), (960, 540), (960, 540), (960, 540), (960, 540), (960, 540), (960, 539), (960, 537), (960, 537), (960, 536), (960, 534), (963, 528), (964, 522), (966, 515), (969, 504), (976, 480), (979, 469), (980, 460), (982, 454), (982, 449), (982, 447), (982, 446), (982, 446), (982, 445), (982, 444), (982, 442), (982, 439), (979, 425), (975, 415), (972, 408), (967, 398), (958, 377), (955, 366), (950, 348), (946, 326), (941, 276), (935, 249), (932, 223), (929, 202), (922, 159), (920, 141)]",264.2751895477765,"[4, 3, 5, 9, 7, 6, 2, 1, 8]","(0, 0.25)",ENG009C,ENG,C,English,Fri Aug 31 09:56:13 2018,Mouse
1,0,3,0,36,3,3,1,599,299,300,135,0,500,200,8000,"[(960, 540), (960, 540), (960, 540), (960, 540), (960, 540), (960, 540), (960, 540), (960, 540), (960, 540), (960, 540), (960, 540), (960, 540), (960, 540), (960, 540), (960, 540), (960, 540), (960, 540), (960, 540), (960, 540), (960, 540), (960, 540), (960, 540), (960, 540), (960, 540), (960, 540), (960, 540), (960, 540), (960, 540), (960, 540), (962, 544), (964, 546), (965, 547), (968, 548), (972, 552), (973, 553), (974, 553), (974, 554), (975, 554), (975, 554), (975, 554), (976, 555), (978, 558), (979, 560), (981, 563), (983, 569), (990, 584), (994, 594), (1000, 607), (1003, 619), (1011, 651), (1020, 675), (1034, 707), (1044, 732), (1069, 785), (1084, 813), (1096, 834), (1110, 854), (1128, 880), (1137, 891), (1144, 898)]",62.79835524695853,"[4, 3, 5, 9, 7, 6, 2, 1, 8]","(0, 0.25)",ENG009C,ENG,C,English,Fri Aug 31 09:56:13 2018,Mouse
1,0,3,0,37,1,1,1,368,19,349,134,0,500,200,8000,"[(960, 538), (960, 536), (960, 535), (960, 533), (960, 528), (960, 526), (960, 524), (960, 520), (960, 501), (960, 494), (960, 486), (960, 479), (961, 459), (962, 455), (962, 451), (962, 446), (963, 439), (963, 435), (965, 430), (966, 428), (970, 415), (972, 408), (975, 398), (978, 389), (987, 371), (993, 361), (997, 353), (1003, 346), (1016, 330), (1027, 317), (1040, 303), (1053, 286), (1077, 252), (1090, 235), (1106, 214), (1115, 198), (1132, 175)]",295.23135489422646,"[4, 3, 5, 9, 7, 6, 2, 1, 8]","(0, 0.25)",ENG009C,ENG,C,English,Fri Aug 31 09:56:13 2018,Mouse
1,0,3,0,38,4,4,1,671,210,461,133,0,500,200,8000,"[(960, 540), (960, 540), (960, 540), (960, 540), (960, 540), (960, 540), (960, 540), (960, 540), (960, 540), (960, 540), (960, 540), (960, 540), (960, 540), (960, 540), (960, 540), (960, 540), (960, 540), (960, 540), (960, 540), (960, 540), (959, 540), (959, 540), (959, 541), (959, 542), (959, 542), (959, 543), (959, 543), (959, 543), (959, 544), (959, 544), (961, 545), (961, 545), (961, 545), (961, 545), (961, 546), (961, 546), (961, 546), (961, 546), (963, 546), (966, 546), (972, 547), (982, 549), (1014, 559), (1038, 570), (1064, 582), (1087, 591), (1124, 610), (1145, 619), (1158, 624), (1169, 631), (1187, 641), (1193, 645), (1200, 648), (1205, 651), (1218, 656), (1223, 657), (1229, 659), (1236, 660), (1248, 665), (1255, 666), (1263, 669), (1273, 671), (1293, 678), (1304, 681), (1315, 684), (1326, 687), (1346, 692)]",21.493646397017834,"[4, 3, 5, 9, 7, 6, 2, 1, 8]","(0, 0.25)",ENG009C,ENG,C,English,Fri Aug 31 09:56:13 2018,Mouse
1,0,3,0,39,3,3,1,640,270,370,132,0,500,200,8000,"[(960, 540), (960, 540), (960, 540), (960, 540), (960, 540), (960, 540), (960, 540), (960, 540), (960, 540), (960, 540), (960, 540), (960, 540), (960, 540), (960, 540), (960, 540), (960, 540), (960, 540), (960, 540), (960, 540), (960, 540), (960, 540), (960, 540), (960, 540), (960, 540), (960, 540), (960, 540), (960, 539), (960, 539), (959, 538), (959, 538), (959, 538), (959, 538), (959, 538), (959, 538), (959, 538), (959, 538), (959, 538), (959, 540), (959, 545), (959, 548), (961, 553), (962, 559), (968, 572), (972, 577), (979, 584), (984, 588), (997, 598), (1005, 606), (1010, 613), (1021, 624), (1039, 646), (1051, 658), (1064, 678), (1078, 698), (1102, 739), (1110, 752), (1117, 765), (1129, 785), (1142, 809), (1147, 822), (1153, 836), (1160, 852), (1170, 880), (1176, 897)]",58.824299504261404,"[4, 3, 5, 9, 7, 6, 2, 1, 8]","(0, 0.25)",ENG009C,ENG,C,English,Fri Aug 31 09:56:13 2018,Mouse
1,0,3,0,40,3,3,1,870,570,300,131,0,500,200,8000,"[(960, 540), (960, 540), (960, 540), (960, 540), (960, 540), (960, 540), (960, 540), (960, 540), (960, 540), (960, 540), (960, 540), (960, 540), (960, 540), (960, 540), (960, 540), (960, 540), (960, 540), (960, 540), (960, 540), (960, 540), (960, 540), (960, 540), (960, 540), (960, 540), (960, 540), (960, 540), (960, 540), (960, 540), (960, 540), (960, 540), (960, 540), (960, 540), (960, 540), (960, 540), (960, 540), (960, 540), (960, 540), (960, 540), (960, 540), (960, 540), (960, 540), (960, 540), (960, 540), (960, 540), (960, 540), (960, 540), (960, 540), (960, 540), (960, 540), (960, 540), (960, 540), (960, 540), (960, 540), (960, 540), (960, 540), (960, 540), (960, 541), (961, 542), (962, 543), (962, 543), (963, 543), (966, 544), (966, 544), (967, 545), (968, 546), (971, 549), (973, 551), (974, 553), (978, 556), (982, 562), (985, 568), (989, 575), (996, 584), (1018, 613), (1035, 633), (1052, 651), (1066, 667), (1098, 701), (1111, 718), (1124, 735), (1135, 752), (1156, 781), (1163, 790), (1173, 804), (1188, 824), (1200, 846), (1203, 859)]",52.701463621453875,"[4, 3, 5, 9, 7, 6, 2, 1, 8]","(0, 0.25)",ENG009C,ENG,C,English,Fri Aug 31 09:56:13 2018,Mouse
1,0,3,0,41,7,1,0,-810,320,490,130,0,500,200,8000,"[(960, 540), (960, 540), (960, 540), (960, 540), (960, 540), (960, 540), (960, 540), (960, 540), (960, 540), (960, 540), (960, 540), (960, 540), (960, 540), (960, 540), (960, 540), (960, 540), (960, 540), (960, 540), (960, 540), (960, 540), (960, 540), (960, 540), (960, 540), (960, 540), (960, 540), (960, 540), (960, 540), (960, 540), (960, 540), (960, 540), (960, 540), (960, 539), (960, 539), (960, 539), (960, 539), (960, 539), (960, 539), (960, 539), (961, 538), (961, 538), (963, 537), (965, 534), (968, 531), (968, 530), (970, 527), (976, 523), (978, 520), (981, 517), (986, 509), (1002, 488), (1008, 478), (1021, 459), (1031, 440), (1045, 419), (1048, 415), (1052, 410), (1055, 408), (1057, 406), (1057, 406), (1057, 405), (1057, 405), (1057, 405), (1059, 404), (1059, 403), (1061, 402), (1063, 399), (1065, 397), (1067, 395), (1068, 391), (1073, 382), (1075, 376), (1079, 363), (1084, 349), (1102, 308), (1111, 287), (1120, 266), (1128, 248), (1142, 217), (1148, 209), (1154, 200), (1160, 191)]",299.81555135609443,"[4, 3, 5, 9, 7, 6, 2, 1, 8]","(0, 0.25)",ENG009C,ENG,C,English,Fri Aug 31 09:56:13 2018,Mouse
1,0,3,0,42,5,3,0,-1049,199,850,131,0,500,200,8000,"[(960, 540), (960, 540), (960, 540), (960, 540), (960, 540), (960, 540), (960, 540), (960, 540), (960, 540), (960, 540), (960, 540), (960, 540), (960, 540), (960, 540), (960, 540), (960, 540), (960, 540), (960, 540), (960, 540), (961, 540), (960, 541), (960, 541), (960, 541), (959, 541), (959, 541), (959, 541), (958, 541), (957, 542), (956, 543), (956, 543), (953, 544), (953, 544), (953, 544), (953, 544), (953, 544), (952, 545), (952, 545), (952, 545), (952, 545), (952, 545), (951, 546), (951, 546), (950, 547), (950, 547), (950, 547), (949, 548), (949, 548), (949, 548), (949, 548), (949, 548), (949, 548), (949, 548), (950, 548), (953, 548), (959, 546), (970, 540), (980, 537), (993, 532), (1007, 528), (1032, 516), (1043, 510), (1054, 505), (1065, 498), (1084, 486), (1093, 478), (1101, 470), (1108, 462), (1115, 457), (1116, 457), (1117, 456), (1117, 456), (1117, 456), (1117, 456), (1117, 456), (1117, 456), (1117, 456), (1117, 456), (1117, 456), (1117, 456), (1117, 456), (1117, 456), (1117, 456), (1116, 456), (1112, 457), (1108, 460), (1106, 463), (1102, 471), (1093, 492), (1088, 506), (1083, 521), (1081, 536), (1076, 568), (1074, 581), (1074, 592), (1074, 607), (1074, 639), (1074, 658), (1074, 686), (1075, 704), (1094, 755), (1106, 782), (1121, 809), (1134, 833), (1157, 876), (1167, 890)]",59.39871720346789,"[4, 3, 5, 9, 7, 6, 2, 1, 8]","(0, 0.25)",ENG009C,ENG,C,English,Fri Aug 31 09:56:13 2018,Mouse
1,0,3,0,43,7,7,1,708,118,590,132,0,500,200,8000,"[(960, 540), (960, 540), (960, 540), (960, 540), (960, 540), (960, 540), (960, 540), (960, 540), (960, 540), (960, 540), (960, 540), (962, 539), (962, 539), (962, 539), (962, 539), (962, 539), (962, 539), (962, 539), (962, 539), (962, 539), (962, 539), (962, 539), (962, 538), (962, 538), (962, 537), (962, 535), (961, 534), (960, 532), (958, 529), (957, 528), (956, 527), (956, 526), (955, 526), (955, 524), (954, 523), (954, 523), (953, 521), (952, 520), (952, 520), (952, 520), (952, 520), (951, 519), (951, 519), (951, 519), (951, 519), (951, 519), (951, 519), (951, 519), (951, 519), (948, 519), (945, 519), (936, 519), (926, 521), (902, 523), (888, 523), (868, 523), (826, 523), (767, 523), (745, 523), (725, 523), (706, 523), (672, 523), (654, 523), (639, 523), (624, 523), (600, 523), (589, 523), (582, 523), (575, 523), (566, 526), (560, 528)]",181.71835800165545,"[4, 3, 5, 9, 7, 6, 2, 1, 8]","(0, 0.25)",ENG009C,ENG,C,English,Fri Aug 31 09:56:13 2018,Mouse
1,0,3,0,44,9,8,0,-750,240,510,132,0,500,200,8000,"[(960, 540), (960, 540), (960, 540), (960, 540), (960, 540), (960, 540), (960, 540), (960, 540), (960, 540), (960, 540), (960, 540), (960, 540), (960, 540), (960, 540), (960, 540), (960, 540), (960, 540), (960, 540), (960, 540), (960, 540), (960, 540), (960, 540), (960, 540), (963, 543), (966, 545), (974, 552), (977, 554), (981, 557), (985, 560), (994, 567), (1000, 571), (1005, 574), (1010, 576), (1016, 579), (1018, 579), (1021, 579), (1023, 580), (1028, 580), (1031, 580), (1034, 580), (1039, 579), (1046, 575), (1050, 573), (1055, 569), (1059, 566), (1062, 562), (1062, 562), (1063, 561), (1063, 560), (1063, 559), (1063, 559), (1063, 559), (1063, 559), (1063, 559), (1063, 559), (1063, 559), (1063, 559), (1065, 558), (1066, 556), (1069, 554), (1070, 552), (1077, 547), (1085, 544), (1093, 540), (1107, 531), (1139, 514), (1163, 499), (1185, 487), (1204, 476), (1253, 456), (1270, 447), (1286, 437), (1302, 428), (1324, 414), (1340, 404)]",340.3079787612635,"[4, 3, 5, 9, 7, 6, 2, 1, 8]","(0, 0.25)",ENG009C,ENG,C,English,Fri Aug 31 09:56:13 2018,Mouse
1,0,3,0,45,4,3,0,-460,210,250,133,0,500,200,8000,"[(960, 540), (960, 540), (960, 540), (960, 540), (960, 540), (960, 540), (960, 540), (960, 540), (960, 540), (960, 540), (960, 540), (960, 540), (960, 540), (960, 540), (960, 540), (960, 540), (960, 540), (960, 540), (960, 540), (960, 540), (960, 542), (960, 545), (959, 548), (959, 551), (959, 554), (959, 563), (960, 570), (967, 580), (973, 592), (998, 629), (1011, 649), (1025, 664), (1038, 678), (1069, 704), (1078, 712), (1085, 719), (1092, 727), (1106, 743), (1113, 752), (1120, 762), (1131, 775), (1160, 810), (1173, 827), (1189, 848), (1197, 857), (1209, 880)]",53.78270759470415,"[4, 3, 5, 9, 7, 6, 2, 1, 8]","(0, 0.25)",ENG009C,ENG,C,English,Fri Aug 31 09:56:13 2018,Mouse
1,0,3,0,46,9,3,0,-429,189,240,134,0,500,200,8000,"[(960, 540), (960, 540), (960, 540), (960, 540), (960, 540), (960, 540), (960, 540), (960, 540), (960, 540), (960, 540), (960, 540), (960, 540), (960, 540), (960, 540), (960, 540), (960, 540), (960, 540), (960, 540), (961, 541), (961, 544), (964, 550), (964, 556), (972, 572), (980, 582), (986, 593), (993, 602), (1010, 627), (1022, 640), (1030, 650), (1041, 664), (1064, 693), (1074, 708), (1085, 724), (1102, 743), (1124, 774), (1132, 785), (1140, 797), (1147, 807), (1160, 825), (1168, 836), (1173, 844), (1180, 853), (1192, 869)]",54.80976564475155,"[4, 3, 5, 9, 7, 6, 2, 1, 8]","(0, 0.25)",ENG009C,ENG,C,English,Fri Aug 31 09:56:13 2018,Mouse
1,0,3,0,47,1,1,1,449,119,330,135,0,500,200,8000,"[(960, 540), (960, 540), (960, 540), (960, 540), (960, 540), (960, 540), (960, 540), (960, 540), (960, 540), (960, 540), (960, 540), (960, 538), (960, 538), (960, 537), (960, 537), (960, 537), (960, 535), (960, 535), (960, 535), (960, 535), (960, 535), (960, 535), (960, 534), (960, 533), (960, 532), (960, 529), (963, 524), (967, 519), (971, 512), (976, 502), (990, 473), (999, 450), (1006, 432), (1017, 409), (1033, 370), (1040, 350), (1045, 333), (1053, 310), (1061, 279), (1067, 259), (1074, 239), (1081, 219), (1094, 186), (1099, 171), (1108, 153)]",290.92830069595084,"[4, 3, 5, 9, 7, 6, 2, 1, 8]","(0, 0.25)",ENG009C,ENG,C,English,Fri Aug 31 09:56:13 2018,Mouse
1,0,3,0,48,2,2,1,418,148,270,135,0,500,200,8000,"[(960, 540), (960, 540), (960, 540), (960, 540), (960, 540), (960, 540), (960, 540), (960, 540), (960, 540), (960, 540), (960, 540), (960, 540), (960, 540), (960, 540), (960, 537), (958, 536), (956, 534), (955, 533), (955, 533), (954, 533), (953, 530), (952, 524), (952, 520), (949, 515), (947, 505), (945, 498), (945, 491), (945, 481), (945, 457), (944, 440), (941, 416), (934, 386), (901, 281), (885, 246), (874, 225), (871, 217), (867, 206), (866, 198), (866, 190), (865, 182), (865, 159), (865, 149)]",256.3436506483058,"[4, 3, 5, 9, 7, 6, 2, 1, 8]","(0, 0.25)",ENG009C,ENG,C,English,Fri Aug 31 09:56:13 2018,Mouse
1,0,3,0,49,5,3,0,-450,150,300,134,0,500,200,8000,"[(960, 540), (960, 540), (960, 540), (960, 540), (960, 540), (960, 540), (960, 540), (960, 540), (960, 540), (960, 540), (960, 540), (960, 540), (960, 540), (960, 540), (960, 541), (961, 542), (961, 544), (963, 548), (965, 551), (967, 555), (968, 555), (974, 560), (980, 562), (985, 565), (992, 568), (1009, 575), (1017, 580), (1027, 587), (1038, 595), (1063, 617), (1078, 631), (1102, 651), (1123, 670), (1158, 700), (1176, 714), (1191, 727), (1200, 736), (1215, 755), (1219, 762), (1221, 773), (1224, 785), (1226, 813), (1226, 826), (1226, 838), (1226, 847)]",49.092722792528434,"[4, 3, 5, 9, 7, 6, 2, 1, 8]","(0, 0.25)",ENG009C,ENG,C,English,Fri Aug 31 09:56:13 2018,Mouse
1,0,3,0,50,2,2,1,419,159,260,135,0,500,200,8000,"[(960, 540), (960, 540), (960, 540), (960, 540), (960, 540), (960, 540), (960, 540), (960, 540), (960, 540), (960, 540), (960, 540), (960, 540), (960, 540), (960, 540), (960, 540), (960, 538), (960, 537), (960, 535), (960, 531), (961, 522), (961, 519), (961, 515), (961, 511), (961, 502), (960, 497), (959, 491), (957, 482), (956, 470), (955, 460), (954, 449), (950, 438), (945, 408), (942, 393), (938, 374), (935, 355), (925, 312), (924, 283), (919, 254), (914, 227), (906, 171), (904, 148), (900, 123)]",261.8121979880955,"[4, 3, 5, 9, 7, 6, 2, 1, 8]","(0, 0.25)",ENG009C,ENG,C,English,Fri Aug 31 09:56:13 2018,Mouse
1,0,3,0,51,9,3,0,-371,11,360,135,0,500,200,8000,"[(960, 540), (958, 544), (958, 546), (958, 548), (958, 552), (958, 559), (958, 564), (959, 569), (960, 573), (963, 580), (963, 581), (963, 583), (963, 587), (966, 592), (968, 596), (968, 601), (970, 608), (973, 621), (977, 629), (980, 638), (984, 647), (993, 665), (999, 676), (1004, 684), (1011, 693), (1023, 719), (1028, 730), (1035, 742), (1041, 753), (1057, 780), (1065, 798), (1073, 814), (1084, 831), (1099, 860), (1109, 872), (1116, 882), (1122, 889), (1133, 906)]",64.70094782331674,"[4, 3, 5, 9, 7, 6, 2, 1, 8]","(0, 0.25)",ENG009C,ENG,C,English,Fri Aug 31 09:56:13 2018,Mouse
1,0,3,0,52,2,2,1,319,49,270,136,0,500,200,8000,"[(960, 540), (960, 540), (960, 540), (960, 540), (961, 537), (961, 536), (962, 530), (962, 528), (962, 524), (963, 521), (963, 509), (963, 504), (963, 501), (963, 496), (963, 490), (963, 486), (963, 479), (963, 470), (963, 434), (963, 415), (963, 401), (960, 386), (954, 354), (949, 339), (944, 322), (935, 302), (918, 256), (912, 238), (906, 218), (898, 196), (890, 158), (889, 140)]",259.9348306472401,"[4, 3, 5, 9, 7, 6, 2, 1, 8]","(0, 0.25)",ENG009C,ENG,C,English,Fri Aug 31 09:56:13 2018,Mouse
1,0,3,0,53,1,9,0,-2089,1659,430,136,0,500,200,8000,"[(960, 540), (960, 540), (960, 540), (960, 540), (960, 540), (960, 540), (960, 540), (960, 540), (960, 540), (960, 540), (960, 540), (960, 540), (960, 540), (960, 540), (960, 540), (960, 540), (960, 540), (960, 540), (960, 540), (960, 540), (960, 540), (960, 540), (960, 540), (960, 540), (960, 540), (960, 540), (960, 540), (960, 540), (960, 540), (960, 540), (960, 540), (960, 540), (960, 540), (960, 540), (960, 540), (960, 540), (960, 540), (960, 540), (960, 540), (960, 540), (960, 540), (960, 540), (960, 540), (960, 540), (960, 540), (960, 540), (960, 540), (960, 540), (960, 540), (960, 540), (960, 540), (960, 540), (960, 540), (960, 540), (960, 540), (960, 540), (960, 540), (960, 540), (960, 540), (960, 540), (960, 540), (960, 540), (960, 540), (960, 540), (960, 540), (960, 540), (960, 540), (960, 540), (960, 540), (960, 540), (960, 540), (960, 540), (960, 540), (960, 540), (960, 540), (960, 540), (960, 540), (960, 540), (960, 540), (960, 540), (960, 540), (960, 540), (960, 540), (960, 540), (960, 540), (960, 540), (960, 540), (960, 540), (960, 540), (960, 540), (960, 540), (960, 540), (960, 540), (960, 540), (960, 540), (960, 540), (960, 540), (960, 540), (960, 540), (960, 540), (960, 540), (960, 540), (960, 540), (960, 540), (960, 540), (960, 540), (960, 540), (960, 540), (960, 540), (960, 540), (960, 540), (960, 540), (960, 540), (960, 540), (960, 540), (960, 540), (960, 540), (960, 540), (960, 540), (960, 540), (960, 540), (960, 540), (960, 540), (960, 540), (960, 540), (960, 540), (960, 540), (960, 540), (960, 540), (960, 540), (960, 540), (960, 540), (960, 540), (960, 540), (960, 540), (960, 540), (960, 540), (960, 540), (960, 540), (960, 540), (960, 540), (960, 540), (960, 540), (960, 540), (960, 540), (960, 540), (960, 540), (960, 540), (960, 540), (960, 540), (960, 540), (960, 540), (960, 540), (960, 540), (960, 540), (960, 540), (960, 540), (960, 540), (960, 540), (960, 540), (960, 540), (960, 540), (960, 540), (960, 540), (960, 540), (959, 539), (959, 539), (958, 539), (956, 542), (950, 548), (945, 552), (941, 553), (936, 557), (923, 567), (915, 571), (905, 576), (899, 580), (884, 589), (875, 595), (868, 600), (859, 605), (839, 620), (828, 627), (820, 634), (812, 640), (798, 654), (792, 659), (784, 664), (778, 670), (769, 679), (765, 685), (762, 691), (758, 697), (753, 711), (750, 717), (745, 725), (742, 731), (734, 747), (729, 756), (725, 765), (721, 771), (711, 787), (707, 793), (703, 798), (700, 803), (691, 814), (686, 819), (682, 824), (677, 828)]",134.4982984662996,"[4, 3, 5, 9, 7, 6, 2, 1, 8]","(0, 0.25)",ENG009C,ENG,C,English,Fri Aug 31 09:56:13 2018,Mouse
1,0,3,0,54,9,9,1,359,169,190,137,0,500,200,8000,"[(960, 540), (960, 540), (960, 540), (960, 540), (960, 540), (960, 540), (960, 540), (960, 540), (960, 540), (960, 540), (960, 540), (960, 540), (960, 540), (960, 540), (960, 540), (960, 540), (958, 540), (958, 541), (957, 542), (955, 547), (952, 550), (946, 557), (934, 569), (886, 613), (865, 634), (849, 650), (827, 674), (787, 725), (771, 743), (756, 761), (743, 778), (727, 802), (720, 810), (716, 819), (711, 827), (698, 844)]",130.75614772610197,"[4, 3, 5, 9, 7, 6, 2, 1, 8]","(0, 0.25)",ENG009C,ENG,C,English,Fri Aug 31 09:56:13 2018,Mouse
1,0,3,0,55,8,8,1,439,109,330,137,0,500,200,8000,"[(960, 540), (960, 540), (960, 540), (960, 540), (960, 540), (960, 540), (960, 540), (960, 540), (960, 540), (960, 540), (966, 540), (969, 538), (975, 536), (979, 534), (989, 530), (994, 528), (998, 528), (1003, 525), (1011, 521), (1014, 521), (1017, 520), (1020, 520), (1027, 516), (1034, 512), (1041, 506), (1050, 501), (1066, 493), (1072, 489), (1082, 485), (1092, 483), (1115, 477), (1129, 472), (1146, 467), (1171, 461), (1218, 449), (1241, 441), (1261, 435), (1278, 430), (1308, 417), (1318, 414), (1325, 411), (1331, 408), (1336, 406), (1337, 406)]",340.43287090194667,"[4, 3, 5, 9, 7, 6, 2, 1, 8]","(0, 0.25)",ENG009C,ENG,C,English,Fri Aug 31 09:56:13 2018,Mouse
1,0,3,0,56,1,1,1,429,269,160,136,0,500,200,8000,"[(960, 540), (960, 540), (960, 540), (960, 540), (960, 540), (960, 540), (960, 540), (960, 540), (960, 540), (960, 540), (960, 540), (960, 540), (960, 540), (960, 540), (960, 540), (960, 540), (960, 540), (960, 540), (960, 540), (960, 540), (960, 540), (960, 540), (960, 540), (960, 540), (960, 540), (960, 540), (960, 538), (960, 538), (960, 536), (963, 529), (965, 524), (968, 517), (971, 509), (984, 480), (993, 459), (1004, 435), (1014, 410), (1046, 345), (1064, 310), (1082, 280), (1100, 245), (1138, 182), (1156, 149)]",296.62363579829025,"[4, 3, 5, 9, 7, 6, 2, 1, 8]","(0, 0.25)",ENG009C,ENG,C,English,Fri Aug 31 09:56:13 2018,Mouse
1,0,3,0,57,9,9,1,520,40,480,135,0,500,200,8000,"[(960, 540), (960, 540), (960, 540), (959, 540), (959, 540), (959, 541), (958, 541), (958, 542), (957, 542), (956, 543), (956, 543), (956, 543), (956, 543), (955, 544), (954, 545), (954, 545), (954, 545), (953, 546), (952, 547), (951, 548), (951, 548), (949, 551), (948, 552), (947, 553), (946, 556), (943, 559), (940, 563), (938, 565), (934, 570), (926, 581), (920, 588), (915, 594), (909, 600), (898, 614), (892, 622), (884, 630), (875, 641), (857, 661), (847, 673), (832, 687), (823, 694), (798, 717), (785, 728), (776, 737), (766, 748), (747, 768), (739, 777), (729, 790), (718, 803), (701, 824), (695, 831), (690, 836)]",132.36988733664242,"[4, 3, 5, 9, 7, 6, 2, 1, 8]","(0, 0.25)",ENG009C,ENG,C,English,Fri Aug 31 09:56:13 2018,Mouse
1,0,3,0,58,6,6,1,410,140,270,134,0,500,200,8000,"[(960, 540), (960, 540), (960, 540), (960, 540), (960, 540), (960, 540), (960, 540), (960, 540), (960, 540), (960, 540), (960, 540), (960, 540), (960, 540), (960, 541), (961, 543), (964, 545), (965, 546), (965, 546), (965, 546), (965, 546), (964, 549), (963, 549), (961, 549), (958, 549), (947, 549), (941, 548), (930, 547), (919, 546), (896, 536), (883, 526), (872, 517), (859, 502), (830, 473), (812, 454), (786, 436), (765, 416), (722, 381), (701, 361), (677, 341), (664, 328), (639, 292)]",217.6891601528602,"[4, 3, 5, 9, 7, 6, 2, 1, 8]","(0, 0.25)",ENG009C,ENG,C,English,Fri Aug 31 09:56:13 2018,Mouse
1,0,3,0,59,8,3,0,-570,180,390,133,0,500,200,8000,"[(960, 540), (960, 540), (960, 540), (960, 540), (960, 540), (960, 540), (960, 540), (960, 540), (960, 540), (960, 540), (960, 540), (960, 540), (960, 540), (960, 540), (960, 540), (960, 540), (960, 540), (959, 541), (959, 545), (959, 546), (959, 547), (959, 547), (959, 547), (959, 547), (959, 547), (959, 547), (959, 547), (959, 547), (959, 547), (959, 547), (959, 549), (961, 552), (965, 555), (969, 560), (979, 577), (986, 590), (994, 603), (1008, 625), (1024, 669), (1036, 692), (1044, 711), (1053, 731), (1075, 772), (1084, 790), (1096, 812), (1102, 823), (1112, 840), (1115, 845), (1116, 846), (1117, 847), (1120, 850), (1120, 852), (1122, 854), (1124, 858), (1135, 875), (1142, 884), (1148, 895)]",62.095313959450564,"[4, 3, 5, 9, 7, 6, 2, 1, 8]","(0, 0.25)",ENG009C,ENG,C,English,Fri Aug 31 09:56:13 2018,Mouse
1,0,3,0,60,9,9,1,369,109,260,134,0,500,200,8000,"[(960, 540), (960, 540), (960, 540), (960, 540), (960, 540), (960, 540), (960, 540), (960, 540), (960, 540), (960, 540), (960, 541), (960, 541), (954, 541), (950, 541), (947, 541), (941, 541), (909, 544), (892, 544), (879, 545), (867, 548), (849, 550), (842, 552), (835, 554), (826, 558), (811, 565), (804, 570), (796, 576), (787, 586), (768, 610), (757, 622), (748, 631), (734, 649), (702, 699), (691, 725), (679, 757), (668, 788), (656, 835)]",135.860806706149,"[4, 3, 5, 9, 7, 6, 2, 1, 8]","(0, 0.25)",ENG009C,ENG,C,English,Fri Aug 31 09:56:13 2018,Mouse
1,0,3,0,61,3,3,1,1748,528,1220,134,0,500,200,8000,"[(960, 540), (960, 540), (960, 540), (960, 540), (960, 540), (960, 540), (960, 540), (960, 540), (960, 540), (960, 540), (960, 540), (960, 540), (960, 540), (960, 540), (960, 540), (960, 540), (960, 540), (960, 540), (960, 540), (960, 540), (960, 540), (960, 540), (960, 540), (960, 540), (960, 540), (960, 540), (960, 540), (960, 540), (960, 540), (960, 540), (960, 540), (960, 540), (960, 540), (960, 540), (960, 540), (960, 540), (960, 540), (960, 540), (960, 540), (960, 540), (960, 540), (960, 540), (960, 540), (960, 540), (960, 540), (960, 540), (960, 540), (960, 540), (960, 540), (960, 540), (960, 540), (960, 540), (960, 541), (965, 548), (976, 566), (981, 574), (989, 585), (996, 593), (1012, 612), (1019, 620), (1025, 626), (1030, 632), (1041, 645), (1047, 652), (1052, 657), (1056, 661), (1066, 670), (1072, 679), (1082, 691), (1089, 698), (1104, 720), (1110, 730), (1115, 738), (1119, 745), (1127, 759), (1130, 766), (1131, 769), (1131, 771), (1132, 774), (1133, 775), (1133, 775), (1133, 775), (1133, 775), (1133, 775), (1133, 775), (1133, 775), (1133, 775), (1133, 775), (1133, 775), (1133, 775), (1133, 775), (1133, 775), (1133, 775), (1133, 775), (1133, 775), (1133, 775), (1133, 775), (1133, 775), (1133, 775), (1133, 775), (1133, 775), (1133, 775), (1133, 775), (1133, 775), (1133, 775), (1133, 775), (1133, 775), (1133, 775), (1133, 775), (1133, 775), (1133, 775), (1133, 775), (1133, 775), (1133, 775), (1133, 775), (1133, 775), (1133, 774), (1133, 774), (1133, 774), (1133, 774), (1133, 774), (1133, 774), (1133, 774), (1133, 774), (1133, 774), (1133, 774), (1133, 774), (1133, 774), (1133, 774), (1133, 774), (1133, 774), (1133, 774), (1133, 774), (1133, 774), (1133, 774), (1133, 774), (1133, 774), (1133, 774), (1133, 774), (1133, 774), (1133, 774), (1133, 774), (1133, 774), (1133, 774), (1133, 774), (1133, 774), (1133, 774), (1133, 774), (1133, 774), (1133, 774), (1133, 774), (1133, 774), (1133, 774), (1133, 774), (1133, 774), (1133, 774), (1133, 774), (1133, 774), (1133, 774), (1133, 774), (1133, 774), (1133, 774), (1133, 774), (1133, 774), (1133, 774), (1133, 774), (1133, 774), (1134, 775), (1135, 777), (1138, 782), (1151, 800), (1162, 814), (1175, 828), (1189, 844), (1218, 879)]",52.72661761909723,"[4, 3, 5, 9, 7, 6, 2, 1, 8]","(0, 0.25)",ENG009C,ENG,C,English,Fri Aug 31 09:56:13 2018,Mouse
1,0,3,0,62,4,4,1,528,268,260,133,0,500,200,8000,"[(960, 540), (960, 540), (960, 540), (960, 540), (960, 540), (960, 540), (960, 540), (960, 540), (960, 540), (960, 540), (960, 540), (960, 540), (960, 540), (960, 540), (960, 540), (960, 540), (960, 540), (960, 540), (960, 540), (960, 540), (960, 540), (960, 540), (960, 540), (960, 540), (960, 540), (960, 540), (960, 539), (961, 539), (961, 539), (962, 537), (963, 537), (963, 537), (965, 537), (966, 537), (973, 537), (981, 538), (991, 542), (1003, 548), (1030, 558), (1051, 568), (1072, 577), (1097, 587), (1153, 612), (1175, 618), (1198, 626), (1218, 633), (1252, 642), (1266, 647), (1279, 652), (1293, 656), (1315, 663), (1326, 665), (1340, 668)]",18.615692007331038,"[4, 3, 5, 9, 7, 6, 2, 1, 8]","(0, 0.25)",ENG009C,ENG,C,English,Fri Aug 31 09:56:13 2018,Mouse
1,0,3,0,63,9,9,1,551,171,380,132,0,500,200,8000,"[(960, 540), (960, 540), (960, 540), (960, 540), (960, 540), (960, 540), (960, 540), (960, 540), (960, 540), (960, 540), (960, 540), (960, 540), (960, 540), (960, 540), (960, 540), (960, 540), (960, 540), (957, 541), (954, 541), (949, 544), (948, 545), (945, 546), (942, 548), (940, 549), (939, 550), (936, 551), (935, 551), (934, 551), (933, 552), (930, 553), (928, 553), (925, 554), (919, 557), (909, 558), (903, 561), (898, 563), (892, 566), (875, 573), (862, 579), (847, 588), (837, 596), (809, 617), (794, 629), (779, 642), (761, 656), (738, 678), (728, 694), (719, 703), (707, 717), (686, 741), (678, 753), (672, 762), (666, 769), (656, 783), (649, 791), (643, 798)]",140.8585419725026,"[4, 3, 5, 9, 7, 6, 2, 1, 8]","(0, 0.25)",ENG009C,ENG,C,English,Fri Aug 31 09:56:13 2018,Mouse
1,0,3,0,64,3,9,0,-500,260,240,131,0,500,200,8000,"[(960, 540), (960, 540), (960, 540), (960, 540), (960, 540), (960, 540), (960, 540), (960, 540), (960, 540), (960, 540), (960, 540), (960, 540), (960, 540), (960, 540), (960, 540), (960, 540), (960, 540), (960, 540), (960, 540), (960, 540), (960, 540), (960, 540), (960, 540), (960, 540), (960, 540), (957, 544), (955, 547), (951, 553), (935, 570), (925, 579), (913, 590), (900, 603), (880, 627), (851, 655), (820, 677), (795, 693), (765, 729), (759, 739), (751, 750), (741, 762), (723, 789), (719, 797), (717, 801), (714, 805), (712, 810), (711, 812), (710, 815), (708, 817), (696, 828), (686, 835)]",132.88635235258326,"[4, 3, 5, 9, 7, 6, 2, 1, 8]","(0, 0.25)",ENG009C,ENG,C,English,Fri Aug 31 09:56:13 2018,Mouse
1,0,3,0,65,7,3,0,-689,169,520,132,0,500,200,8000,"[(960, 540), (960, 540), (960, 540), (960, 540), (960, 540), (960, 540), (960, 540), (960, 540), (960, 540), (960, 540), (960, 540), (960, 540), (960, 540), (960, 540), (960, 540), (960, 540), (964, 540), (979, 552), (988, 560), (1002, 572), (1019, 585), (1049, 606), (1065, 618), (1077, 624), (1087, 631), (1104, 647), (1109, 653), (1114, 659), (1118, 665), (1119, 667), (1119, 669), (1119, 670), (1119, 670), (1119, 672), (1119, 673), (1119, 674), (1118, 676), (1118, 680), (1118, 682), (1118, 686), (1117, 689), (1117, 696), (1117, 704), (1117, 711), (1117, 720), (1117, 741), (1117, 748), (1120, 758), (1122, 764), (1127, 772), (1127, 772), (1127, 774), (1129, 775), (1129, 775), (1129, 775), (1129, 775), (1129, 775), (1130, 777), (1130, 779), (1132, 782), (1133, 786), (1138, 798), (1142, 809), (1145, 819), (1148, 828), (1156, 847), (1165, 863), (1173, 878), (1183, 900)]",58.22408552051991,"[4, 3, 5, 9, 7, 6, 2, 1, 8]","(0, 0.25)",ENG009C,ENG,C,English,Fri Aug 31 09:56:13 2018,Mouse
1,0,3,0,66,6,6,1,749,159,590,133,0,500,200,8000,"[(960, 540), (960, 540), (960, 540), (960, 540), (960, 540), (960, 540), (960, 540), (960, 540), (960, 540), (960, 540), (960, 540), (960, 540), (960, 540), (960, 540), (960, 540), (960, 539), (959, 539), (958, 539), (956, 539), (953, 537), (952, 534), (952, 534), (951, 533), (951, 532), (951, 531), (951, 531), (951, 531), (951, 531), (951, 531), (951, 531), (951, 531), (951, 531), (951, 531), (951, 531), (951, 531), (951, 531), (951, 531), (951, 531), (951, 531), (951, 531), (951, 531), (951, 531), (951, 531), (951, 531), (951, 531), (951, 531), (951, 531), (951, 531), (951, 531), (951, 531), (951, 531), (951, 531), (951, 531), (951, 531), (951, 531), (951, 531), (951, 531), (951, 531), (951, 531), (951, 531), (951, 531), (951, 531), (951, 531), (947, 530), (942, 527), (934, 525), (923, 519), (894, 502), (872, 492), (842, 474), (806, 451), (724, 398), (682, 373), (652, 351), (615, 326)]",211.810907418725,"[4, 3, 5, 9, 7, 6, 2, 1, 8]","(0, 0.25)",ENG009C,ENG,C,English,Fri Aug 31 09:56:13 2018,Mouse
1,0,3,0,67,1,3,0,-509,309,200,133,0,500,200,8000,"[(960, 540), (960, 540), (960, 540), (960, 540), (960, 540), (960, 540), (960, 540), (960, 540), (960, 540), (960, 540), (960, 540), (960, 540), (960, 540), (960, 540), (960, 540), (960, 540), (960, 540), (960, 540), (960, 540), (960, 540), (960, 540), (960, 540), (960, 540), (960, 540), (960, 540), (960, 540), (960, 540), (960, 540), (960, 540), (960, 540), (960, 543), (962, 558), (966, 568), (970, 583), (974, 599), (978, 630), (979, 645), (983, 667), (987, 689), (1007, 745), (1018, 767), (1032, 789), (1046, 811), (1073, 844), (1082, 853), (1094, 864), (1106, 870), (1129, 881), (1139, 885), (1148, 888), (1159, 896)]",60.79530013219044,"[4, 3, 5, 9, 7, 6, 2, 1, 8]","(0, 0.25)",ENG009C,ENG,C,English,Fri Aug 31 09:56:13 2018,Mouse
1,0,3,0,68,7,7,1,357,127,230,134,0,500,200,8000,"[(960, 540), (960, 540), (960, 540), (960, 540), (960, 540), (960, 540), (960, 540), (960, 540), (960, 540), (960, 540), (960, 540), (960, 540), (955, 538), (942, 532), (928, 526), (904, 516), (893, 511), (884, 508), (874, 505), (858, 501), (852, 501), (845, 500), (837, 499), (825, 498), (816, 496), (807, 496), (795, 496), (741, 496), (710, 496), (685, 496), (656, 498), (616, 503), (603, 506), (590, 509), (578, 511), (559, 517)]",183.28269496358826,"[4, 3, 5, 9, 7, 6, 2, 1, 8]","(0, 0.25)",ENG009C,ENG,C,English,Fri Aug 31 09:56:13 2018,Mouse
1,0,3,0,69,9,9,1,460,140,320,134,0,500,200,8000,"[(960, 540), (960, 540), (960, 540), (960, 540), (960, 540), (960, 540), (960, 540), (960, 540), (960, 540), (960, 540), (960, 540), (960, 540), (960, 540), (959, 540), (958, 542), (956, 545), (955, 548), (954, 550), (953, 555), (951, 558), (950, 561), (946, 567), (935, 581), (930, 588), (925, 596), (915, 606), (898, 629), (882, 649), (864, 674), (846, 697), (807, 732), (792, 744), (777, 754), (768, 761), (749, 776), (744, 781), (739, 786), (734, 789), (723, 799), (718, 804), (714, 808), (711, 809), (701, 818), (696, 822), (690, 827), (682, 834)]",133.39773865372902,"[4, 3, 5, 9, 7, 6, 2, 1, 8]","(0, 0.25)",ENG009C,ENG,C,English,Fri Aug 31 09:56:13 2018,Mouse
1,0,3,0,70,5,7,0,-399,159,240,133,0,500,200,8000,"[(960, 540), (960, 540), (960, 540), (960, 540), (960, 540), (960, 540), (960, 540), (960, 540), (960, 540), (960, 540), (960, 540), (960, 540), (960, 540), (960, 540), (960, 540), (960, 539), (960, 539), (960, 538), (960, 538), (956, 536), (955, 536), (952, 536), (949, 536), (942, 536), (931, 536), (916, 536), (892, 536), (817, 536), (786, 536), (755, 536), (725, 536), (679, 536), (661, 539), (639, 543), (624, 544), (599, 551), (587, 555), (577, 558), (568, 560), (551, 565)]",176.5021648932275,"[4, 3, 5, 9, 7, 6, 2, 1, 8]","(0, 0.25)",ENG009C,ENG,C,English,Fri Aug 31 09:56:13 2018,Mouse
1,0,3,0,71,8,6,0,-619,419,200,134,0,500,200,8000,"[(960, 540), (960, 540), (960, 540), (960, 540), (960, 540), (960, 540), (960, 540), (960, 540), (960, 540), (960, 540), (960, 540), (960, 540), (960, 540), (960, 540), (960, 540), (960, 540), (960, 540), (960, 540), (960, 540), (960, 540), (960, 540), (960, 540), (960, 540), (960, 540), (960, 540), (960, 540), (960, 540), (960, 540), (960, 540), (960, 540), (960, 540), (960, 540), (960, 540), (960, 540), (960, 540), (960, 540), (960, 540), (960, 540), (960, 540), (960, 540), (960, 540), (961, 539), (957, 530), (951, 521), (946, 513), (939, 500), (918, 465), (906, 446), (896, 427), (885, 406), (862, 363), (855, 351), (847, 334), (838, 318), (816, 287), (807, 273), (797, 259), (789, 248), (771, 223), (764, 213), (755, 201), (746, 193)]",238.3372551745204,"[4, 3, 5, 9, 7, 6, 2, 1, 8]","(0, 0.25)",ENG009C,ENG,C,English,Fri Aug 31 09:56:13 2018,Mouse
1,0,3,0,72,4,6,0,-590,220,370,135,0,500,200,8000,"[(960, 540), (960, 540), (960, 540), (960, 540), (960, 540), (960, 540), (960, 540), (960, 540), (960, 540), (960, 540), (960, 540), (960, 540), (960, 540), (960, 540), (960, 540), (960, 540), (960, 540), (960, 540), (960, 540), (960, 540), (960, 540), (959, 540), (958, 541), (956, 543), (955, 544), (954, 544), (952, 546), (949, 546), (947, 546), (946, 546), (945, 546), (941, 546), (938, 545), (936, 543), (934, 540), (930, 529), (925, 519), (919, 510), (913, 497), (900, 470), (894, 459), (883, 443), (872, 428), (850, 390), (841, 374), (827, 354), (820, 341), (798, 310), (788, 300), (780, 289), (770, 280), (752, 267), (744, 260), (738, 256), (729, 252), (714, 247), (705, 242), (699, 241), (692, 240)]",228.22452260651988,"[4, 3, 5, 9, 7, 6, 2, 1, 8]","(0, 0.25)",ENG009C,ENG,C,English,Fri Aug 31 09:56:13 2018,Mouse
1,0,3,0,73,6,6,1,319,19,300,136,0,500,200,8000,"[(959, 540), (957, 540), (955, 540), (950, 540), (948, 540), (945, 540), (941, 540), (935, 540), (932, 540), (929, 539), (929, 539), (927, 538), (925, 537), (923, 537), (921, 535), (910, 530), (907, 528), (901, 525), (895, 523), (879, 514), (871, 509), (860, 501), (844, 491), (819, 473), (805, 462), (785, 448), (764, 427), (721, 377), (696, 349), (673, 322), (649, 300), (591, 252)]",217.97160376105037,"[4, 3, 5, 9, 7, 6, 2, 1, 8]","(0, 0.25)",ENG009C,ENG,C,English,Fri Aug 31 09:56:13 2018,Mouse
1,0,3,0,74,8,8,1,569,109,460,136,0,500,200,8000,"[(960, 540), (960, 540), (960, 540), (960, 540), (960, 540), (960, 540), (960, 540), (960, 540), (960, 540), (960, 540), (961, 540), (961, 540), (961, 540), (961, 540), (962, 540), (962, 540), (962, 540), (963, 539), (963, 538), (964, 538), (965, 537), (965, 537), (966, 535), (969, 534), (969, 534), (970, 531), (971, 531), (972, 530), (972, 529), (973, 528), (973, 528), (973, 528), (973, 528), (973, 528), (973, 528), (973, 528), (973, 528), (973, 527), (976, 525), (978, 524), (983, 521), (990, 518), (1001, 515), (1028, 512), (1044, 509), (1065, 507), (1113, 498), (1144, 490), (1170, 476), (1197, 465), (1240, 438), (1257, 429), (1269, 423), (1287, 412), (1316, 397), (1328, 391), (1343, 387)]",338.22438780119495,"[4, 3, 5, 9, 7, 6, 2, 1, 8]","(0, 0.25)",ENG009C,ENG,C,English,Fri Aug 31 09:56:13 2018,Mouse
1,0,3,0,75,8,8,1,461,171,290,135,0,500,200,8000,"[(960, 540), (960, 540), (960, 540), (960, 540), (960, 540), (960, 540), (960, 540), (960, 540), (960, 540), (960, 540), (960, 540), (960, 540), (960, 540), (960, 540), (960, 540), (960, 540), (960, 540), (965, 540), (970, 540), (977, 540), (983, 540), (1003, 536), (1014, 534), (1027, 528), (1039, 522), (1062, 512), (1073, 507), (1086, 502), (1099, 497), (1120, 489), (1131, 485), (1142, 480), (1150, 477), (1166, 470), (1173, 469), (1179, 467), (1187, 463), (1203, 459), (1213, 457), (1223, 454), (1231, 452), (1256, 445), (1270, 440), (1285, 435), (1300, 433), (1329, 423), (1342, 421)]",342.6972314522093,"[4, 3, 5, 9, 7, 6, 2, 1, 8]","(0, 0.25)",ENG009C,ENG,C,English,Fri Aug 31 09:56:13 2018,Mouse
1,0,3,0,76,2,6,0,-849,189,660,134,0,500,200,8000,"[(960, 540), (960, 540), (960, 540), (960, 540), (960, 540), (960, 540), (960, 540), (960, 540), (960, 540), (960, 540), (960, 540), (960, 540), (960, 540), (960, 540), (960, 540), (960, 540), (960, 540), (960, 540), (958, 541), (958, 541), (958, 541), (957, 542), (954, 544), (953, 545), (950, 546), (947, 548), (945, 549), (945, 550), (945, 550), (943, 551), (943, 552), (942, 553), (939, 555), (932, 562), (930, 564), (925, 569), (918, 574), (904, 585), (898, 590), (889, 596), (881, 602), (856, 619), (838, 632), (814, 647), (790, 658), (762, 674), (752, 678), (748, 681), (745, 684), (743, 686), (743, 686), (743, 686), (743, 686), (743, 686), (743, 686), (743, 686), (743, 686), (743, 686), (743, 686), (743, 686), (743, 686), (743, 686), (743, 686), (743, 686), (743, 686), (742, 686), (742, 683), (742, 683), (742, 681), (742, 676), (742, 672), (742, 668), (742, 663), (742, 646), (742, 636), (741, 623), (739, 611), (723, 567), (711, 540), (700, 511), (681, 476), (648, 407), (634, 375), (616, 342), (598, 312)]",212.2041289206624,"[4, 3, 5, 9, 7, 6, 2, 1, 8]","(0, 0.25)",ENG009C,ENG,C,English,Fri Aug 31 09:56:13 2018,Mouse
1,0,3,0,77,1,2,0,-440,200,240,135,0,500,200,8000,"[(960, 540), (960, 540), (960, 540), (960, 540), (960, 540), (960, 540), (960, 540), (960, 540), (960, 540), (960, 540), (960, 540), (960, 540), (960, 540), (960, 540), (960, 540), (960, 540), (960, 540), (960, 540), (960, 540), (960, 539), (963, 538), (964, 537), (968, 535), (974, 533), (977, 532), (978, 531), (980, 530), (981, 528), (982, 524), (982, 519), (982, 510), (982, 489), (978, 474), (970, 449), (966, 430), (951, 375), (941, 344), (938, 317), (935, 294), (935, 246), (935, 221), (935, 188), (935, 143), (939, 72)]",267.4307589798518,"[4, 3, 5, 9, 7, 6, 2, 1, 8]","(0, 0.25)",ENG009C,ENG,C,English,Fri Aug 31 09:56:13 2018,Mouse
1,0,3,0,78,3,3,1,869,629,240,136,0,500,200,8000,"[(960, 540), (960, 540), (960, 540), (960, 540), (960, 540), (960, 540), (960, 540), (960, 540), (960, 540), (960, 540), (960, 540), (960, 540), (960, 540), (960, 540), (960, 540), (960, 540), (960, 540), (960, 540), (960, 540), (960, 540), (960, 540), (960, 540), (960, 540), (960, 540), (960, 540), (960, 540), (960, 540), (960, 540), (960, 540), (960, 540), (960, 540), (960, 540), (960, 540), (960, 540), (960, 540), (960, 540), (960, 540), (960, 540), (960, 540), (960, 540), (960, 540), (960, 540), (960, 540), (960, 540), (960, 540), (960, 540), (960, 540), (960, 540), (960, 540), (960, 540), (960, 540), (960, 540), (960, 540), (960, 540), (960, 540), (960, 540), (960, 540), (960, 540), (960, 540), (960, 540), (960, 540), (960, 540), (965, 545), (967, 549), (972, 554), (975, 558), (989, 576), (995, 588), (1001, 599), (1008, 611), (1024, 637), (1030, 652), (1036, 667), (1042, 682), (1056, 710), (1060, 721), (1068, 736), (1075, 748), (1091, 776), (1098, 789), (1105, 801), (1113, 814), (1128, 836), (1134, 847), (1144, 861), (1156, 880), (1177, 918)]",60.1409838350769,"[4, 3, 5, 9, 7, 6, 2, 1, 8]","(0, 0.25)",ENG009C,ENG,C,English,Fri Aug 31 09:56:13 2018,Mouse
1,0,3,0,79,8,8,1,530,50,480,136,0,500,200,8000,"[(960, 540), (960, 540), (960, 540), (960, 540), (960, 539), (960, 539), (960, 538), (960, 538), (960, 538), (960, 538), (960, 537), (960, 537), (960, 537), (960, 537), (961, 535), (961, 535), (963, 534), (963, 533), (966, 531), (967, 530), (970, 528), (975, 524), (993, 512), (1003, 507), (1013, 501), (1023, 495), (1042, 485), (1052, 481), (1063, 477), (1073, 473), (1096, 463), (1107, 457), (1118, 453), (1129, 451), (1148, 445), (1159, 443), (1168, 443), (1178, 443), (1198, 443), (1209, 443), (1220, 443), (1229, 442), (1249, 440), (1258, 438), (1266, 436), (1275, 432), (1291, 427), (1298, 426), (1308, 422), (1316, 419), (1328, 413), (1333, 412), (1339, 410)]",341.06762596787246,"[4, 3, 5, 9, 7, 6, 2, 1, 8]","(0, 0.25)",ENG009C,ENG,C,English,Fri Aug 31 09:56:13 2018,Mouse
1,0,3,0,80,5,6,0,-1218,108,1110,135,0,500,200,8000,"[(960, 540), (960, 540), (960, 540), (960, 540), (960, 540), (960, 540), (960, 540), (960, 540), (960, 540), (960, 540), (959, 541), (959, 541), (957, 541), (957, 541), (956, 541), (955, 543), (953, 544), (952, 544), (951, 544), (950, 544), (948, 545), (947, 546), (946, 546), (945, 547), (943, 548), (943, 548), (942, 548), (941, 548), (938, 550), (936, 551), (936, 551), (933, 554), (932, 554), (929, 556), (927, 558), (925, 559), (913, 568), (904, 573), (896, 580), (886, 589), (857, 609), (845, 617), (833, 630), (820, 641), (798, 658), (793, 663), (792, 664), (790, 666), (790, 666), (790, 666), (790, 666), (790, 666), (790, 666), (790, 666), (790, 666), (790, 666), (790, 666), (790, 666), (790, 666), (790, 666), (790, 666), (790, 664), (790, 660), (790, 653), (790, 636), (793, 626), (793, 617), (793, 607), (793, 591), (793, 585), (793, 578), (793, 572), (793, 558), (793, 551), (793, 545), (793, 538), (793, 527), (793, 523), (793, 519), (793, 516), (792, 510), (789, 506), (788, 504), (785, 499), (780, 490), (778, 484), (775, 477), (772, 468), (765, 443), (760, 427), (756, 412), (749, 397), (731, 363), (722, 347), (715, 329), (709, 314), (698, 293), (696, 284), (693, 278), (692, 274), (690, 267), (690, 266), (690, 264), (690, 262), (689, 260), (689, 260), (689, 259), (689, 259), (689, 259), (689, 259), (689, 259), (689, 259), (689, 259), (689, 259), (689, 259), (689, 259), (688, 258), (687, 257), (686, 256), (686, 256), (682, 254), (679, 253)]",225.6052145972448,"[4, 3, 5, 9, 7, 6, 2, 1, 8]","(0, 0.25)",ENG009C,ENG,C,English,Fri Aug 31 09:56:13 2018,Mouse
1,0,3,0,81,4,4,1,470,240,230,136,0,500,200,8000,"[(960, 540), (960, 540), (960, 540), (960, 540), (960, 540), (960, 540), (960, 540), (960, 540), (960, 540), (960, 540), (960, 540), (960, 540), (960, 540), (960, 540), (960, 540), (960, 540), (960, 540), (960, 540), (960, 540), (960, 540), (960, 540), (960, 540), (960, 540), (960, 539), (960, 539), (964, 539), (967, 539), (972, 541), (979, 543), (1003, 549), (1020, 554), (1043, 562), (1063, 567), (1116, 583), (1141, 589), (1168, 594), (1188, 601), (1233, 615), (1252, 621), (1266, 623), (1280, 628), (1304, 635), (1314, 639), (1323, 642), (1329, 643), (1342, 647), (1350, 648)]",15.478638165418356,"[4, 3, 5, 9, 7, 6, 2, 1, 8]","(0, 0.25)",ENG009C,ENG,C,English,Fri Aug 31 09:56:13 2018,Mouse
1,0,3,0,82,3,3,1,420,30,390,136,0,500,200,8000,"[(960, 540), (960, 540), (960, 541), (960, 541), (959, 542), (958, 542), (957, 543), (957, 543), (957, 543), (955, 544), (955, 544), (954, 544), (954, 545), (953, 546), (953, 546), (953, 546), (952, 548), (951, 552), (951, 554), (951, 556), (951, 560), (951, 567), (951, 571), (952, 576), (954, 582), (964, 603), (974, 617), (990, 640), (1008, 660), (1050, 707), (1075, 734), (1095, 757), (1110, 775), (1127, 801), (1135, 813), (1142, 823), (1148, 833), (1157, 851), (1161, 859), (1165, 867), (1170, 875), (1174, 885)]",58.189092581274984,"[4, 3, 5, 9, 7, 6, 2, 1, 8]","(0, 0.25)",ENG009C,ENG,C,English,Fri Aug 31 09:56:13 2018,Mouse
1,0,3,0,83,7,7,1,479,189,290,135,0,500,200,8000,"[(960, 540), (960, 540), (960, 540), (960, 540), (960, 540), (960, 540), (960, 540), (960, 540), (960, 540), (960, 540), (960, 540), (960, 540), (960, 540), (960, 540), (960, 540), (960, 540), (960, 540), (960, 540), (955, 538), (949, 536), (941, 533), (931, 530), (903, 522), (887, 520), (868, 514), (850, 513), (821, 508), (810, 507), (799, 506), (788, 504), (770, 504), (762, 504), (751, 504), (740, 505), (723, 508), (715, 509), (706, 511), (698, 514), (682, 519), (674, 520), (664, 521), (654, 522), (632, 526), (623, 526), (609, 529), (595, 530), (563, 530), (546, 530)]",181.3836869673685,"[4, 3, 5, 9, 7, 6, 2, 1, 8]","(0, 0.25)",ENG009C,ENG,C,English,Fri Aug 31 09:56:13 2018,Mouse
1,0,3,0,84,1,8,0,-700,280,420,134,0,500,200,8000,"[(960, 540), (960, 540), (960, 540), (960, 540), (960, 540), (960, 540), (960, 540), (960, 540), (960, 540), (960, 540), (960, 540), (960, 540), (960, 540), (960, 540), (960, 540), (960, 540), (960, 540), (960, 540), (960, 540), (960, 540), (960, 540), (960, 540), (960, 540), (960, 540), (960, 540), (960, 540), (960, 540), (962, 540), (963, 540), (966, 540), (968, 540), (970, 540), (972, 541), (976, 542), (979, 542), (982, 542), (985, 542), (991, 542), (992, 542), (994, 542), (996, 542), (998, 542), (999, 542), (999, 542), (1001, 542), (1004, 542), (1005, 542), (1006, 542), (1008, 542), (1012, 542), (1015, 542), (1020, 541), (1025, 540), (1037, 536), (1046, 533), (1057, 529), (1070, 522), (1108, 508), (1129, 498), (1153, 487), (1176, 477), (1221, 455), (1237, 448), (1252, 440), (1266, 431), (1288, 420), (1297, 414), (1305, 409), (1318, 402), (1338, 392)]",338.61794829144816,"[4, 3, 5, 9, 7, 6, 2, 1, 8]","(0, 0.25)",ENG009C,ENG,C,English,Fri Aug 31 09:56:13 2018,Mouse
1,0,3,0,85,3,3,1,659,59,600,135,0,500,200,8000,"[(960, 540), (960, 540), (960, 540), (960, 540), (960, 540), (960, 541), (960, 541), (959, 541), (958, 543), (955, 543), (954, 544), (953, 546), (951, 547), (950, 548), (948, 551), (945, 555), (944, 558), (943, 559), (938, 567), (935, 571), (934, 572), (932, 576), (924, 592), (919, 604), (916, 615), (914, 630), (910, 661), (910, 680), (910, 697), (910, 717), (916, 757), (923, 774), (931, 790), (939, 802), (957, 817), (965, 822), (972, 823), (980, 825), (992, 825), (994, 825), (997, 825), (997, 825), (998, 825), (998, 825), (998, 825), (998, 825), (998, 825), (998, 825), (998, 825), (998, 825), (998, 825), (998, 825), (998, 825), (998, 825), (998, 825), (998, 825), (998, 825), (998, 825), (1002, 825), (1011, 831), (1021, 839), (1031, 845), (1056, 862), (1072, 874), (1092, 890), (1120, 907)]",66.44437251688711,"[4, 3, 5, 9, 7, 6, 2, 1, 8]","(0, 0.25)",ENG009C,ENG,C,English,Fri Aug 31 09:56:13 2018,Mouse
1,0,3,0,86,5,5,1,689,439,250,135,0,500,200,8000,"[(960, 540), (960, 540), (960, 540), (960, 540), (960, 540), (960, 540), (960, 540), (960, 540), (960, 540), (960, 540), (960, 540), (960, 540), (960, 540), (960, 540), (960, 540), (960, 540), (960, 540), (960, 540), (960, 540), (960, 540), (960, 540), (960, 540), (960, 540), (960, 540), (960, 540), (960, 540), (960, 540), (960, 540), (960, 540), (960, 540), (960, 540), (960, 540), (960, 540), (960, 540), (960, 540), (960, 540), (960, 540), (960, 540), (960, 540), (960, 540), (960, 540), (960, 540), (960, 540), (960, 541), (959, 544), (959, 545), (958, 547), (954, 558), (951, 572), (950, 583), (949, 598), (943, 629), (940, 646), (938, 659), (938, 668), (938, 691), (938, 702), (938, 716), (938, 728), (931, 758), (926, 771), (920, 783), (915, 796), (899, 838), (893, 858), (886, 878), (881, 892), (873, 924), (873, 935)]",102.42125340893828,"[4, 3, 5, 9, 7, 6, 2, 1, 8]","(0, 0.25)",ENG009C,ENG,C,English,Fri Aug 31 09:56:13 2018,Mouse
1,0,3,0,87,7,7,1,430,20,410,134,0,500,200,8000,"[(957, 540), (953, 540), (952, 540), (950, 540), (949, 540), (947, 540), (947, 540), (947, 540), (947, 540), (946, 539), (946, 539), (946, 538), (943, 537), (941, 536), (938, 533), (936, 531), (934, 531), (929, 528), (927, 527), (925, 527), (923, 525), (920, 525), (916, 525), (912, 524), (906, 524), (888, 523), (877, 523), (866, 523), (853, 523), (829, 523), (815, 523), (807, 523), (793, 523), (754, 523), (723, 523), (701, 523), (681, 523), (653, 523), (638, 523), (623, 523), (604, 523), (570, 523), (557, 519)]",182.98293818179232,"[4, 3, 5, 9, 7, 6, 2, 1, 8]","(0, 0.25)",ENG009C,ENG,C,English,Fri Aug 31 09:56:13 2018,Mouse
1,0,3,0,88,5,3,0,-330,20,310,133,0,500,200,8000,"[(960, 542), (962, 545), (964, 548), (965, 549), (967, 551), (971, 557), (973, 559), (975, 562), (976, 563), (979, 566), (980, 567), (982, 570), (984, 571), (988, 574), (988, 575), (991, 578), (995, 582), (1002, 588), (1008, 594), (1015, 603), (1023, 612), (1037, 634), (1046, 646), (1054, 658), (1063, 671), (1080, 700), (1091, 720), (1103, 746), (1111, 777), (1136, 830), (1148, 861), (1160, 885), (1171, 914)]",60.56956378718568,"[4, 3, 5, 9, 7, 6, 2, 1, 8]","(0, 0.25)",ENG009C,ENG,C,English,Fri Aug 31 09:56:13 2018,Mouse
1,0,3,0,89,1,6,0,-957,77,880,134,0,500,200,8000,"[(960, 540), (960, 540), (960, 540), (960, 540), (960, 540), (960, 540), (960, 540), (960, 539), (960, 539), (960, 539), (960, 539), (960, 537), (960, 537), (960, 537), (960, 537), (960, 536), (960, 536), (960, 536), (961, 535), (961, 535), (961, 535), (961, 535), (962, 534), (962, 534), (962, 534), (962, 534), (962, 534), (962, 534), (962, 534), (962, 534), (962, 534), (962, 534), (962, 534), (962, 534), (962, 534), (962, 534), (962, 534), (962, 534), (962, 534), (962, 534), (962, 534), (961, 534), (958, 535), (941, 543), (928, 546), (908, 553), (888, 560), (860, 572), (851, 577), (846, 581), (840, 585), (833, 591), (829, 595), (828, 597), (828, 598), (827, 600), (827, 600), (827, 600), (827, 600), (827, 600), (827, 600), (827, 600), (827, 600), (827, 600), (827, 600), (827, 600), (827, 598), (830, 583), (831, 578), (831, 573), (831, 567), (831, 555), (828, 551), (825, 544), (822, 540), (814, 532), (813, 530), (811, 527), (809, 522), (807, 513), (805, 510), (802, 504), (799, 500), (790, 488), (786, 481), (778, 474), (770, 462), (757, 443), (750, 433), (740, 419), (733, 406), (710, 366), (698, 347), (688, 328), (676, 306), (654, 268)]",221.6335393365702,"[4, 3, 5, 9, 7, 6, 2, 1, 8]","(0, 0.25)",ENG009C,ENG,C,English,Fri Aug 31 09:56:13 2018,Mouse
1,0,3,0,90,6,6,1,439,99,340,135,0,500,200,8000,"[(960, 540), (960, 540), (960, 540), (960, 540), (960, 540), (960, 540), (960, 540), (960, 540), (960, 540), (959, 539), (958, 538), (958, 538), (957, 536), (956, 536), (952, 532), (950, 530), (947, 528), (944, 524), (934, 518), (927, 514), (919, 509), (912, 505), (900, 500), (890, 497), (882, 492), (872, 487), (856, 477), (847, 473), (839, 467), (832, 463), (821, 453), (817, 447), (813, 442), (809, 433), (800, 416), (793, 403), (786, 392), (779, 379), (758, 344), (749, 330), (735, 310), (720, 290), (699, 257), (686, 244)]",227.21031892435388,"[4, 3, 5, 9, 7, 6, 2, 1, 8]","(0, 0.25)",ENG009C,ENG,C,English,Fri Aug 31 09:56:13 2018,Mouse
1,0,3,0,91,6,6,1,517,187,330,135,0,500,200,8000,"[(960, 540), (960, 540), (960, 540), (960, 540), (960, 540), (960, 540), (960, 540), (960, 540), (960, 540), (960, 540), (960, 540), (960, 540), (960, 540), (960, 540), (960, 540), (960, 540), (960, 540), (960, 540), (959, 540), (955, 538), (948, 537), (928, 533), (917, 530), (906, 524), (894, 519), (872, 509), (860, 502), (850, 497), (839, 490), (820, 477), (813, 469), (808, 460), (802, 453), (795, 439), (791, 433), (788, 426), (786, 420), (783, 408), (781, 403), (778, 395), (774, 388), (765, 373), (758, 362), (750, 354), (744, 347), (731, 332), (726, 326), (718, 320), (709, 315), (687, 306), (670, 298), (647, 290)]",218.61513319139877,"[4, 3, 5, 9, 7, 6, 2, 1, 8]","(0, 0.25)",ENG009C,ENG,C,English,Fri Aug 31 09:56:13 2018,Mouse
1,0,3,0,92,3,3,1,1418,219,1199,134,0,500,200,8000,"[(960, 540), (960, 540), (960, 540), (960, 540), (960, 540), (960, 540), (960, 540), (960, 540), (960, 540), (960, 540), (960, 540), (960, 540), (960, 540), (960, 540), (960, 540), (960, 540), (960, 540), (960, 540), (960, 540), (960, 540), (960, 540), (962, 540), (962, 540), (962, 540), (963, 540), (965, 540), (965, 540), (968, 541), (970, 542), (971, 542), (971, 543), (971, 543), (971, 543), (972, 543), (972, 543), (972, 543), (972, 544), (972, 544), (972, 544), (972, 544), (974, 544), (974, 544), (975, 544), (976, 545), (978, 546), (979, 546), (979, 546), (980, 546), (981, 546), (981, 546), (981, 546), (981, 546), (981, 546), (981, 546), (981, 546), (981, 546), (981, 546), (981, 546), (981, 546), (981, 546), (981, 546), (981, 546), (981, 546), (982, 547), (983, 550), (984, 551), (985, 553), (986, 555), (989, 559), (991, 562), (992, 563), (994, 564), (997, 566), (998, 568), (1001, 569), (1001, 570), (1005, 574), (1008, 580), (1011, 583), (1014, 591), (1024, 607), (1031, 618), (1037, 630), (1045, 643), (1068, 679), (1078, 695), (1091, 715), (1104, 732), (1125, 761), (1134, 775), (1142, 791), (1149, 802), (1159, 816), (1163, 820), (1164, 820), (1165, 821), (1165, 821), (1166, 821), (1166, 821), (1166, 821), (1168, 821), (1168, 820), (1169, 819), (1170, 817), (1171, 814), (1171, 812), (1171, 810), (1171, 809), (1171, 806), (1171, 805), (1173, 803), (1173, 802), (1173, 800), (1173, 800), (1173, 800), (1173, 800), (1173, 799), (1173, 799), (1173, 799), (1173, 799), (1173, 799), (1173, 799), (1173, 799), (1173, 799), (1173, 799), (1173, 799), (1173, 799), (1173, 799), (1173, 799), (1173, 799), (1173, 799), (1173, 799), (1173, 799), (1173, 798), (1173, 798), (1173, 799), (1173, 812), (1173, 821), (1173, 829), (1176, 840), (1183, 866), (1187, 880)]",56.271061530517684,"[4, 3, 5, 9, 7, 6, 2, 1, 8]","(0, 0.25)",ENG009C,ENG,C,English,Fri Aug 31 09:56:13 2018,Mouse
1,0,3,0,93,7,7,1,501,21,480,133,0,500,200,8000,"[(960, 540), (960, 540), (959, 539), (958, 538), (956, 538), (952, 537), (946, 536), (939, 536), (928, 533), (916, 532), (893, 527), (882, 526), (873, 525), (864, 523), (852, 522), (845, 521), (840, 520), (835, 520), (825, 520), (819, 520), (812, 520), (804, 520), (784, 520), (773, 520), (761, 520), (746, 520), (720, 520), (708, 520), (694, 520), (679, 520), (651, 520), (638, 520), (627, 520), (616, 520), (599, 520), (594, 520), (588, 520), (584, 520), (576, 522), (574, 523), (572, 523), (570, 523), (568, 524), (568, 524), (568, 524), (567, 524), (567, 524), (566, 525), (565, 525), (564, 526), (560, 527)]",181.86145763046673,"[4, 3, 5, 9, 7, 6, 2, 1, 8]","(0, 0.25)",ENG009C,ENG,C,English,Fri Aug 31 09:56:13 2018,Mouse
1,0,3,0,94,7,7,1,350,140,210,132,0,500,200,8000,"[(960, 540), (960, 540), (960, 540), (960, 540), (960, 540), (960, 540), (960, 540), (960, 540), (960, 540), (960, 540), (960, 540), (960, 540), (960, 540), (958, 540), (956, 540), (954, 540), (952, 541), (948, 541), (929, 543), (917, 543), (906, 543), (895, 543), (864, 543), (847, 543), (826, 541), (806, 540), (749, 537), (718, 537), (690, 537), (665, 537), (617, 537), (598, 537), (584, 537), (571, 537), (553, 537)]",180.42231996476846,"[4, 3, 5, 9, 7, 6, 2, 1, 8]","(0, 0.25)",ENG009C,ENG,C,English,Fri Aug 31 09:56:13 2018,Mouse
1,0,3,0,95,3,5,0,-1009,519,490,131,0,500,200,8000,"[(960, 540), (960, 540), (960, 540), (960, 540), (960, 540), (960, 540), (960, 540), (960, 540), (960, 540), (960, 540), (960, 540), (960, 540), (960, 540), (960, 540), (960, 540), (960, 540), (960, 540), (960, 540), (960, 540), (960, 540), (960, 540), (960, 540), (960, 540), (960, 540), (960, 540), (960, 540), (960, 540), (960, 540), (960, 540), (960, 540), (960, 540), (960, 540), (960, 540), (960, 540), (960, 540), (960, 540), (960, 540), (960, 540), (960, 540), (960, 540), (960, 540), (960, 540), (960, 540), (960, 540), (960, 540), (960, 540), (960, 540), (960, 540), (960, 540), (960, 540), (960, 540), (960, 542), (960, 545), (960, 551), (967, 563), (969, 571), (972, 579), (978, 587), (987, 601), (992, 606), (995, 610), (999, 613), (1004, 622), (1007, 625), (1008, 628), (1010, 632), (1011, 635), (1012, 635), (1012, 637), (1012, 637), (1012, 637), (1012, 638), (1012, 638), (1012, 639), (1012, 641), (1012, 644), (1010, 645), (1007, 650), (994, 664), (987, 671), (977, 684), (964, 699), (948, 719), (940, 732), (931, 746), (921, 765), (909, 791), (905, 802), (903, 812), (901, 820), (898, 836), (898, 843), (898, 849), (898, 855), (898, 871), (898, 882), (898, 893), (898, 904), (898, 923), (898, 933), (898, 945)]",98.70363432119991,"[4, 3, 5, 9, 7, 6, 2, 1, 8]","(0, 0.25)",ENG009C,ENG,C,English,Fri Aug 31 09:56:13 2018,Mouse
1,0,3,0,96,7,7,1,500,360,140,132,0,500,200,8000,"[(960, 540), (960, 540), (960, 540), (960, 540), (960, 540), (960, 540), (960, 540), (960, 540), (960, 540), (960, 540), (960, 540), (960, 540), (960, 540), (960, 540), (960, 540), (960, 540), (960, 540), (960, 540), (960, 540), (960, 540), (960, 540), (960, 540), (960, 540), (960, 540), (960, 540), (960, 540), (960, 540), (960, 540), (960, 540), (960, 540), (960, 540), (960, 540), (960, 540), (960, 540), (960, 540), (958, 540), (943, 540), (932, 540), (920, 540), (905, 540), (873, 540), (854, 540), (834, 540), (814, 540), (775, 540), (758, 540), (733, 540), (691, 540), (592, 540), (542, 540)]",180.0,"[4, 3, 5, 9, 7, 6, 2, 1, 8]","(0, 0.25)",ENG009C,ENG,C,English,Fri Aug 31 09:56:13 2018,Mouse
1,0,3,0,97,6,6,1,619,339,280,132,0,500,200,8000,"[(960, 540), (960, 540), (960, 540), (960, 540), (960, 540), (960, 540), (960, 540), (960, 540), (960, 540), (960, 540), (960, 540), (960, 540), (960, 540), (960, 540), (960, 540), (960, 540), (960, 540), (960, 540), (960, 540), (960, 540), (960, 540), (960, 540), (960, 540), (960, 540), (960, 540), (960, 540), (960, 540), (960, 540), (960, 540), (960, 540), (960, 540), (960, 540), (960, 540), (959, 540), (957, 538), (953, 536), (947, 533), (937, 528), (931, 525), (921, 520), (915, 517), (898, 508), (890, 503), (882, 499), (875, 496), (855, 484), (847, 479), (839, 474), (830, 468), (812, 455), (802, 447), (793, 439), (783, 430), (755, 407), (743, 396), (728, 383), (707, 364), (677, 340), (659, 325), (650, 316), (640, 305), (627, 290)]",216.89741723042957,"[4, 3, 5, 9, 7, 6, 2, 1, 8]","(0, 0.25)",ENG009C,ENG,C,English,Fri Aug 31 09:56:13 2018,Mouse
1,0,3,0,98,4,5,0,-980,600,380,131,0,500,200,8000,"[(960, 540), (960, 540), (960, 540), (960, 540), (960, 540), (960, 540), (960, 540), (960, 540), (960, 540), (960, 540), (960, 540), (960, 540), (960, 540), (960, 540), (960, 540), (960, 540), (960, 540), (960, 540), (960, 540), (960, 540), (960, 540), (960, 540), (960, 540), (960, 540), (960, 540), (960, 540), (960, 540), (960, 540), (960, 540), (960, 540), (960, 540), (960, 540), (960, 540), (960, 540), (960, 540), (960, 540), (960, 540), (960, 540), (960, 540), (960, 540), (960, 540), (960, 540), (960, 540), (960, 540), (960, 540), (960, 540), (960, 540), (960, 540), (960, 540), (960, 540), (960, 540), (960, 540), (960, 540), (960, 540), (960, 540), (960, 540), (960, 540), (960, 540), (960, 540), (960, 541), (960, 541), (960, 542), (960, 544), (960, 545), (960, 545), (960, 545), (960, 546), (960, 546), (960, 547), (960, 547), (960, 547), (960, 548), (960, 548), (960, 549), (961, 550), (961, 550), (961, 551), (961, 552), (961, 555), (961, 558), (961, 561), (961, 565), (961, 578), (961, 583), (961, 588), (961, 595), (961, 617), (961, 632), (961, 648), (961, 682), (961, 768), (957, 797), (950, 827), (946, 852), (938, 897), (936, 915), (934, 929), (934, 942)]",93.70054305517834,"[4, 3, 5, 9, 7, 6, 2, 1, 8]","(0, 0.25)",ENG009C,ENG,C,English,Fri Aug 31 09:56:13 2018,Mouse
1,0,3,0,99,8,8,1,620,400,220,132,0,500,200,8000,"[(960, 540), (960, 540), (960, 540), (960, 540), (960, 540), (960, 540), (960, 540), (960, 540), (960, 540), (960, 540), (960, 540), (960, 540), (960, 540), (960, 540), (960, 540), (960, 540), (960, 540), (960, 540), (960, 540), (960, 540), (960, 540), (960, 540), (960, 540), (960, 540), (960, 540), (960, 540), (960, 540), (960, 540), (960, 540), (960, 540), (960, 540), (960, 540), (960, 540), (960, 540), (960, 540), (960, 540), (960, 540), (960, 540), (960, 540), (959, 540), (959, 539), (960, 538), (962, 537), (971, 532), (977, 530), (986, 526), (996, 522), (1033, 506), (1059, 497), (1085, 483), (1106, 475), (1151, 453), (1163, 446), (1176, 439), (1189, 432), (1214, 416), (1231, 405), (1245, 396), (1263, 386), (1295, 369), (1308, 364), (1321, 360)]",333.49846961675684,"[4, 3, 5, 9, 7, 6, 2, 1, 8]","(0, 0.25)",ENG009C,ENG,C,English,Fri Aug 31 09:56:13 2018,Mouse
1,0,3,0,100,7,6,0,-849,429,420,132,0,500,200,8000,"[(960, 540), (960, 540), (960, 540), (960, 540), (960, 540), (960, 540), (960, 540), (960, 540), (960, 540), (960, 540), (960, 540), (960, 540), (960, 540), (960, 540), (960, 540), (960, 540), (960, 540), (960, 540), (960, 540), (960, 540), (960, 540), (960, 540), (960, 540), (960, 540), (960, 540), (960, 540), (960, 540), (960, 540), (960, 540), (960, 540), (960, 540), (960, 540), (960, 540), (960, 540), (960, 540), (960, 540), (960, 540), (960, 540), (960, 540), (960, 540), (960, 540), (960, 540), (961, 538), (965, 536), (983, 529), (990, 526), (1001, 520), (1010, 516), (1030, 510), (1038, 508), (1044, 506), (1045, 506), (1046, 506), (1046, 506), (1046, 506), (1046, 506), (1046, 506), (1046, 506), (1046, 506), (1046, 506), (1046, 506), (1046, 506), (1046, 506), (1044, 506), (1039, 508), (1037, 509), (1034, 510), (1033, 511), (1027, 511), (1025, 511), (1022, 511), (1018, 511), (1004, 509), (993, 507), (979, 501), (950, 489), (885, 468), (849, 457), (809, 442), (771, 421), (712, 388), (690, 376), (665, 361), (645, 345), (602, 312)]",212.4918991130453,"[4, 3, 5, 9, 7, 6, 2, 1, 8]","(0, 0.25)",ENG009C,ENG,C,English,Fri Aug 31 09:56:13 2018,Mouse
1,0,3,0,101,2,2,1,548,68,480,133,0,500,200,8000,"[(960, 540), (960, 540), (960, 540), (960, 540), (960, 540), (960, 540), (963, 539), (969, 541), (974, 544), (977, 546), (981, 549), (982, 550), (982, 550), (985, 550), (985, 550), (985, 550), (985, 550), (985, 550), (985, 551), (985, 551), (985, 551), (985, 551), (985, 551), (985, 551), (985, 551), (985, 551), (985, 551), (985, 549), (985, 542), (985, 532), (985, 509), (985, 497), (985, 482), (985, 464), (979, 426), (978, 417), (976, 406), (972, 394), (967, 377), (965, 369), (963, 363), (962, 358), (960, 346), (957, 340), (956, 334), (953, 324), (946, 300), (944, 291), (939, 279), (935, 265), (926, 237), (921, 215), (917, 193), (914, 175), (910, 142)]",262.8395502731089,"[4, 3, 5, 9, 7, 6, 2, 1, 8]","(0, 0.25)",ENG009C,ENG,C,English,Fri Aug 31 09:56:13 2018,Mouse
1,0,3,0,102,3,6,0,-649,129,520,133,0,500,200,8000,"[(960, 540), (960, 540), (960, 540), (960, 540), (960, 540), (960, 540), (960, 540), (960, 540), (960, 540), (960, 540), (960, 540), (960, 540), (959, 542), (959, 543), (956, 551), (955, 556), (955, 559), (955, 563), (953, 570), (953, 572), (953, 575), (953, 576), (952, 582), (952, 583), (952, 584), (951, 585), (951, 585), (951, 585), (951, 585), (951, 585), (950, 586), (950, 586), (950, 586), (949, 586), (945, 586), (942, 585), (937, 582), (932, 579), (916, 568), (908, 562), (901, 556), (896, 554), (890, 548), (887, 546), (887, 545), (887, 545), (887, 545), (887, 545), (887, 545), (887, 545), (885, 545), (885, 543), (883, 540), (881, 535), (870, 519), (858, 503), (847, 484), (829, 456), (791, 391), (773, 356), (756, 323), (742, 299), (715, 255), (706, 241), (696, 227)]",229.85402646798693,"[4, 3, 5, 9, 7, 6, 2, 1, 8]","(0, 0.25)",ENG009C,ENG,C,English,Fri Aug 31 09:56:13 2018,Mouse
1,0,3,0,103,2,7,0,-449,89,360,134,0,500,200,8000,"[(960, 540), (960, 540), (960, 540), (960, 540), (960, 540), (960, 540), (960, 540), (960, 540), (959, 540), (959, 540), (959, 541), (959, 542), (959, 542), (959, 542), (959, 543), (959, 543), (959, 544), (959, 544), (959, 545), (959, 545), (959, 546), (959, 547), (959, 548), (959, 549), (958, 553), (954, 556), (950, 559), (943, 562), (925, 567), (913, 571), (899, 572), (882, 574), (845, 574), (828, 574), (806, 574), (789, 574), (750, 574), (733, 574), (716, 574), (693, 574), (643, 574), (623, 574), (604, 574), (584, 574), (557, 574)]",175.17753309430333,"[4, 3, 5, 9, 7, 6, 2, 1, 8]","(0, 0.25)",ENG009C,ENG,C,English,Fri Aug 31 09:56:13 2018,Mouse
1,0,3,0,104,1,1,1,528,68,460,135,0,500,200,8000,"[(960, 540), (960, 540), (960, 540), (960, 540), (960, 540), (960, 540), (960, 539), (964, 539), (971, 539), (976, 540), (981, 541), (984, 543), (987, 544), (988, 545), (993, 545), (996, 545), (1002, 545), (1009, 545), (1018, 545), (1023, 545), (1027, 545), (1027, 545), (1029, 545), (1030, 545), (1030, 545), (1032, 544), (1035, 542), (1035, 541), (1037, 537), (1039, 531), (1040, 516), (1042, 503), (1042, 491), (1042, 479), (1042, 457), (1042, 447), (1042, 439), (1045, 428), (1048, 402), (1050, 388), (1051, 375), (1054, 359), (1057, 330), (1061, 314), (1062, 301), (1066, 285), (1069, 260), (1074, 249), (1077, 236), (1083, 225), (1097, 197), (1111, 177), (1124, 160)]",293.3440109615775,"[4, 3, 5, 9, 7, 6, 2, 1, 8]","(0, 0.25)",ENG009C,ENG,C,English,Fri Aug 31 09:56:13 2018,Mouse
1,0,3,0,105,4,4,1,461,171,290,135,0,500,200,8000,"[(960, 540), (960, 540), (960, 540), (960, 540), (960, 540), (960, 540), (960, 540), (960, 540), (960, 540), (960, 540), (960, 540), (960, 540), (960, 540), (960, 540), (960, 540), (960, 540), (965, 540), (969, 542), (972, 544), (978, 551), (987, 562), (991, 568), (994, 574), (1000, 580), (1018, 597), (1030, 603), (1045, 610), (1065, 618), (1098, 625), (1114, 632), (1127, 635), (1138, 637), (1160, 643), (1169, 646), (1177, 648), (1183, 650), (1198, 653), (1207, 657), (1217, 659), (1230, 663), (1260, 667), (1272, 669), (1286, 670), (1301, 674), (1329, 676), (1341, 679)]",20.04345596188783,"[4, 3, 5, 9, 7, 6, 2, 1, 8]","(0, 0.25)",ENG009C,ENG,C,English,Fri Aug 31 09:56:13 2018,Mouse
1,0,3,0,106,2,2,1,460,150,310,134,0,500,200,8000,"[(960, 540), (960, 540), (960, 540), (960, 540), (960, 540), (960, 540), (960, 540), (960, 540), (960, 540), (960, 540), (960, 540), (960, 540), (960, 540), (960, 540), (959, 541), (958, 541), (956, 543), (952, 543), (950, 543), (949, 543), (948, 543), (947, 543), (947, 543), (947, 543), (947, 543), (946, 532), (946, 523), (947, 510), (948, 499), (950, 472), (950, 456), (950, 439), (950, 408), (950, 333), (950, 305), (950, 277), (950, 249), (950, 207), (950, 194), (949, 183), (947, 174), (946, 165), (945, 161), (945, 158), (945, 153), (943, 140)]",267.5663938992799,"[4, 3, 5, 9, 7, 6, 2, 1, 8]","(0, 0.25)",ENG009C,ENG,C,English,Fri Aug 31 09:56:13 2018,Mouse
