NativeLangNumber,LanuageNumber,SessionNumber,Block,TrialNum,ConditionNumber,Response,Accuracy,RT,MovementOnsetTime,TimeInMotion,SignalContrast,SignalContrastNumber,StimDisplayTime,MaskTime,MaxResponseTime,MousePositionXY,MouseAngle,WheelOrder,NoiseMuSigma,ParticipantID,LanuageTested,SessionTested,NativeLanuage,Date,ResponseDevice
2,0,2,0,1,1,1,1,485,415,70,153,0,500,200,8000,"[(512, 384), (512, 384), (512, 384), (512, 384), (512, 384), (512, 384), (512, 384), (512, 384), (512, 384), (512, 384), (512, 384), (512, 384), (512, 384), (512, 384), (512, 384), (512, 384), (512, 384), (512, 384), (512, 384), (512, 384), (512, 384), (512, 384), (512, 384), (512, 384), (512, 384), (512, 384), (512, 384), (512, 384), (512, 384), (512, 384), (512, 384), (512, 384), (512, 384), (512, 384), (512, 384), (512, 384), (512, 384), (512, 384), (512, 384), (512, 384), (512, 384), (517, 390), (525, 410), (540, 437), (573, 492), (588, 519), (606, 549), (623, 574), (658, 627)]",59.00158177855961,"[4, 1, 7, 2, 9, 5, 6, 3, 8]","(0, 0.25)",ENG002B,ENG,B,Chinese,Mon Sep 17 16:44:48 2018,Mouse
2,0,2,0,2,8,8,1,416,366,50,153,0,500,200,8000,"[(512, 384), (512, 384), (512, 384), (512, 384), (512, 384), (512, 384), (512, 384), (512, 384), (512, 384), (512, 384), (512, 384), (512, 384), (512, 384), (512, 384), (512, 384), (512, 384), (512, 384), (512, 384), (512, 384), (512, 384), (512, 384), (512, 384), (512, 384), (512, 384), (512, 384), (512, 384), (512, 384), (512, 384), (512, 384), (512, 384), (512, 384), (512, 384), (512, 384), (512, 384), (512, 384), (512, 384), (527, 376), (559, 364), (598, 351), (668, 327), (708, 312), (748, 295)]",339.33760542781687,"[4, 1, 7, 2, 9, 5, 6, 3, 8]","(0, 0.25)",ENG002B,ENG,B,Chinese,Mon Sep 17 16:44:48 2018,Mouse
2,0,2,0,3,5,5,1,262,142,120,152,0,500,200,8000,"[(512, 384), (512, 384), (512, 384), (512, 384), (512, 384), (512, 384), (512, 384), (512, 384), (512, 384), (512, 384), (512, 384), (512, 384), (512, 384), (512, 384), (511, 380), (501, 369), (488, 356), (473, 343), (446, 326), (435, 318), (420, 307), (410, 299), (377, 275), (362, 261), (346, 245), (331, 227), (294, 184)]",222.53424100500223,"[4, 1, 7, 2, 9, 5, 6, 3, 8]","(0, 0.25)",ENG002B,ENG,B,Chinese,Mon Sep 17 16:44:48 2018,Mouse
2,0,2,0,4,7,7,1,314,254,60,151,0,500,200,8000,"[(512, 384), (512, 384), (512, 384), (512, 384), (512, 384), (512, 384), (512, 384), (512, 384), (512, 384), (512, 384), (512, 384), (512, 384), (512, 384), (512, 384), (512, 384), (512, 384), (512, 384), (512, 384), (512, 384), (512, 384), (512, 384), (512, 384), (512, 384), (512, 384), (512, 384), (512, 387), (512, 401), (509, 469), (500, 510), (490, 554), (475, 596), (452, 679)]",101.49656301758577,"[4, 1, 7, 2, 9, 5, 6, 3, 8]","(0, 0.25)",ENG002B,ENG,B,Chinese,Mon Sep 17 16:44:48 2018,Mouse
2,0,2,0,5,5,5,1,322,262,60,150,0,500,200,8000,"[(512, 384), (512, 384), (512, 384), (512, 384), (512, 384), (512, 384), (512, 384), (512, 384), (512, 384), (512, 384), (512, 384), (512, 384), (512, 384), (512, 384), (512, 384), (512, 384), (512, 384), (512, 384), (512, 384), (512, 384), (512, 384), (512, 384), (512, 384), (512, 384), (512, 384), (512, 384), (510, 384), (494, 372), (435, 329), (393, 301), (355, 280), (316, 255), (234, 206)]",212.6309384740745,"[4, 1, 7, 2, 9, 5, 6, 3, 8]","(0, 0.25)",ENG002B,ENG,B,Chinese,Mon Sep 17 16:44:48 2018,Mouse
2,0,2,0,6,5,5,1,222,132,90,149,0,500,200,8000,"[(512, 384), (512, 384), (512, 384), (512, 384), (512, 384), (512, 384), (512, 384), (512, 384), (512, 384), (512, 384), (512, 384), (512, 384), (512, 384), (512, 383), (503, 377), (489, 369), (458, 346), (441, 334), (423, 322), (400, 301), (341, 261), (313, 239), (273, 208)]",216.36799327823238,"[4, 1, 7, 2, 9, 5, 6, 3, 8]","(0, 0.25)",ENG002B,ENG,B,Chinese,Mon Sep 17 16:44:48 2018,Mouse
2,0,2,0,7,3,3,1,235,145,90,148,0,500,200,8000,"[(512, 384), (512, 384), (512, 384), (512, 384), (512, 384), (512, 384), (512, 384), (512, 384), (512, 384), (512, 384), (512, 384), (512, 384), (512, 384), (512, 384), (514, 384), (521, 384), (530, 372), (538, 346), (544, 325), (553, 295), (562, 256), (581, 195), (590, 159), (603, 114)]",288.6257220785669,"[4, 1, 7, 2, 9, 5, 6, 3, 8]","(0, 0.25)",ENG002B,ENG,B,Chinese,Mon Sep 17 16:44:48 2018,Mouse
2,0,2,0,8,2,2,1,256,216,40,147,0,500,200,8000,"[(512, 384), (512, 384), (512, 384), (512, 384), (512, 384), (512, 384), (512, 384), (512, 384), (512, 384), (512, 384), (512, 384), (512, 384), (512, 384), (512, 384), (512, 384), (512, 384), (512, 384), (512, 384), (512, 384), (512, 384), (512, 384), (490, 399), (465, 414), (438, 431), (405, 451), (302, 520)]",147.07213734683586,"[4, 1, 7, 2, 9, 5, 6, 3, 8]","(0, 0.25)",ENG002B,ENG,B,Chinese,Mon Sep 17 16:44:48 2018,Mouse
2,0,2,0,9,5,5,1,281,211,70,146,0,500,200,8000,"[(512, 384), (512, 384), (512, 384), (512, 384), (512, 384), (512, 384), (512, 384), (512, 384), (512, 384), (512, 384), (512, 384), (512, 384), (512, 384), (512, 384), (512, 384), (512, 384), (512, 384), (512, 384), (512, 384), (512, 384), (512, 384), (510, 374), (501, 359), (486, 334), (449, 290), (430, 269), (403, 247), (375, 223), (317, 177)]",226.70981404414152,"[4, 1, 7, 2, 9, 5, 6, 3, 8]","(0, 0.25)",ENG002B,ENG,B,Chinese,Mon Sep 17 16:44:48 2018,Mouse
2,0,2,0,10,8,8,1,392,272,120,145,0,500,200,8000,"[(512, 384), (512, 384), (512, 384), (512, 384), (512, 384), (512, 384), (512, 384), (512, 384), (512, 384), (512, 384), (512, 384), (512, 384), (512, 384), (512, 384), (512, 384), (512, 384), (512, 384), (512, 384), (512, 384), (512, 384), (512, 384), (512, 384), (512, 384), (512, 384), (512, 384), (512, 384), (512, 384), (513, 384), (534, 375), (544, 372), (555, 367), (564, 365), (581, 359), (591, 354), (604, 350), (616, 345), (659, 324), (686, 309), (714, 292), (749, 273)]",334.9037495373078,"[4, 1, 7, 2, 9, 5, 6, 3, 8]","(0, 0.25)",ENG002B,ENG,B,Chinese,Mon Sep 17 16:44:48 2018,Mouse
2,0,2,0,11,2,2,1,422,372,50,144,0,500,200,8000,"[(512, 384), (512, 384), (512, 384), (512, 384), (512, 384), (512, 384), (512, 384), (512, 384), (512, 384), (512, 384), (512, 384), (512, 384), (512, 384), (512, 384), (512, 384), (512, 384), (512, 384), (512, 384), (512, 384), (512, 384), (512, 384), (512, 384), (512, 384), (512, 384), (512, 384), (512, 384), (512, 384), (512, 384), (512, 384), (512, 384), (512, 384), (512, 384), (512, 384), (512, 384), (512, 384), (512, 384), (512, 384), (504, 388), (487, 398), (462, 413), (432, 435), (342, 502), (295, 535)]",145.16777548741138,"[4, 1, 7, 2, 9, 5, 6, 3, 8]","(0, 0.25)",ENG002B,ENG,B,Chinese,Mon Sep 17 16:44:48 2018,Mouse
2,0,2,0,12,6,6,1,665,605,60,143,0,500,200,8000,"[(512, 384), (512, 384), (512, 384), (512, 384), (512, 384), (512, 384), (512, 384), (512, 384), (512, 384), (512, 384), (512, 384), (512, 384), (512, 384), (512, 384), (512, 384), (512, 384), (512, 384), (512, 384), (512, 384), (512, 384), (512, 384), (512, 384), (512, 384), (512, 384), (512, 384), (512, 384), (512, 384), (512, 384), (512, 384), (512, 384), (512, 384), (512, 384), (512, 384), (512, 384), (512, 384), (512, 384), (512, 384), (512, 384), (512, 384), (512, 384), (512, 384), (512, 384), (512, 384), (512, 384), (512, 384), (512, 384), (512, 384), (512, 384), (512, 384), (512, 384), (512, 384), (512, 384), (512, 384), (512, 384), (512, 384), (512, 384), (512, 384), (512, 384), (512, 384), (512, 384), (513, 384), (513, 384), (513, 342), (513, 293), (513, 251), (508, 197), (490, 91)]",265.7059853289635,"[4, 1, 7, 2, 9, 5, 6, 3, 8]","(0, 0.25)",ENG002B,ENG,B,Chinese,Mon Sep 17 16:44:48 2018,Mouse
2,0,2,0,13,1,1,1,573,503,70,142,0,500,200,8000,"[(512, 384), (512, 384), (512, 384), (512, 384), (512, 384), (512, 384), (512, 384), (512, 384), (512, 384), (512, 384), (512, 384), (512, 384), (512, 384), (512, 384), (512, 384), (512, 384), (512, 384), (512, 384), (512, 384), (512, 384), (512, 384), (512, 384), (512, 384), (512, 384), (512, 384), (512, 384), (512, 384), (512, 384), (512, 384), (512, 384), (512, 384), (512, 384), (512, 384), (512, 384), (512, 384), (512, 384), (512, 384), (512, 384), (512, 384), (512, 384), (512, 384), (512, 384), (512, 384), (512, 384), (512, 384), (512, 384), (512, 384), (512, 384), (512, 384), (512, 384), (515, 403), (536, 431), (574, 477), (588, 500), (601, 521), (611, 543), (633, 581), (643, 599)]",58.64595127922074,"[4, 1, 7, 2, 9, 5, 6, 3, 8]","(0, 0.25)",ENG002B,ENG,B,Chinese,Mon Sep 17 16:44:48 2018,Mouse
2,0,2,0,14,7,7,1,372,312,60,141,0,500,200,8000,"[(512, 384), (512, 384), (512, 384), (512, 384), (512, 384), (512, 384), (512, 384), (512, 384), (512, 384), (512, 384), (512, 384), (512, 384), (512, 384), (512, 384), (512, 384), (512, 384), (512, 384), (512, 384), (512, 384), (512, 384), (512, 384), (512, 384), (512, 384), (512, 384), (512, 384), (512, 384), (512, 384), (512, 384), (512, 384), (512, 384), (512, 384), (509, 396), (504, 421), (494, 449), (484, 480), (461, 568), (451, 615), (441, 666)]",104.13181598898234,"[4, 1, 7, 2, 9, 5, 6, 3, 8]","(0, 0.25)",ENG002B,ENG,B,Chinese,Mon Sep 17 16:44:48 2018,Mouse
2,0,2,0,15,2,2,1,811,311,500,140,0,500,200,8000,"[(512, 384), (512, 384), (512, 384), (512, 384), (512, 384), (512, 384), (512, 384), (512, 384), (512, 384), (512, 384), (512, 384), (512, 384), (512, 384), (512, 384), (512, 384), (512, 384), (512, 384), (512, 384), (512, 384), (512, 384), (512, 384), (512, 384), (512, 384), (512, 384), (512, 384), (512, 384), (512, 384), (512, 384), (512, 384), (512, 384), (512, 384), (512, 387), (511, 390), (510, 392), (507, 400), (506, 402), (505, 403), (504, 405), (504, 405), (503, 407), (503, 407), (503, 407), (503, 407), (503, 407), (503, 407), (503, 407), (503, 407), (503, 407), (503, 407), (503, 407), (503, 407), (503, 407), (503, 407), (503, 407), (503, 407), (503, 407), (503, 407), (503, 407), (503, 407), (503, 407), (503, 407), (503, 407), (503, 407), (503, 407), (503, 407), (503, 407), (503, 407), (503, 407), (503, 407), (503, 407), (503, 407), (503, 407), (503, 407), (503, 407), (503, 407), (503, 407), (498, 411), (485, 425), (436, 472), (397, 501), (352, 538), (305, 571)]",137.90592099965335,"[4, 1, 7, 2, 9, 5, 6, 3, 8]","(0, 0.25)",ENG002B,ENG,B,Chinese,Mon Sep 17 16:44:48 2018,Mouse
2,0,2,0,16,3,3,1,346,286,60,139,0,500,200,8000,"[(512, 384), (512, 384), (512, 384), (512, 384), (512, 384), (512, 384), (512, 384), (512, 384), (512, 384), (512, 384), (512, 384), (512, 384), (512, 384), (512, 384), (512, 384), (512, 384), (512, 384), (512, 384), (512, 384), (512, 384), (512, 384), (512, 384), (512, 384), (512, 384), (512, 384), (512, 384), (512, 384), (512, 384), (524, 362), (540, 339), (560, 316), (583, 290), (626, 228), (645, 196), (664, 165)]",304.7631200230943,"[4, 1, 7, 2, 9, 5, 6, 3, 8]","(0, 0.25)",ENG002B,ENG,B,Chinese,Mon Sep 17 16:44:48 2018,Mouse
2,0,2,0,17,9,3,0,-727,667,60,138,0,500,200,8000,"[(512, 384), (512, 384), (512, 384), (512, 384), (512, 384), (512, 384), (512, 384), (512, 384), (512, 384), (512, 384), (512, 384), (512, 384), (512, 384), (512, 384), (512, 384), (512, 384), (512, 384), (512, 384), (512, 384), (512, 384), (512, 384), (512, 384), (512, 384), (512, 384), (512, 384), (512, 384), (512, 384), (512, 384), (512, 384), (512, 384), (512, 384), (512, 384), (512, 384), (512, 384), (512, 384), (512, 384), (512, 384), (512, 384), (512, 384), (512, 384), (512, 384), (512, 384), (512, 384), (512, 384), (512, 384), (512, 384), (512, 384), (512, 384), (512, 384), (512, 384), (512, 384), (512, 384), (512, 384), (512, 384), (512, 384), (512, 384), (512, 384), (512, 384), (512, 384), (512, 384), (512, 384), (512, 384), (512, 384), (512, 384), (512, 384), (512, 384), (517, 365), (525, 344), (539, 315), (565, 254), (581, 227), (600, 187), (617, 157)]",294.82314037288864,"[4, 1, 7, 2, 9, 5, 6, 3, 8]","(0, 0.25)",ENG002B,ENG,B,Chinese,Mon Sep 17 16:44:48 2018,Mouse
2,0,2,0,18,8,8,1,222,112,110,139,0,500,200,8000,"[(512, 384), (512, 384), (512, 384), (512, 384), (512, 384), (512, 384), (512, 384), (512, 384), (512, 384), (512, 384), (512, 384), (518, 382), (527, 380), (552, 375), (567, 370), (581, 365), (601, 360), (637, 350), (656, 345), (682, 337), (700, 334), (747, 322), (770, 314)]",344.82007256547377,"[4, 1, 7, 2, 9, 5, 6, 3, 8]","(0, 0.25)",ENG002B,ENG,B,Chinese,Mon Sep 17 16:44:48 2018,Mouse
2,0,2,0,19,1,1,1,632,192,440,139,0,500,200,8000,"[(512, 384), (512, 384), (512, 384), (512, 384), (512, 384), (512, 384), (512, 384), (512, 384), (512, 384), (512, 384), (512, 384), (512, 384), (512, 384), (512, 384), (512, 384), (512, 384), (512, 384), (512, 384), (512, 384), (509, 386), (507, 386), (507, 386), (507, 386), (507, 386), (507, 386), (507, 386), (507, 386), (507, 386), (507, 386), (507, 386), (507, 386), (507, 386), (507, 386), (507, 386), (507, 386), (507, 386), (507, 386), (507, 386), (507, 386), (507, 386), (507, 386), (507, 386), (507, 386), (507, 386), (507, 386), (507, 389), (506, 393), (504, 397), (504, 399), (504, 400), (504, 401), (504, 402), (504, 403), (504, 404), (504, 408), (516, 428), (532, 446), (547, 468), (563, 491), (590, 537), (600, 553), (609, 570), (615, 581), (631, 608)]",62.02052561151985,"[4, 1, 7, 2, 9, 5, 6, 3, 8]","(0, 0.25)",ENG002B,ENG,B,Chinese,Mon Sep 17 16:44:48 2018,Mouse
2,0,2,0,20,1,4,0,-518,448,70,138,0,500,200,8000,"[(512, 384), (512, 384), (512, 384), (512, 384), (512, 384), (512, 384), (512, 384), (512, 384), (512, 384), (512, 384), (512, 384), (512, 384), (512, 384), (512, 384), (512, 384), (512, 384), (512, 384), (512, 384), (512, 384), (512, 384), (512, 384), (512, 384), (512, 384), (512, 384), (512, 384), (512, 384), (512, 384), (512, 384), (512, 384), (512, 384), (512, 384), (512, 384), (512, 384), (512, 384), (512, 384), (512, 384), (512, 384), (512, 384), (512, 384), (512, 384), (512, 384), (512, 384), (512, 384), (512, 384), (519, 385), (535, 390), (553, 392), (608, 405), (644, 414), (677, 423), (713, 432), (780, 451)]",14.036243467926479,"[4, 1, 7, 2, 9, 5, 6, 3, 8]","(0, 0.25)",ENG002B,ENG,B,Chinese,Mon Sep 17 16:44:48 2018,Mouse
2,0,2,0,21,7,7,1,262,102,160,139,0,500,200,8000,"[(512, 384), (512, 384), (512, 384), (512, 384), (512, 384), (512, 384), (512, 384), (512, 384), (512, 384), (512, 384), (509, 384), (507, 384), (499, 398), (497, 403), (493, 412), (488, 420), (485, 435), (483, 444), (482, 452), (481, 463), (477, 485), (474, 496), (471, 508), (466, 524), (454, 571), (447, 601), (440, 637)]",105.88555698846183,"[4, 1, 7, 2, 9, 5, 6, 3, 8]","(0, 0.25)",ENG002B,ENG,B,Chinese,Mon Sep 17 16:44:48 2018,Mouse
2,0,2,0,22,5,5,1,324,194,130,139,0,500,200,8000,"[(512, 384), (512, 384), (512, 384), (512, 384), (512, 384), (512, 384), (512, 384), (512, 384), (512, 384), (512, 384), (512, 384), (512, 384), (512, 384), (512, 384), (512, 384), (512, 384), (512, 384), (512, 384), (512, 384), (512, 381), (511, 374), (497, 367), (489, 362), (478, 354), (467, 348), (446, 335), (433, 328), (422, 323), (410, 316), (380, 296), (360, 281), (332, 259), (306, 241)]",214.76740542170356,"[4, 1, 7, 2, 9, 5, 6, 3, 8]","(0, 0.25)",ENG002B,ENG,B,Chinese,Mon Sep 17 16:44:48 2018,Mouse
2,0,2,0,23,3,3,1,412,342,70,138,0,500,200,8000,"[(512, 384), (512, 384), (512, 384), (512, 384), (512, 384), (512, 384), (512, 384), (512, 384), (512, 384), (512, 384), (512, 384), (512, 384), (512, 384), (512, 384), (512, 384), (512, 384), (512, 384), (512, 384), (512, 384), (512, 384), (512, 384), (512, 384), (512, 384), (512, 384), (512, 384), (512, 384), (512, 384), (512, 384), (512, 384), (512, 384), (512, 384), (512, 384), (512, 384), (512, 384), (515, 383), (525, 365), (541, 336), (571, 277), (586, 247), (607, 214), (624, 187), (663, 126)]",300.3392145384137,"[4, 1, 7, 2, 9, 5, 6, 3, 8]","(0, 0.25)",ENG002B,ENG,B,Chinese,Mon Sep 17 16:44:48 2018,Mouse
2,0,2,0,24,6,6,1,468,398,70,137,0,500,200,8000,"[(512, 384), (512, 384), (512, 384), (512, 384), (512, 384), (512, 384), (512, 384), (512, 384), (512, 384), (512, 384), (512, 384), (512, 384), (512, 384), (512, 384), (512, 384), (512, 384), (512, 384), (512, 384), (512, 384), (512, 384), (512, 384), (512, 384), (512, 384), (512, 384), (512, 384), (512, 384), (512, 384), (512, 384), (512, 384), (512, 384), (512, 384), (512, 384), (512, 384), (512, 384), (512, 384), (512, 384), (512, 384), (512, 384), (512, 384), (512, 378), (512, 359), (520, 328), (526, 301), (542, 230), (546, 195), (551, 158), (557, 115)]",279.496858538691,"[4, 1, 7, 2, 9, 5, 6, 3, 8]","(0, 0.25)",ENG002B,ENG,B,Chinese,Mon Sep 17 16:44:48 2018,Mouse
2,0,2,0,25,9,9,1,754,664,90,136,0,500,200,8000,"[(512, 384), (512, 384), (512, 384), (512, 384), (512, 384), (512, 384), (512, 384), (512, 384), (512, 384), (512, 384), (512, 384), (512, 384), (512, 384), (512, 384), (512, 384), (512, 384), (512, 384), (512, 384), (512, 384), (512, 384), (512, 384), (512, 384), (512, 384), (512, 384), (512, 384), (512, 384), (512, 384), (512, 384), (512, 384), (512, 384), (512, 384), (512, 384), (512, 384), (512, 384), (512, 384), (512, 384), (512, 384), (512, 384), (512, 384), (512, 384), (512, 384), (512, 384), (512, 384), (512, 384), (512, 384), (512, 384), (512, 384), (512, 384), (512, 384), (512, 384), (512, 384), (512, 384), (512, 384), (512, 384), (512, 384), (512, 384), (512, 384), (512, 384), (512, 384), (512, 384), (512, 384), (512, 384), (512, 384), (512, 384), (512, 384), (512, 384), (512, 386), (506, 389), (490, 396), (480, 400), (470, 402), (457, 407), (406, 415), (363, 422), (309, 428), (260, 436)]",168.34070734647702,"[4, 1, 7, 2, 9, 5, 6, 3, 8]","(0, 0.25)",ENG002B,ENG,B,Chinese,Mon Sep 17 16:44:48 2018,Mouse
2,0,2,0,26,1,1,1,425,325,100,135,0,500,200,8000,"[(512, 384), (512, 384), (512, 384), (512, 384), (512, 384), (512, 384), (512, 384), (512, 384), (512, 384), (512, 384), (512, 384), (512, 384), (512, 384), (512, 384), (512, 384), (512, 384), (512, 384), (512, 384), (512, 384), (512, 384), (512, 384), (512, 384), (512, 384), (512, 384), (512, 384), (512, 384), (512, 384), (512, 384), (512, 384), (512, 384), (512, 384), (512, 384), (517, 386), (525, 396), (534, 405), (541, 414), (560, 437), (570, 449), (584, 465), (601, 487), (641, 534), (657, 559), (674, 582)]",50.71059313749964,"[4, 1, 7, 2, 9, 5, 6, 3, 8]","(0, 0.25)",ENG002B,ENG,B,Chinese,Mon Sep 17 16:44:48 2018,Mouse
2,0,2,0,27,8,6,0,-672,592,80,134,0,500,200,8000,"[(512, 384), (512, 384), (512, 384), (512, 384), (512, 384), (512, 384), (512, 384), (512, 384), (512, 384), (512, 384), (512, 384), (512, 384), (512, 384), (512, 384), (512, 384), (512, 384), (512, 384), (512, 384), (512, 384), (512, 384), (512, 384), (512, 384), (512, 384), (512, 384), (512, 384), (512, 384), (512, 384), (512, 384), (512, 384), (512, 384), (512, 384), (512, 384), (512, 384), (512, 384), (512, 384), (512, 384), (512, 384), (512, 384), (512, 384), (512, 384), (512, 384), (512, 384), (512, 384), (512, 384), (512, 384), (512, 384), (512, 384), (512, 384), (512, 384), (512, 384), (512, 384), (512, 384), (512, 384), (512, 384), (512, 384), (512, 384), (512, 384), (512, 384), (512, 384), (511, 382), (511, 372), (509, 358), (500, 321), (495, 300), (487, 274), (479, 247), (452, 155), (441, 113)]",255.31889620075734,"[4, 1, 7, 2, 9, 5, 6, 3, 8]","(0, 0.25)",ENG002B,ENG,B,Chinese,Mon Sep 17 16:44:48 2018,Mouse
2,0,2,0,28,2,2,1,751,711,40,135,0,500,200,8000,"[(512, 384), (512, 384), (512, 384), (512, 384), (512, 384), (512, 384), (512, 384), (512, 384), (512, 384), (512, 384), (512, 384), (512, 384), (512, 384), (512, 384), (512, 384), (512, 384), (512, 384), (512, 384), (512, 384), (512, 384), (512, 384), (512, 384), (512, 384), (512, 384), (512, 384), (512, 384), (512, 384), (512, 384), (512, 384), (512, 384), (512, 384), (512, 384), (512, 384), (512, 384), (512, 384), (512, 384), (512, 384), (512, 384), (512, 384), (512, 384), (512, 384), (512, 384), (512, 384), (512, 384), (512, 384), (512, 384), (512, 384), (512, 384), (512, 384), (512, 384), (512, 384), (512, 384), (512, 384), (512, 384), (512, 384), (512, 384), (512, 384), (512, 384), (512, 384), (512, 384), (512, 384), (512, 384), (512, 384), (512, 384), (512, 384), (512, 384), (512, 384), (512, 384), (512, 384), (512, 384), (512, 384), (502, 402), (465, 431), (423, 466), (370, 511), (262, 605)]",138.52331780630928,"[4, 1, 7, 2, 9, 5, 6, 3, 8]","(0, 0.25)",ENG002B,ENG,B,Chinese,Mon Sep 17 16:44:48 2018,Mouse
2,0,2,0,29,8,3,0,-476,396,80,135,0,500,200,8000,"[(512, 384), (512, 384), (512, 384), (512, 384), (512, 384), (512, 384), (512, 384), (512, 384), (512, 384), (512, 384), (512, 384), (512, 384), (512, 384), (512, 384), (512, 384), (512, 384), (512, 384), (512, 384), (512, 384), (512, 384), (512, 384), (512, 384), (512, 384), (512, 384), (512, 384), (512, 384), (512, 384), (512, 384), (512, 384), (512, 384), (512, 384), (512, 384), (512, 384), (512, 384), (512, 384), (512, 384), (512, 384), (512, 384), (512, 384), (514, 382), (519, 377), (524, 369), (530, 360), (559, 325), (583, 289), (612, 237), (641, 193), (698, 107)]",303.88057648147424,"[4, 1, 7, 2, 9, 5, 6, 3, 8]","(0, 0.25)",ENG002B,ENG,B,Chinese,Mon Sep 17 16:44:48 2018,Mouse
2,0,2,0,30,7,7,1,287,77,210,136,0,500,200,8000,"[(512, 384), (512, 384), (512, 384), (512, 384), (512, 384), (512, 384), (512, 384), (512, 385), (510, 396), (508, 408), (507, 425), (500, 459), (496, 475), (492, 487), (488, 499), (485, 513), (483, 518), (483, 518), (483, 520), (483, 521), (483, 521), (483, 521), (483, 522), (482, 534), (481, 546), (477, 564), (476, 582), (464, 626), (456, 651)]",101.84539145958475,"[4, 1, 7, 2, 9, 5, 6, 3, 8]","(0, 0.25)",ENG002B,ENG,B,Chinese,Mon Sep 17 16:44:48 2018,Mouse
2,0,2,0,31,7,7,1,247,207,40,136,0,500,200,8000,"[(512, 384), (512, 384), (512, 384), (512, 384), (512, 384), (512, 384), (512, 384), (512, 384), (512, 384), (512, 384), (512, 384), (512, 384), (512, 384), (512, 384), (512, 384), (512, 384), (512, 384), (512, 384), (512, 384), (512, 384), (512, 396), (512, 435), (492, 525), (472, 576), (447, 627)]",104.97543441366206,"[4, 1, 7, 2, 9, 5, 6, 3, 8]","(0, 0.25)",ENG002B,ENG,B,Chinese,Mon Sep 17 16:44:48 2018,Mouse
2,0,2,0,32,4,5,0,-1173,1083,90,135,0,500,200,8000,"[(512, 384), (512, 384), (512, 384), (512, 384), (512, 384), (512, 384), (512, 384), (512, 384), (512, 384), (512, 384), (512, 384), (512, 384), (512, 384), (512, 384), (512, 384), (512, 384), (512, 384), (512, 384), (512, 384), (512, 384), (512, 384), (512, 384), (512, 384), (512, 384), (512, 384), (512, 384), (512, 384), (512, 384), (512, 384), (512, 384), (512, 384), (512, 384), (512, 384), (512, 384), (512, 384), (512, 384), (512, 384), (512, 384), (512, 384), (512, 384), (512, 384), (512, 384), (512, 384), (512, 384), (512, 384), (512, 384), (512, 384), (512, 384), (512, 384), (512, 384), (512, 384), (512, 384), (512, 384), (512, 384), (512, 384), (512, 384), (512, 384), (512, 384), (512, 384), (512, 384), (512, 384), (512, 384), (512, 384), (512, 384), (512, 384), (512, 384), (512, 384), (512, 384), (512, 384), (512, 384), (512, 384), (512, 384), (512, 384), (512, 384), (512, 384), (512, 384), (512, 384), (512, 384), (512, 384), (512, 384), (512, 384), (512, 384), (512, 384), (512, 384), (512, 384), (512, 384), (512, 384), (512, 384), (512, 384), (512, 384), (512, 384), (512, 384), (512, 384), (512, 384), (512, 384), (512, 384), (512, 384), (512, 384), (512, 384), (512, 384), (512, 384), (512, 384), (512, 384), (512, 384), (512, 384), (512, 384), (512, 384), (512, 384), (512, 380), (511, 363), (489, 331), (477, 317), (463, 301), (449, 286), (408, 245), (387, 225), (366, 206), (340, 187)]",228.8759047881811,"[4, 1, 7, 2, 9, 5, 6, 3, 8]","(0, 0.25)",ENG002B,ENG,B,Chinese,Mon Sep 17 16:44:48 2018,Mouse
2,0,2,0,33,2,7,0,-312,262,50,136,0,500,200,8000,"[(512, 384), (512, 384), (512, 384), (512, 384), (512, 384), (512, 384), (512, 384), (512, 384), (512, 384), (512, 384), (512, 384), (512, 384), (512, 384), (512, 384), (512, 384), (512, 384), (512, 384), (512, 384), (512, 384), (512, 384), (512, 384), (512, 384), (512, 384), (512, 384), (512, 384), (512, 384), (512, 389), (510, 424), (494, 469), (453, 555), (432, 591), (415, 621)]",112.25843646795619,"[4, 1, 7, 2, 9, 5, 6, 3, 8]","(0, 0.25)",ENG002B,ENG,B,Chinese,Mon Sep 17 16:44:48 2018,Mouse
2,0,2,0,34,4,9,0,-1573,1093,480,137,0,500,200,8000,"[(512, 384), (512, 384), (512, 384), (512, 384), (512, 384), (512, 384), (512, 384), (512, 384), (512, 384), (512, 384), (512, 384), (512, 384), (512, 384), (512, 384), (512, 384), (512, 384), (512, 384), (512, 384), (512, 384), (512, 384), (512, 384), (512, 384), (512, 384), (512, 384), (512, 384), (512, 384), (512, 384), (512, 384), (512, 384), (512, 384), (512, 384), (512, 384), (512, 384), (512, 384), (512, 384), (512, 384), (512, 384), (512, 384), (512, 384), (512, 384), (512, 384), (512, 384), (512, 384), (512, 384), (512, 384), (512, 384), (512, 384), (512, 384), (512, 384), (512, 384), (512, 384), (512, 384), (512, 384), (512, 384), (512, 384), (512, 384), (512, 384), (512, 384), (512, 384), (512, 384), (512, 384), (512, 384), (512, 384), (512, 384), (512, 384), (512, 384), (512, 384), (512, 384), (512, 384), (512, 384), (512, 384), (512, 384), (512, 384), (512, 384), (512, 384), (512, 384), (512, 384), (512, 384), (512, 384), (512, 384), (512, 384), (512, 384), (512, 384), (512, 384), (512, 384), (512, 384), (512, 384), (512, 384), (512, 384), (512, 384), (512, 384), (512, 384), (512, 384), (512, 384), (512, 384), (512, 384), (512, 384), (512, 384), (512, 384), (512, 384), (512, 384), (512, 384), (512, 384), (512, 384), (512, 384), (512, 384), (512, 384), (512, 384), (512, 384), (512, 383), (508, 381), (502, 380), (496, 380), (490, 377), (485, 376), (483, 376), (481, 375), (478, 373), (478, 373), (478, 373), (478, 373), (478, 373), (478, 373), (478, 373), (478, 373), (478, 373), (478, 373), (478, 373), (478, 373), (478, 373), (478, 373), (478, 373), (478, 373), (478, 373), (478, 373), (478, 373), (478, 373), (478, 373), (478, 373), (478, 373), (478, 373), (478, 373), (478, 373), (478, 373), (478, 373), (478, 373), (478, 373), (478, 373), (478, 373), (478, 373), (478, 373), (478, 373), (478, 373), (466, 373), (441, 373), (396, 376), (346, 378), (230, 378)]",181.2188752351313,"[4, 1, 7, 2, 9, 5, 6, 3, 8]","(0, 0.25)",ENG002B,ENG,B,Chinese,Mon Sep 17 16:44:48 2018,Mouse
2,0,2,0,35,6,6,1,402,312,90,138,0,500,200,8000,"[(512, 384), (512, 384), (512, 384), (512, 384), (512, 384), (512, 384), (512, 384), (512, 384), (512, 384), (512, 384), (512, 384), (512, 384), (512, 384), (512, 384), (512, 384), (512, 384), (512, 384), (512, 384), (512, 384), (512, 384), (512, 384), (512, 384), (512, 384), (512, 384), (512, 384), (512, 384), (512, 384), (512, 384), (512, 384), (512, 384), (512, 384), (513, 385), (513, 370), (513, 357), (513, 340), (511, 316), (492, 250), (483, 214), (470, 175), (461, 144), (448, 92)]",257.6375075842857,"[4, 1, 7, 2, 9, 5, 6, 3, 8]","(0, 0.25)",ENG002B,ENG,B,Chinese,Mon Sep 17 16:44:48 2018,Mouse
2,0,2,0,36,4,5,0,-632,362,270,138,0,500,200,8000,"[(512, 384), (512, 384), (512, 384), (512, 384), (512, 384), (512, 384), (512, 384), (512, 384), (512, 384), (512, 384), (512, 384), (512, 384), (512, 384), (512, 384), (512, 384), (512, 384), (512, 384), (512, 384), (512, 384), (512, 384), (512, 384), (512, 384), (512, 384), (512, 384), (512, 384), (512, 384), (512, 384), (512, 384), (512, 384), (512, 384), (512, 384), (512, 384), (512, 384), (512, 384), (512, 384), (512, 384), (505, 372), (494, 357), (484, 343), (474, 333), (450, 310), (434, 296), (417, 283), (400, 270), (378, 257), (371, 253), (365, 248), (361, 247), (358, 245), (357, 245), (356, 244), (356, 244), (356, 244), (356, 244), (356, 244), (356, 244), (356, 244), (356, 244), (355, 243), (350, 242), (337, 239), (330, 236), (320, 233), (312, 230)]",217.59627114721198,"[4, 1, 7, 2, 9, 5, 6, 3, 8]","(0, 0.25)",ENG002B,ENG,B,Chinese,Mon Sep 17 16:44:48 2018,Mouse
2,0,2,0,37,3,8,0,-325,75,250,139,0,500,200,8000,"[(512, 384), (512, 384), (512, 384), (512, 384), (512, 384), (512, 384), (512, 384), (519, 384), (546, 384), (560, 384), (572, 384), (584, 384), (607, 384), (620, 384), (633, 382), (644, 381), (672, 376), (683, 374), (691, 371), (698, 369), (704, 367), (706, 366), (708, 365), (710, 365), (715, 362), (716, 362), (717, 361), (722, 358), (732, 346), (740, 334), (747, 325), (752, 316), (761, 304)]",342.1885598347219,"[4, 1, 7, 2, 9, 5, 6, 3, 8]","(0, 0.25)",ENG002B,ENG,B,Chinese,Mon Sep 17 16:44:48 2018,Mouse
2,0,2,0,38,7,7,1,263,123,140,140,0,500,200,8000,"[(512, 384), (512, 384), (512, 384), (512, 384), (512, 384), (512, 384), (512, 384), (512, 384), (512, 384), (512, 384), (512, 384), (512, 384), (509, 398), (507, 409), (506, 421), (504, 434), (500, 461), (499, 475), (499, 488), (499, 502), (499, 538), (499, 555), (499, 575), (499, 586), (499, 614), (499, 626), (499, 638)]",92.92990464060972,"[4, 1, 7, 2, 9, 5, 6, 3, 8]","(0, 0.25)",ENG002B,ENG,B,Chinese,Mon Sep 17 16:44:48 2018,Mouse
2,0,2,0,39,4,4,1,540,410,130,140,0,500,200,8000,"[(512, 384), (512, 384), (512, 384), (512, 384), (512, 384), (512, 384), (512, 384), (512, 384), (512, 384), (512, 384), (512, 384), (512, 384), (512, 384), (512, 384), (512, 384), (512, 384), (512, 384), (512, 384), (512, 384), (512, 384), (512, 384), (512, 384), (512, 384), (512, 384), (512, 384), (512, 384), (512, 384), (512, 384), (512, 384), (512, 384), (512, 384), (512, 384), (512, 384), (512, 384), (512, 384), (512, 384), (512, 384), (512, 384), (512, 384), (512, 384), (513, 385), (541, 402), (552, 408), (565, 415), (579, 422), (616, 442), (635, 454), (651, 462), (667, 472), (693, 487), (704, 493), (711, 495), (722, 501), (742, 507)]",28.137096492942984,"[4, 1, 7, 2, 9, 5, 6, 3, 8]","(0, 0.25)",ENG002B,ENG,B,Chinese,Mon Sep 17 16:44:48 2018,Mouse
2,0,2,0,40,5,3,0,-362,142,220,139,0,500,200,8000,"[(512, 384), (512, 384), (512, 384), (512, 384), (512, 384), (512, 384), (512, 384), (512, 384), (512, 384), (512, 384), (512, 384), (512, 384), (512, 384), (512, 384), (511, 384), (511, 381), (514, 370), (517, 364), (520, 358), (523, 349), (530, 329), (533, 318), (539, 306), (542, 294), (550, 267), (552, 255), (557, 241), (561, 226), (568, 202), (572, 196), (573, 188), (574, 183), (577, 173), (579, 168), (583, 162), (588, 152), (594, 136)]",288.2962183930344,"[4, 1, 7, 2, 9, 5, 6, 3, 8]","(0, 0.25)",ENG002B,ENG,B,Chinese,Mon Sep 17 16:44:48 2018,Mouse
2,0,2,0,41,7,7,1,525,465,60,140,0,500,200,8000,"[(512, 384), (512, 384), (512, 384), (512, 384), (512, 384), (512, 384), (512, 384), (512, 384), (512, 384), (512, 384), (512, 384), (512, 384), (512, 384), (512, 384), (512, 384), (512, 384), (512, 384), (512, 384), (512, 384), (512, 384), (512, 384), (512, 384), (512, 384), (512, 384), (512, 384), (512, 384), (512, 384), (512, 384), (512, 384), (512, 384), (512, 384), (512, 384), (512, 384), (512, 384), (512, 384), (512, 384), (512, 384), (512, 384), (512, 384), (512, 384), (512, 384), (512, 384), (512, 384), (512, 384), (512, 384), (512, 384), (512, 385), (512, 385), (512, 391), (510, 412), (507, 449), (486, 580), (477, 653)]",97.4131957087493,"[4, 1, 7, 2, 9, 5, 6, 3, 8]","(0, 0.25)",ENG002B,ENG,B,Chinese,Mon Sep 17 16:44:48 2018,Mouse
2,0,2,0,42,3,3,1,392,252,140,140,0,500,200,8000,"[(512, 384), (512, 384), (512, 384), (512, 384), (512, 384), (512, 384), (512, 384), (512, 384), (512, 384), (512, 384), (512, 384), (512, 384), (512, 384), (512, 384), (512, 384), (512, 384), (512, 384), (512, 384), (512, 384), (512, 384), (512, 384), (512, 384), (512, 384), (512, 384), (512, 384), (513, 381), (517, 370), (526, 348), (531, 338), (535, 328), (541, 318), (549, 300), (554, 290), (559, 281), (564, 270), (577, 236), (588, 215), (597, 191), (604, 171), (621, 139)]",293.98418370262624,"[4, 1, 7, 2, 9, 5, 6, 3, 8]","(0, 0.25)",ENG002B,ENG,B,Chinese,Mon Sep 17 16:44:48 2018,Mouse
2,0,2,0,43,9,9,1,312,202,110,139,0,500,200,8000,"[(512, 384), (512, 384), (512, 384), (512, 384), (512, 384), (512, 384), (512, 384), (512, 384), (512, 384), (512, 384), (512, 384), (512, 384), (512, 384), (512, 384), (512, 384), (512, 384), (512, 384), (512, 384), (512, 384), (512, 384), (498, 384), (488, 382), (478, 381), (468, 380), (446, 377), (429, 374), (411, 373), (390, 368), (341, 366), (316, 366), (285, 366), (246, 366)]",183.87125623198563,"[4, 1, 7, 2, 9, 5, 6, 3, 8]","(0, 0.25)",ENG002B,ENG,B,Chinese,Mon Sep 17 16:44:48 2018,Mouse
2,0,2,0,44,2,2,1,452,352,100,138,0,500,200,8000,"[(512, 384), (512, 384), (512, 384), (512, 384), (512, 384), (512, 384), (512, 384), (512, 384), (512, 384), (512, 384), (512, 384), (512, 384), (512, 384), (512, 384), (512, 384), (512, 384), (512, 384), (512, 384), (512, 384), (512, 384), (512, 384), (512, 384), (512, 384), (512, 384), (512, 384), (512, 384), (512, 384), (512, 384), (512, 384), (512, 384), (512, 384), (512, 384), (512, 384), (512, 384), (512, 384), (505, 386), (484, 396), (435, 415), (411, 426), (393, 434), (363, 448), (334, 463), (317, 472), (306, 479), (295, 486), (272, 504)]",153.434948822922,"[4, 1, 7, 2, 9, 5, 6, 3, 8]","(0, 0.25)",ENG002B,ENG,B,Chinese,Mon Sep 17 16:44:48 2018,Mouse
2,0,2,0,45,3,3,1,357,217,140,137,0,500,200,8000,"[(512, 384), (512, 384), (512, 384), (512, 384), (512, 384), (512, 384), (512, 384), (512, 384), (512, 384), (512, 384), (512, 384), (512, 384), (512, 384), (512, 384), (512, 384), (512, 384), (512, 384), (512, 384), (512, 384), (512, 384), (512, 384), (516, 382), (523, 374), (530, 363), (533, 357), (538, 346), (542, 338), (555, 316), (561, 307), (568, 294), (576, 280), (602, 239), (621, 216), (634, 196), (646, 184), (663, 162)]",304.2227608707919,"[4, 1, 7, 2, 9, 5, 6, 3, 8]","(0, 0.25)",ENG002B,ENG,B,Chinese,Mon Sep 17 16:44:48 2018,Mouse
2,0,2,0,46,8,7,0,-372,302,70,136,0,500,200,8000,"[(512, 384), (512, 384), (512, 384), (512, 384), (512, 384), (512, 384), (512, 384), (512, 384), (512, 384), (512, 384), (512, 384), (512, 384), (512, 384), (512, 384), (512, 384), (512, 384), (512, 384), (512, 384), (512, 384), (512, 384), (512, 384), (512, 384), (512, 384), (512, 384), (512, 384), (512, 384), (512, 384), (512, 384), (512, 384), (512, 384), (511, 384), (509, 401), (495, 469), (490, 498), (478, 530), (471, 550), (455, 603), (452, 627)]",103.86968643850504,"[4, 1, 7, 2, 9, 5, 6, 3, 8]","(0, 0.25)",ENG002B,ENG,B,Chinese,Mon Sep 17 16:44:48 2018,Mouse
2,0,2,0,47,4,3,0,-471,411,60,137,0,500,200,8000,"[(512, 384), (512, 384), (512, 384), (512, 384), (512, 384), (512, 384), (512, 384), (512, 384), (512, 384), (512, 384), (512, 384), (512, 384), (512, 384), (512, 384), (512, 384), (512, 384), (512, 384), (512, 384), (512, 384), (512, 384), (512, 384), (512, 384), (512, 384), (512, 384), (512, 384), (512, 384), (512, 384), (512, 384), (512, 384), (512, 384), (512, 384), (512, 384), (512, 384), (512, 384), (512, 384), (512, 384), (512, 384), (512, 384), (512, 384), (512, 384), (512, 384), (512, 377), (518, 353), (552, 270), (567, 236), (581, 201), (598, 169), (630, 102)]",292.7063708403059,"[4, 1, 7, 2, 9, 5, 6, 3, 8]","(0, 0.25)",ENG002B,ENG,B,Chinese,Mon Sep 17 16:44:48 2018,Mouse
2,0,2,0,48,1,1,1,412,322,90,138,0,500,200,8000,"[(512, 384), (512, 384), (512, 384), (512, 384), (512, 384), (512, 384), (512, 384), (512, 384), (512, 384), (512, 384), (512, 384), (512, 384), (512, 384), (512, 384), (512, 384), (512, 384), (512, 384), (512, 384), (512, 384), (512, 384), (512, 384), (512, 384), (512, 384), (512, 384), (512, 384), (512, 384), (512, 384), (512, 384), (512, 384), (512, 384), (512, 384), (512, 384), (514, 391), (523, 408), (532, 429), (538, 442), (557, 478), (569, 497), (586, 522), (607, 548), (641, 596), (655, 615)]",58.240519915187214,"[4, 1, 7, 2, 9, 5, 6, 3, 8]","(0, 0.25)",ENG002B,ENG,B,Chinese,Mon Sep 17 16:44:48 2018,Mouse
2,0,2,0,49,4,4,1,572,502,70,138,0,500,200,8000,"[(512, 384), (512, 384), (512, 384), (512, 384), (512, 384), (512, 384), (512, 384), (512, 384), (512, 384), (512, 384), (512, 384), (512, 384), (512, 384), (512, 384), (512, 384), (512, 384), (512, 384), (512, 384), (512, 384), (512, 384), (512, 384), (512, 384), (512, 384), (512, 384), (512, 384), (512, 384), (512, 384), (512, 384), (512, 384), (512, 384), (512, 384), (512, 384), (512, 384), (512, 384), (512, 384), (512, 384), (512, 384), (512, 384), (512, 384), (512, 384), (512, 384), (512, 384), (512, 384), (512, 384), (512, 384), (512, 384), (512, 384), (512, 384), (512, 384), (512, 384), (515, 384), (548, 394), (567, 400), (590, 407), (618, 416), (685, 435), (724, 446), (760, 459)]",16.82633263077217,"[4, 1, 7, 2, 9, 5, 6, 3, 8]","(0, 0.25)",ENG002B,ENG,B,Chinese,Mon Sep 17 16:44:48 2018,Mouse
2,0,2,0,50,2,2,1,502,382,120,137,0,500,200,8000,"[(512, 384), (512, 384), (512, 384), (512, 384), (512, 384), (512, 384), (512, 384), (512, 384), (512, 384), (512, 384), (512, 384), (512, 384), (512, 384), (512, 384), (512, 384), (512, 384), (512, 384), (512, 384), (512, 384), (512, 384), (512, 384), (512, 384), (512, 384), (512, 384), (512, 384), (512, 384), (512, 384), (512, 384), (512, 384), (512, 384), (512, 384), (512, 384), (512, 384), (512, 384), (512, 384), (512, 384), (512, 384), (512, 384), (511, 384), (508, 384), (501, 384), (491, 387), (465, 399), (446, 409), (420, 422), (397, 440), (365, 476), (349, 499), (338, 516), (322, 536), (301, 565)]",139.37635038948414,"[4, 1, 7, 2, 9, 5, 6, 3, 8]","(0, 0.25)",ENG002B,ENG,B,Chinese,Mon Sep 17 16:44:48 2018,Mouse
2,0,2,0,51,2,8,0,-515,425,90,136,0,500,200,8000,"[(512, 384), (512, 384), (512, 384), (512, 384), (512, 384), (512, 384), (512, 384), (512, 384), (512, 384), (512, 384), (512, 384), (512, 384), (512, 384), (512, 384), (512, 384), (512, 384), (512, 384), (512, 384), (512, 384), (512, 384), (512, 384), (512, 384), (512, 384), (512, 384), (512, 384), (512, 384), (512, 384), (512, 384), (512, 384), (512, 384), (512, 384), (512, 384), (512, 384), (512, 384), (512, 384), (512, 384), (512, 384), (512, 384), (512, 384), (512, 384), (512, 384), (512, 384), (512, 383), (533, 366), (557, 355), (582, 347), (616, 337), (667, 319), (692, 313), (717, 305), (742, 299), (782, 286)]",340.05097781644287,"[4, 1, 7, 2, 9, 5, 6, 3, 8]","(0, 0.25)",ENG002B,ENG,B,Chinese,Mon Sep 17 16:44:48 2018,Mouse
2,0,2,0,52,6,6,1,642,542,100,137,0,500,200,8000,"[(512, 384), (512, 384), (512, 384), (512, 384), (512, 384), (512, 384), (512, 384), (512, 384), (512, 384), (512, 384), (512, 384), (512, 384), (512, 384), (512, 384), (512, 384), (512, 384), (512, 384), (512, 384), (512, 384), (512, 384), (512, 384), (512, 384), (512, 384), (512, 384), (512, 384), (512, 384), (512, 384), (512, 384), (512, 384), (512, 384), (512, 384), (512, 384), (512, 384), (512, 384), (512, 384), (512, 384), (512, 384), (512, 384), (512, 384), (512, 384), (512, 384), (512, 384), (512, 384), (512, 384), (512, 384), (512, 384), (512, 384), (512, 384), (512, 384), (512, 384), (512, 384), (512, 384), (512, 384), (512, 384), (511, 382), (505, 358), (500, 319), (497, 301), (491, 281), (486, 262), (480, 227), (476, 211), (471, 194), (465, 172), (454, 99)]",258.4968930067116,"[4, 1, 7, 2, 9, 5, 6, 3, 8]","(0, 0.25)",ENG002B,ENG,B,Chinese,Mon Sep 17 16:44:48 2018,Mouse
2,0,2,0,53,5,5,1,471,391,80,137,0,500,200,8000,"[(512, 384), (512, 384), (512, 384), (512, 384), (512, 384), (512, 384), (512, 384), (512, 384), (512, 384), (512, 384), (512, 384), (512, 384), (512, 384), (512, 384), (512, 384), (512, 384), (512, 384), (512, 384), (512, 384), (512, 384), (512, 384), (512, 384), (512, 384), (512, 384), (512, 384), (512, 384), (512, 384), (512, 384), (512, 384), (512, 384), (512, 384), (512, 384), (512, 384), (512, 384), (512, 384), (512, 384), (512, 384), (512, 384), (512, 384), (502, 379), (485, 371), (467, 363), (447, 356), (402, 336), (375, 319), (345, 301), (315, 283), (263, 255)]",207.38742215707614,"[4, 1, 7, 2, 9, 5, 6, 3, 8]","(0, 0.25)",ENG002B,ENG,B,Chinese,Mon Sep 17 16:44:48 2018,Mouse
2,0,2,0,54,8,6,0,-1520,1450,70,136,0,500,200,8000,"[(512, 384), (512, 384), (512, 384), (512, 384), (512, 384), (512, 384), (512, 384), (512, 384), (512, 384), (512, 384), (512, 384), (512, 384), (512, 384), (512, 384), (512, 384), (512, 384), (512, 384), (512, 384), (512, 384), (512, 384), (512, 384), (512, 384), (512, 384), (512, 384), (512, 384), (512, 384), (512, 384), (512, 384), (512, 384), (512, 384), (512, 384), (512, 384), (512, 384), (512, 384), (512, 384), (512, 384), (512, 384), (512, 384), (512, 384), (512, 384), (512, 384), (512, 384), (512, 384), (512, 384), (512, 384), (512, 384), (512, 384), (512, 384), (512, 384), (512, 384), (512, 384), (512, 384), (512, 384), (512, 384), (512, 384), (512, 384), (512, 384), (512, 384), (512, 384), (512, 384), (512, 384), (512, 384), (512, 384), (512, 384), (512, 384), (512, 384), (512, 384), (512, 384), (512, 384), (512, 384), (512, 384), (512, 384), (512, 384), (512, 384), (512, 384), (512, 384), (512, 384), (512, 384), (512, 384), (512, 384), (512, 384), (512, 384), (512, 384), (512, 384), (512, 384), (512, 384), (512, 384), (512, 384), (512, 384), (512, 384), (512, 384), (512, 384), (512, 384), (512, 384), (512, 384), (512, 384), (512, 384), (512, 384), (512, 384), (512, 384), (512, 384), (512, 384), (512, 384), (512, 384), (512, 384), (512, 384), (512, 384), (512, 384), (512, 384), (512, 384), (512, 384), (512, 384), (512, 384), (512, 384), (512, 384), (512, 384), (512, 384), (512, 384), (512, 384), (512, 384), (512, 384), (512, 384), (512, 384), (512, 384), (512, 384), (512, 384), (512, 384), (512, 384), (512, 384), (512, 384), (512, 384), (512, 384), (512, 384), (512, 384), (512, 384), (512, 384), (512, 384), (512, 384), (512, 384), (512, 384), (512, 384), (512, 384), (512, 384), (512, 384), (512, 377), (505, 356), (499, 332), (491, 306), (471, 232), (462, 196), (449, 159), (438, 120)]",254.34165470098029,"[4, 1, 7, 2, 9, 5, 6, 3, 8]","(0, 0.25)",ENG002B,ENG,B,Chinese,Mon Sep 17 16:44:48 2018,Mouse
2,0,2,0,55,3,3,1,482,412,70,137,0,500,200,8000,"[(512, 384), (512, 384), (512, 384), (512, 384), (512, 384), (512, 384), (512, 384), (512, 384), (512, 384), (512, 384), (512, 384), (512, 384), (512, 384), (512, 384), (512, 384), (512, 384), (512, 384), (512, 384), (512, 384), (512, 384), (512, 384), (512, 384), (512, 384), (512, 384), (512, 384), (512, 384), (512, 384), (512, 384), (512, 384), (512, 384), (512, 384), (512, 384), (512, 384), (512, 384), (512, 384), (512, 384), (512, 384), (512, 384), (512, 384), (512, 384), (512, 384), (534, 356), (555, 327), (573, 292), (592, 264), (625, 217), (639, 197), (649, 183), (662, 168)]",304.7778313663639,"[4, 1, 7, 2, 9, 5, 6, 3, 8]","(0, 0.25)",ENG002B,ENG,B,Chinese,Mon Sep 17 16:44:48 2018,Mouse
2,0,2,0,56,4,4,1,532,472,60,137,0,500,200,8000,"[(512, 384), (512, 384), (512, 384), (512, 384), (512, 384), (512, 384), (512, 384), (512, 384), (512, 384), (512, 384), (512, 384), (512, 384), (512, 384), (512, 384), (512, 384), (512, 384), (512, 384), (512, 384), (512, 384), (512, 384), (512, 384), (512, 384), (512, 384), (512, 384), (512, 384), (512, 384), (512, 384), (512, 384), (512, 384), (512, 384), (512, 384), (512, 384), (512, 384), (512, 384), (512, 384), (512, 384), (512, 384), (512, 384), (512, 384), (512, 384), (512, 384), (512, 384), (512, 384), (512, 384), (512, 384), (512, 384), (512, 384), (518, 391), (542, 400), (608, 422), (638, 431), (664, 441), (701, 457), (772, 485)]",21.229233638976346,"[4, 1, 7, 2, 9, 5, 6, 3, 8]","(0, 0.25)",ENG002B,ENG,B,Chinese,Mon Sep 17 16:44:48 2018,Mouse
2,0,2,0,57,7,7,1,402,291,111,136,0,500,200,8000,"[(512, 384), (512, 384), (512, 384), (512, 384), (512, 384), (512, 384), (512, 384), (512, 384), (512, 384), (512, 384), (512, 384), (512, 384), (512, 384), (512, 384), (512, 384), (512, 384), (512, 384), (512, 384), (512, 384), (512, 384), (512, 384), (512, 384), (512, 384), (512, 384), (512, 384), (512, 384), (512, 384), (512, 384), (512, 384), (511, 384), (511, 389), (510, 394), (505, 411), (503, 424), (499, 442), (495, 468), (481, 534), (473, 559), (465, 587), (456, 610), (442, 655)]",104.48308190914116,"[4, 1, 7, 2, 9, 5, 6, 3, 8]","(0, 0.25)",ENG002B,ENG,B,Chinese,Mon Sep 17 16:44:48 2018,Mouse
2,0,2,0,58,3,3,1,482,362,120,135,0,500,200,8000,"[(512, 384), (512, 384), (512, 384), (512, 384), (512, 384), (512, 384), (512, 384), (512, 384), (512, 384), (512, 384), (512, 384), (512, 384), (512, 384), (512, 384), (512, 384), (512, 384), (512, 384), (512, 384), (512, 384), (512, 384), (512, 384), (512, 384), (512, 384), (512, 384), (512, 384), (512, 384), (512, 384), (512, 384), (512, 384), (512, 384), (512, 384), (512, 384), (512, 384), (512, 384), (512, 384), (512, 384), (518, 378), (525, 369), (531, 362), (547, 345), (557, 335), (566, 325), (578, 317), (598, 296), (607, 284), (618, 269), (633, 249), (663, 207), (679, 184)]",309.861881422551,"[4, 1, 7, 2, 9, 5, 6, 3, 8]","(0, 0.25)",ENG002B,ENG,B,Chinese,Mon Sep 17 16:44:48 2018,Mouse
2,0,2,0,59,9,9,1,404,304,100,134,0,500,200,8000,"[(512, 384), (512, 384), (512, 384), (512, 384), (512, 384), (512, 384), (512, 384), (512, 384), (512, 384), (512, 384), (512, 384), (512, 384), (512, 384), (512, 384), (512, 384), (512, 384), (512, 384), (512, 384), (512, 384), (512, 384), (512, 384), (512, 384), (512, 384), (512, 384), (512, 384), (512, 384), (512, 384), (512, 384), (512, 384), (512, 384), (512, 385), (508, 385), (498, 385), (488, 385), (461, 385), (440, 385), (417, 385), (387, 385), (317, 377), (283, 374), (245, 367)]",183.64312821220602,"[4, 1, 7, 2, 9, 5, 6, 3, 8]","(0, 0.25)",ENG002B,ENG,B,Chinese,Mon Sep 17 16:44:48 2018,Mouse
2,0,2,0,60,8,3,0,-563,483,80,133,0,500,200,8000,"[(512, 384), (512, 384), (512, 384), (512, 384), (512, 384), (512, 384), (512, 384), (512, 384), (512, 384), (512, 384), (512, 384), (512, 384), (512, 384), (512, 384), (512, 384), (512, 384), (512, 384), (512, 384), (512, 384), (512, 384), (512, 384), (512, 384), (512, 384), (512, 384), (512, 384), (512, 384), (512, 384), (512, 384), (512, 384), (512, 384), (512, 384), (512, 384), (512, 384), (512, 384), (512, 384), (512, 384), (512, 384), (512, 384), (512, 384), (512, 384), (512, 384), (512, 384), (512, 384), (512, 384), (512, 384), (512, 384), (512, 384), (512, 384), (514, 384), (519, 376), (529, 353), (537, 333), (548, 312), (565, 284), (612, 200), (634, 166), (659, 130)]",300.0596901043313,"[4, 1, 7, 2, 9, 5, 6, 3, 8]","(0, 0.25)",ENG002B,ENG,B,Chinese,Mon Sep 17 16:44:48 2018,Mouse
2,0,2,0,61,1,3,0,-381,311,70,134,0,500,200,8000,"[(512, 384), (512, 384), (512, 384), (512, 384), (512, 384), (512, 384), (512, 384), (512, 384), (512, 384), (512, 384), (512, 384), (512, 384), (512, 384), (512, 384), (512, 384), (512, 384), (512, 384), (512, 384), (512, 384), (512, 384), (512, 384), (512, 384), (512, 384), (512, 384), (512, 384), (512, 384), (512, 384), (512, 384), (512, 384), (512, 384), (512, 384), (512, 378), (520, 363), (535, 338), (570, 281), (588, 251), (610, 217), (640, 178), (691, 117)]",303.83837378539164,"[4, 1, 7, 2, 9, 5, 6, 3, 8]","(0, 0.25)",ENG002B,ENG,B,Chinese,Mon Sep 17 16:44:48 2018,Mouse
2,0,2,0,62,4,9,0,-362,282,80,135,0,500,200,8000,"[(512, 384), (512, 384), (512, 384), (512, 384), (512, 384), (512, 384), (512, 384), (512, 384), (512, 384), (512, 384), (512, 384), (512, 384), (512, 384), (512, 384), (512, 384), (512, 384), (512, 384), (512, 384), (512, 384), (512, 384), (512, 384), (512, 384), (512, 384), (512, 384), (512, 384), (512, 384), (512, 384), (512, 384), (509, 386), (499, 390), (485, 393), (464, 394), (397, 394), (358, 394), (325, 394), (297, 394), (236, 394)]",177.9249736385826,"[4, 1, 7, 2, 9, 5, 6, 3, 8]","(0, 0.25)",ENG002B,ENG,B,Chinese,Mon Sep 17 16:44:48 2018,Mouse
2,0,2,0,63,8,3,0,-282,212,70,136,0,500,200,8000,"[(512, 384), (512, 384), (512, 384), (512, 384), (512, 384), (512, 384), (512, 384), (512, 384), (512, 384), (512, 384), (512, 384), (512, 384), (512, 384), (512, 384), (512, 384), (512, 384), (512, 384), (512, 384), (512, 384), (512, 384), (512, 384), (513, 384), (523, 374), (534, 357), (572, 301), (598, 260), (625, 221), (654, 182), (708, 111)]",305.676408221862,"[4, 1, 7, 2, 9, 5, 6, 3, 8]","(0, 0.25)",ENG002B,ENG,B,Chinese,Mon Sep 17 16:44:48 2018,Mouse
2,0,2,0,64,1,2,0,-1083,1023,60,137,0,500,200,8000,"[(512, 384), (512, 384), (512, 384), (512, 384), (512, 384), (512, 384), (512, 384), (512, 384), (512, 384), (512, 384), (512, 384), (512, 384), (512, 384), (512, 384), (512, 384), (512, 384), (512, 384), (512, 384), (512, 384), (512, 384), (512, 384), (512, 384), (512, 384), (512, 384), (512, 384), (512, 384), (512, 384), (512, 384), (512, 384), (512, 384), (512, 384), (512, 384), (512, 384), (512, 384), (512, 384), (512, 384), (512, 384), (512, 384), (512, 384), (512, 384), (512, 384), (512, 384), (512, 384), (512, 384), (512, 384), (512, 384), (512, 384), (512, 384), (512, 384), (512, 384), (512, 384), (512, 384), (512, 384), (512, 384), (512, 384), (512, 384), (512, 384), (512, 384), (512, 384), (512, 384), (512, 384), (512, 384), (512, 384), (512, 384), (512, 384), (512, 384), (512, 384), (512, 384), (512, 384), (512, 384), (512, 384), (512, 384), (512, 384), (512, 384), (512, 384), (512, 384), (512, 384), (512, 384), (512, 384), (512, 384), (512, 384), (512, 384), (512, 384), (512, 384), (512, 384), (512, 384), (512, 384), (512, 384), (512, 384), (512, 384), (512, 384), (512, 384), (512, 384), (512, 384), (512, 384), (512, 384), (512, 384), (512, 384), (512, 384), (512, 384), (512, 384), (512, 384), (506, 390), (486, 414), (470, 432), (446, 455), (419, 479), (350, 541), (318, 573)]",135.7479441892886,"[4, 1, 7, 2, 9, 5, 6, 3, 8]","(0, 0.25)",ENG002B,ENG,B,Chinese,Mon Sep 17 16:44:48 2018,Mouse
2,0,2,0,65,1,3,0,-825,745,80,138,0,500,200,8000,"[(512, 384), (512, 384), (512, 384), (512, 384), (512, 384), (512, 384), (512, 384), (512, 384), (512, 384), (512, 384), (512, 384), (512, 384), (512, 384), (512, 384), (512, 384), (512, 384), (512, 384), (512, 384), (512, 384), (512, 384), (512, 384), (512, 384), (512, 384), (512, 384), (512, 384), (512, 384), (512, 384), (512, 384), (512, 384), (512, 384), (512, 384), (512, 384), (512, 384), (512, 384), (512, 384), (512, 384), (512, 384), (512, 384), (512, 384), (512, 384), (512, 384), (512, 384), (512, 384), (512, 384), (512, 384), (512, 384), (512, 384), (512, 384), (512, 384), (512, 384), (512, 384), (512, 384), (512, 384), (512, 384), (512, 384), (512, 384), (512, 384), (512, 384), (512, 384), (512, 384), (512, 384), (512, 384), (512, 384), (512, 384), (512, 384), (512, 384), (512, 384), (512, 384), (512, 384), (512, 384), (512, 384), (512, 384), (512, 384), (512, 384), (514, 368), (519, 357), (524, 347), (531, 336), (556, 292), (573, 267), (594, 238), (612, 206), (652, 152)]",301.10880882854514,"[4, 1, 7, 2, 9, 5, 6, 3, 8]","(0, 0.25)",ENG002B,ENG,B,Chinese,Mon Sep 17 16:44:48 2018,Mouse
2,0,2,0,66,8,8,1,401,291,110,139,0,500,200,8000,"[(512, 384), (512, 384), (512, 384), (512, 384), (512, 384), (512, 384), (512, 384), (512, 384), (512, 384), (512, 384), (512, 384), (512, 384), (512, 384), (512, 384), (512, 384), (512, 384), (512, 384), (512, 384), (512, 384), (512, 384), (512, 384), (512, 384), (512, 384), (512, 384), (512, 384), (512, 384), (512, 384), (512, 384), (512, 384), (515, 384), (523, 381), (531, 378), (539, 375), (563, 370), (579, 366), (598, 361), (622, 356), (673, 340), (708, 333), (734, 325), (756, 319)]",345.08319909182933,"[4, 1, 7, 2, 9, 5, 6, 3, 8]","(0, 0.25)",ENG002B,ENG,B,Chinese,Mon Sep 17 16:44:48 2018,Mouse
2,0,2,0,67,4,4,1,424,344,80,139,0,500,200,8000,"[(512, 384), (512, 384), (512, 384), (512, 384), (512, 384), (512, 384), (512, 384), (512, 384), (512, 384), (512, 384), (512, 384), (512, 384), (512, 384), (512, 384), (512, 384), (512, 384), (512, 384), (512, 384), (512, 384), (512, 384), (512, 384), (512, 384), (512, 384), (512, 384), (512, 384), (512, 384), (512, 384), (512, 384), (512, 384), (512, 384), (512, 384), (512, 384), (512, 384), (512, 384), (512, 385), (515, 388), (557, 408), (583, 418), (609, 429), (633, 440), (688, 464), (714, 475), (746, 489)]",24.166629842985486,"[4, 1, 7, 2, 9, 5, 6, 3, 8]","(0, 0.25)",ENG002B,ENG,B,Chinese,Mon Sep 17 16:44:48 2018,Mouse
2,0,2,0,68,3,3,1,402,272,130,138,0,500,200,8000,"[(512, 384), (512, 384), (512, 384), (512, 384), (512, 384), (512, 384), (512, 384), (512, 384), (512, 384), (512, 384), (512, 384), (512, 384), (512, 384), (512, 384), (512, 384), (512, 384), (512, 384), (512, 384), (512, 384), (512, 384), (512, 384), (512, 384), (512, 384), (512, 384), (512, 384), (512, 384), (512, 384), (512, 382), (513, 371), (515, 362), (525, 339), (530, 329), (535, 318), (542, 307), (553, 287), (560, 277), (570, 264), (579, 250), (612, 202), (627, 182), (644, 157)]",300.17790681315256,"[4, 1, 7, 2, 9, 5, 6, 3, 8]","(0, 0.25)",ENG002B,ENG,B,Chinese,Mon Sep 17 16:44:48 2018,Mouse
2,0,2,0,69,3,3,1,257,147,110,137,0,500,200,8000,"[(512, 384), (512, 384), (512, 384), (512, 384), (512, 384), (512, 384), (512, 384), (512, 384), (512, 384), (512, 384), (512, 384), (512, 384), (512, 384), (512, 384), (513, 382), (517, 377), (522, 373), (533, 361), (540, 354), (546, 348), (564, 330), (578, 317), (591, 300), (611, 279), (654, 227), (676, 193)]",310.65066626528187,"[4, 1, 7, 2, 9, 5, 6, 3, 8]","(0, 0.25)",ENG002B,ENG,B,Chinese,Mon Sep 17 16:44:48 2018,Mouse
2,0,2,0,70,9,9,1,392,272,120,136,0,500,200,8000,"[(512, 384), (512, 384), (512, 384), (512, 384), (512, 384), (512, 384), (512, 384), (512, 384), (512, 384), (512, 384), (512, 384), (512, 384), (512, 384), (512, 384), (512, 384), (512, 384), (512, 384), (512, 384), (512, 384), (512, 384), (512, 384), (512, 384), (512, 384), (512, 384), (512, 384), (512, 384), (512, 384), (500, 385), (488, 385), (471, 385), (456, 385), (415, 378), (397, 376), (376, 372), (361, 371), (330, 366), (310, 366), (290, 366), (271, 366), (234, 366)]",183.7046274420771,"[4, 1, 7, 2, 9, 5, 6, 3, 8]","(0, 0.25)",ENG002B,ENG,B,Chinese,Mon Sep 17 16:44:48 2018,Mouse
2,0,2,0,71,6,9,0,-639,589,50,135,0,500,200,8000,"[(512, 384), (512, 384), (512, 384), (512, 384), (512, 384), (512, 384), (512, 384), (512, 384), (512, 384), (512, 384), (512, 384), (512, 384), (512, 384), (512, 384), (512, 384), (512, 384), (512, 384), (512, 384), (512, 384), (512, 384), (512, 384), (512, 384), (512, 384), (512, 384), (512, 384), (512, 384), (512, 384), (512, 384), (512, 384), (512, 384), (512, 384), (512, 384), (512, 384), (512, 384), (512, 384), (512, 384), (512, 384), (512, 384), (512, 384), (512, 384), (512, 384), (512, 384), (512, 384), (512, 384), (512, 384), (512, 384), (512, 384), (512, 384), (512, 384), (512, 384), (512, 384), (512, 384), (512, 384), (512, 384), (512, 384), (512, 384), (512, 384), (512, 384), (490, 391), (466, 395), (426, 398), (388, 406), (302, 417), (259, 424)]",171.01574444685997,"[4, 1, 7, 2, 9, 5, 6, 3, 8]","(0, 0.25)",ENG002B,ENG,B,Chinese,Mon Sep 17 16:44:48 2018,Mouse
2,0,2,0,72,4,6,0,-767,707,60,136,0,500,200,8000,"[(512, 384), (512, 384), (512, 384), (512, 384), (512, 384), (512, 384), (512, 384), (512, 384), (512, 384), (512, 384), (512, 384), (512, 384), (512, 384), (512, 384), (512, 384), (512, 384), (512, 384), (512, 384), (512, 384), (512, 384), (512, 384), (512, 384), (512, 384), (512, 384), (512, 384), (512, 384), (512, 384), (512, 384), (512, 384), (512, 384), (512, 384), (512, 384), (512, 384), (512, 384), (512, 384), (512, 384), (512, 384), (512, 384), (512, 384), (512, 384), (512, 384), (512, 384), (512, 384), (512, 384), (512, 384), (512, 384), (512, 384), (512, 384), (512, 384), (512, 384), (512, 384), (512, 384), (512, 384), (512, 384), (512, 384), (512, 384), (512, 384), (512, 384), (512, 384), (512, 384), (512, 384), (512, 384), (512, 384), (512, 384), (512, 384), (512, 384), (512, 384), (512, 384), (512, 384), (512, 384), (515, 367), (519, 349), (520, 323), (522, 278), (528, 199), (528, 160), (528, 118)]",273.44221528589736,"[4, 1, 7, 2, 9, 5, 6, 3, 8]","(0, 0.25)",ENG002B,ENG,B,Chinese,Mon Sep 17 16:44:48 2018,Mouse
2,0,2,0,73,2,5,0,-751,711,40,137,0,500,200,8000,"[(512, 384), (512, 384), (512, 384), (512, 384), (512, 384), (512, 384), (512, 384), (512, 384), (512, 384), (512, 384), (512, 384), (512, 384), (512, 384), (512, 384), (512, 384), (512, 384), (512, 384), (512, 384), (512, 384), (512, 384), (512, 384), (512, 384), (512, 384), (512, 384), (512, 384), (512, 384), (512, 384), (512, 384), (512, 384), (512, 384), (512, 384), (512, 384), (512, 384), (512, 384), (512, 384), (512, 384), (512, 384), (512, 384), (512, 384), (512, 384), (512, 384), (512, 384), (512, 384), (512, 384), (512, 384), (512, 384), (512, 384), (512, 384), (512, 384), (512, 384), (512, 384), (512, 384), (512, 384), (512, 384), (512, 384), (512, 384), (512, 384), (512, 384), (512, 384), (512, 384), (512, 384), (512, 384), (512, 384), (512, 384), (512, 384), (512, 384), (512, 384), (512, 384), (512, 384), (512, 384), (512, 384), (487, 368), (459, 349), (420, 321), (376, 291), (297, 232)]",215.25942233072877,"[4, 1, 7, 2, 9, 5, 6, 3, 8]","(0, 0.25)",ENG002B,ENG,B,Chinese,Mon Sep 17 16:44:48 2018,Mouse
2,0,2,0,74,7,7,1,472,352,120,138,0,500,200,8000,"[(512, 384), (512, 384), (512, 384), (512, 384), (512, 384), (512, 384), (512, 384), (512, 384), (512, 384), (512, 384), (512, 384), (512, 384), (512, 384), (512, 384), (512, 384), (512, 384), (512, 384), (512, 384), (512, 384), (512, 384), (512, 384), (512, 384), (512, 384), (512, 384), (512, 384), (512, 384), (512, 384), (512, 384), (512, 384), (512, 384), (512, 384), (512, 384), (512, 384), (512, 384), (512, 384), (513, 384), (509, 408), (504, 425), (500, 441), (495, 458), (487, 487), (484, 501), (483, 516), (479, 533), (473, 581), (471, 599), (469, 619), (464, 639)]",100.66034829453534,"[4, 1, 7, 2, 9, 5, 6, 3, 8]","(0, 0.25)",ENG002B,ENG,B,Chinese,Mon Sep 17 16:44:48 2018,Mouse
2,0,2,0,75,3,3,1,392,292,100,138,0,500,200,8000,"[(512, 384), (512, 384), (512, 384), (512, 384), (512, 384), (512, 384), (512, 384), (512, 384), (512, 384), (512, 384), (512, 384), (512, 384), (512, 384), (512, 384), (512, 384), (512, 384), (512, 384), (512, 384), (512, 384), (512, 384), (512, 384), (512, 384), (512, 384), (512, 384), (512, 384), (512, 384), (512, 384), (512, 384), (512, 384), (517, 373), (523, 362), (529, 347), (544, 311), (553, 290), (565, 271), (575, 255), (598, 217), (612, 197), (621, 181), (632, 159)]",298.07248693585296,"[4, 1, 7, 2, 9, 5, 6, 3, 8]","(0, 0.25)",ENG002B,ENG,B,Chinese,Mon Sep 17 16:44:48 2018,Mouse
2,0,2,0,76,6,2,0,-1383,1303,80,137,0,500,200,8000,"[(512, 384), (512, 384), (512, 384), (512, 384), (512, 384), (512, 384), (512, 384), (512, 384), (512, 384), (512, 384), (512, 384), (512, 384), (512, 384), (512, 384), (512, 384), (512, 384), (512, 384), (512, 384), (512, 384), (512, 384), (512, 384), (512, 384), (512, 384), (512, 384), (512, 384), (512, 384), (512, 384), (512, 384), (512, 384), (512, 384), (512, 384), (512, 384), (512, 384), (512, 384), (512, 384), (512, 384), (512, 384), (512, 384), (512, 384), (512, 384), (512, 384), (512, 384), (512, 384), (512, 384), (512, 384), (512, 384), (512, 384), (512, 384), (512, 384), (512, 384), (512, 384), (512, 384), (512, 384), (512, 384), (512, 384), (512, 384), (512, 384), (512, 384), (512, 384), (512, 384), (512, 384), (512, 384), (512, 384), (512, 384), (512, 384), (512, 384), (512, 384), (512, 384), (512, 384), (512, 384), (512, 384), (512, 384), (512, 384), (512, 384), (512, 384), (512, 384), (512, 384), (512, 384), (512, 384), (512, 384), (512, 384), (512, 384), (512, 384), (512, 384), (512, 384), (512, 384), (512, 384), (512, 384), (512, 384), (512, 384), (512, 384), (512, 384), (512, 384), (512, 384), (512, 384), (512, 384), (512, 384), (512, 384), (512, 384), (512, 384), (512, 384), (512, 384), (512, 384), (512, 384), (512, 384), (512, 384), (512, 384), (512, 384), (512, 384), (512, 384), (512, 384), (512, 384), (512, 384), (512, 384), (512, 384), (512, 384), (512, 384), (512, 384), (512, 384), (512, 384), (512, 384), (512, 384), (512, 384), (512, 384), (512, 384), (512, 384), (512, 384), (512, 384), (512, 384), (512, 384), (508, 388), (499, 399), (483, 415), (446, 449), (425, 468), (405, 485), (385, 501), (328, 541), (303, 560)]",139.89909245378777,"[4, 1, 7, 2, 9, 5, 6, 3, 8]","(0, 0.25)",ENG002B,ENG,B,Chinese,Mon Sep 17 16:44:48 2018,Mouse
2,0,2,0,77,5,5,1,632,552,80,138,0,500,200,8000,"[(512, 384), (512, 384), (512, 384), (512, 384), (512, 384), (512, 384), (512, 384), (512, 384), (512, 384), (512, 384), (512, 384), (512, 384), (512, 384), (512, 384), (512, 384), (512, 384), (512, 384), (512, 384), (512, 384), (512, 384), (512, 384), (512, 384), (512, 384), (512, 384), (512, 384), (512, 384), (512, 384), (512, 384), (512, 384), (512, 384), (512, 384), (512, 384), (512, 384), (512, 384), (512, 384), (512, 384), (512, 384), (512, 384), (512, 384), (512, 384), (512, 384), (512, 384), (512, 384), (512, 384), (512, 384), (512, 384), (512, 384), (512, 384), (512, 384), (512, 384), (512, 384), (512, 384), (512, 384), (512, 384), (512, 384), (512, 379), (498, 365), (466, 336), (443, 318), (387, 278), (364, 262), (343, 251), (315, 232), (264, 195)]",217.3109084066558,"[4, 1, 7, 2, 9, 5, 6, 3, 8]","(0, 0.25)",ENG002B,ENG,B,Chinese,Mon Sep 17 16:44:48 2018,Mouse
2,0,2,0,78,4,4,1,531,402,129,138,0,500,200,8000,"[(512, 384), (512, 384), (512, 384), (512, 384), (512, 384), (512, 384), (512, 384), (512, 384), (512, 384), (512, 384), (512, 384), (512, 384), (512, 384), (512, 384), (512, 384), (512, 384), (512, 384), (512, 384), (512, 384), (512, 384), (512, 384), (512, 384), (512, 384), (512, 384), (512, 384), (512, 384), (512, 384), (512, 384), (512, 384), (512, 384), (512, 384), (512, 384), (512, 384), (512, 384), (512, 384), (512, 384), (512, 384), (512, 384), (512, 384), (512, 384), (517, 384), (527, 387), (539, 393), (556, 399), (587, 411), (609, 419), (627, 426), (645, 432), (679, 445), (695, 451), (709, 456), (720, 458), (741, 466), (748, 468)]",19.59228189105153,"[4, 1, 7, 2, 9, 5, 6, 3, 8]","(0, 0.25)",ENG002B,ENG,B,Chinese,Mon Sep 17 16:44:48 2018,Mouse
2,0,2,0,79,9,9,1,902,842,60,137,0,500,200,8000,"[(512, 384), (512, 384), (512, 384), (512, 384), (512, 384), (512, 384), (512, 384), (512, 384), (512, 384), (512, 384), (512, 384), (512, 384), (512, 384), (512, 384), (512, 384), (512, 384), (512, 384), (512, 384), (512, 384), (512, 384), (512, 384), (512, 384), (512, 384), (512, 384), (512, 384), (512, 384), (512, 384), (512, 384), (512, 384), (512, 384), (512, 384), (512, 384), (512, 384), (512, 384), (512, 384), (512, 384), (512, 384), (512, 384), (512, 384), (512, 384), (512, 384), (512, 384), (512, 384), (512, 384), (512, 384), (512, 384), (512, 384), (512, 384), (512, 384), (512, 384), (512, 384), (512, 384), (512, 384), (512, 384), (512, 384), (512, 384), (512, 384), (512, 384), (512, 384), (512, 384), (512, 384), (512, 384), (512, 384), (512, 384), (512, 384), (512, 384), (512, 384), (512, 384), (512, 384), (512, 384), (512, 384), (512, 384), (512, 384), (512, 384), (512, 384), (512, 384), (512, 384), (512, 384), (512, 384), (512, 384), (512, 384), (512, 384), (512, 384), (512, 384), (488, 384), (465, 384), (435, 384), (398, 384), (326, 384), (282, 384), (234, 384)]",180.0,"[4, 1, 7, 2, 9, 5, 6, 3, 8]","(0, 0.25)",ENG002B,ENG,B,Chinese,Mon Sep 17 16:44:48 2018,Mouse
2,0,2,0,80,2,7,0,-454,374,80,136,0,500,200,8000,"[(512, 384), (512, 384), (512, 384), (512, 384), (512, 384), (512, 384), (512, 384), (512, 384), (512, 384), (512, 384), (512, 384), (512, 384), (512, 384), (512, 384), (512, 384), (512, 384), (512, 384), (512, 384), (512, 384), (512, 384), (512, 384), (512, 384), (512, 384), (512, 384), (512, 384), (512, 384), (512, 384), (512, 384), (512, 384), (512, 384), (512, 384), (512, 384), (512, 384), (512, 384), (512, 384), (512, 384), (512, 384), (515, 389), (515, 404), (515, 423), (508, 473), (503, 514), (497, 546), (490, 584), (485, 619), (473, 681)]",97.48088617952368,"[4, 1, 7, 2, 9, 5, 6, 3, 8]","(0, 0.25)",ENG002B,ENG,B,Chinese,Mon Sep 17 16:44:48 2018,Mouse
2,0,2,0,81,5,5,1,1112,812,300,137,0,500,200,8000,"[(512, 384), (512, 384), (512, 384), (512, 384), (512, 384), (512, 384), (512, 384), (512, 384), (512, 384), (512, 384), (512, 384), (512, 384), (512, 384), (512, 384), (512, 384), (512, 384), (512, 384), (512, 384), (512, 384), (512, 384), (512, 384), (512, 384), (512, 384), (512, 384), (512, 384), (512, 384), (512, 384), (512, 384), (512, 384), (512, 384), (512, 384), (512, 384), (512, 384), (512, 384), (512, 384), (512, 384), (512, 384), (512, 384), (512, 384), (512, 384), (512, 384), (512, 384), (512, 384), (512, 384), (512, 384), (512, 384), (512, 384), (512, 384), (512, 384), (512, 384), (512, 384), (512, 384), (512, 384), (512, 384), (512, 384), (512, 384), (512, 384), (512, 384), (512, 384), (512, 384), (512, 384), (512, 384), (512, 384), (512, 384), (512, 384), (512, 384), (512, 384), (512, 384), (512, 384), (512, 384), (512, 384), (512, 384), (512, 384), (512, 384), (512, 384), (512, 384), (512, 384), (512, 384), (512, 384), (512, 384), (512, 384), (512, 381), (512, 378), (509, 375), (508, 374), (508, 373), (507, 373), (505, 370), (504, 369), (504, 369), (504, 369), (504, 369), (504, 369), (504, 369), (504, 369), (504, 369), (504, 369), (504, 369), (504, 369), (504, 368), (502, 365), (499, 361), (495, 355), (485, 340), (477, 332), (469, 323), (459, 313), (423, 284), (401, 270), (380, 252), (355, 235), (317, 203)]",222.86763156344597,"[4, 1, 7, 2, 9, 5, 6, 3, 8]","(0, 0.25)",ENG002B,ENG,B,Chinese,Mon Sep 17 16:44:48 2018,Mouse
2,0,2,0,82,9,9,1,346,286,60,137,0,500,200,8000,"[(512, 384), (512, 384), (512, 384), (512, 384), (512, 384), (512, 384), (512, 384), (512, 384), (512, 384), (512, 384), (512, 384), (512, 384), (512, 384), (512, 384), (512, 384), (512, 384), (512, 384), (512, 384), (512, 384), (512, 384), (512, 384), (512, 384), (512, 384), (512, 384), (512, 384), (512, 384), (512, 384), (512, 384), (510, 385), (498, 387), (471, 388), (401, 390), (362, 390), (309, 392), (262, 392)]",178.16716049405795,"[4, 1, 7, 2, 9, 5, 6, 3, 8]","(0, 0.25)",ENG002B,ENG,B,Chinese,Mon Sep 17 16:44:48 2018,Mouse
2,0,2,0,83,5,6,0,-1165,1095,70,136,0,500,200,8000,"[(512, 384), (512, 384), (512, 384), (512, 384), (512, 384), (512, 384), (512, 384), (512, 384), (512, 384), (512, 384), (512, 384), (512, 384), (512, 384), (512, 384), (512, 384), (512, 384), (512, 384), (512, 384), (512, 384), (512, 384), (512, 384), (512, 384), (512, 384), (512, 384), (512, 384), (512, 384), (512, 384), (512, 384), (512, 384), (512, 384), (512, 384), (512, 384), (512, 384), (512, 384), (512, 384), (512, 384), (512, 384), (512, 384), (512, 384), (512, 384), (512, 384), (512, 384), (512, 384), (512, 384), (512, 384), (512, 384), (512, 384), (512, 384), (512, 384), (512, 384), (512, 384), (512, 384), (512, 384), (512, 384), (512, 384), (512, 384), (512, 384), (512, 384), (512, 384), (512, 384), (512, 384), (512, 384), (512, 384), (512, 384), (512, 384), (512, 384), (512, 384), (512, 384), (512, 384), (512, 384), (512, 384), (512, 384), (512, 384), (512, 384), (512, 384), (512, 384), (512, 384), (512, 384), (512, 384), (512, 384), (512, 384), (512, 384), (512, 384), (512, 384), (512, 384), (512, 384), (512, 384), (512, 384), (512, 384), (512, 384), (512, 384), (512, 384), (512, 384), (512, 384), (512, 384), (512, 384), (512, 384), (512, 384), (512, 384), (512, 384), (512, 384), (512, 384), (512, 384), (512, 384), (512, 384), (512, 384), (512, 384), (512, 384), (512, 384), (514, 372), (505, 341), (501, 320), (483, 276), (471, 247), (457, 217), (446, 181), (426, 112)]",252.4542712543037,"[4, 1, 7, 2, 9, 5, 6, 3, 8]","(0, 0.25)",ENG002B,ENG,B,Chinese,Mon Sep 17 16:44:48 2018,Mouse
2,0,2,0,84,2,7,0,-371,311,60,137,0,500,200,8000,"[(512, 384), (512, 384), (512, 384), (512, 384), (512, 384), (512, 384), (512, 384), (512, 384), (512, 384), (512, 384), (512, 384), (512, 384), (512, 384), (512, 384), (512, 384), (512, 384), (512, 384), (512, 384), (512, 384), (512, 384), (512, 384), (512, 384), (512, 384), (512, 384), (512, 384), (512, 384), (512, 384), (512, 384), (512, 384), (512, 384), (512, 384), (512, 393), (512, 416), (506, 485), (489, 524), (472, 562), (458, 596), (432, 652)]",106.62075691389207,"[4, 1, 7, 2, 9, 5, 6, 3, 8]","(0, 0.25)",ENG002B,ENG,B,Chinese,Mon Sep 17 16:44:48 2018,Mouse
2,0,2,0,85,9,9,1,276,196,80,138,0,500,200,8000,"[(512, 384), (512, 384), (512, 384), (512, 384), (512, 384), (512, 384), (512, 384), (512, 384), (512, 384), (512, 384), (512, 384), (512, 384), (512, 384), (512, 384), (512, 384), (512, 384), (512, 384), (512, 384), (512, 384), (504, 384), (492, 384), (479, 384), (463, 384), (418, 384), (385, 384), (348, 384), (307, 384), (232, 384)]",180.0,"[4, 1, 7, 2, 9, 5, 6, 3, 8]","(0, 0.25)",ENG002B,ENG,B,Chinese,Mon Sep 17 16:44:48 2018,Mouse
2,0,2,0,86,1,6,0,-892,802,90,138,0,500,200,8000,"[(512, 384), (512, 384), (512, 384), (512, 384), (512, 384), (512, 384), (512, 384), (512, 384), (512, 384), (512, 384), (512, 384), (512, 384), (512, 384), (512, 384), (512, 384), (512, 384), (512, 384), (512, 384), (512, 384), (512, 384), (512, 384), (512, 384), (512, 384), (512, 384), (512, 384), (512, 384), (512, 384), (512, 384), (512, 384), (512, 384), (512, 384), (512, 384), (512, 384), (512, 384), (512, 384), (512, 384), (512, 384), (512, 384), (512, 384), (512, 384), (512, 384), (512, 384), (512, 384), (512, 384), (512, 384), (512, 384), (512, 384), (512, 384), (512, 384), (512, 384), (512, 384), (512, 384), (512, 384), (512, 384), (512, 384), (512, 384), (512, 384), (512, 384), (512, 384), (512, 384), (512, 384), (512, 384), (512, 384), (512, 384), (512, 384), (512, 384), (512, 384), (512, 384), (512, 384), (512, 384), (512, 384), (512, 384), (512, 384), (512, 384), (512, 384), (512, 384), (512, 384), (512, 384), (512, 384), (512, 384), (515, 383), (518, 376), (519, 366), (521, 342), (525, 324), (525, 302), (525, 274), (525, 201), (522, 156), (515, 121)]",270.6535356806778,"[4, 1, 7, 2, 9, 5, 6, 3, 8]","(0, 0.25)",ENG002B,ENG,B,Chinese,Mon Sep 17 16:44:48 2018,Mouse
2,0,2,0,87,2,7,0,-457,377,80,139,0,500,200,8000,"[(512, 384), (512, 384), (512, 384), (512, 384), (512, 384), (512, 384), (512, 384), (512, 384), (512, 384), (512, 384), (512, 384), (512, 384), (512, 384), (512, 384), (512, 384), (512, 384), (512, 384), (512, 384), (512, 384), (512, 384), (512, 384), (512, 384), (512, 384), (512, 384), (512, 384), (512, 384), (512, 384), (512, 384), (512, 384), (512, 384), (512, 384), (512, 384), (512, 384), (512, 384), (512, 384), (512, 384), (512, 384), (512, 385), (512, 395), (512, 422), (512, 450), (494, 517), (479, 554), (467, 588), (453, 620), (440, 684)]",103.49573328079582,"[4, 1, 7, 2, 9, 5, 6, 3, 8]","(0, 0.25)",ENG002B,ENG,B,Chinese,Mon Sep 17 16:44:48 2018,Mouse
2,0,2,0,88,2,7,0,-143,43,100,140,0,500,200,8000,"[(512, 384), (512, 384), (512, 384), (512, 384), (512, 387), (512, 393), (510, 401), (508, 415), (500, 449), (492, 479), (483, 518), (470, 552), (453, 603), (444, 624), (437, 641)]",106.26876526099188,"[4, 1, 7, 2, 9, 5, 6, 3, 8]","(0, 0.25)",ENG002B,ENG,B,Chinese,Mon Sep 17 16:44:48 2018,Mouse
2,0,2,0,89,2,2,1,322,252,70,141,0,500,200,8000,"[(512, 384), (512, 384), (512, 384), (512, 384), (512, 384), (512, 384), (512, 384), (512, 384), (512, 384), (512, 384), (512, 384), (512, 384), (512, 384), (512, 384), (512, 384), (512, 384), (512, 384), (512, 384), (512, 384), (512, 384), (512, 384), (512, 384), (512, 384), (512, 384), (512, 384), (509, 383), (480, 391), (456, 400), (433, 409), (406, 423), (327, 453), (284, 472), (244, 489)]",158.60519889701837,"[4, 1, 7, 2, 9, 5, 6, 3, 8]","(0, 0.25)",ENG002B,ENG,B,Chinese,Mon Sep 17 16:44:48 2018,Mouse
2,0,2,0,90,9,9,1,156,16,140,141,0,500,200,8000,"[(512, 384), (483, 381), (467, 377), (449, 376), (436, 372), (407, 369), (389, 365), (371, 364), (354, 362), (325, 359), (313, 359), (301, 359), (290, 359), (273, 359), (266, 359), (260, 360)]",185.4403320310055,"[4, 1, 7, 2, 9, 5, 6, 3, 8]","(0, 0.25)",ENG002B,ENG,B,Chinese,Mon Sep 17 16:44:48 2018,Mouse
2,0,2,0,91,5,5,1,461,231,230,140,0,500,200,8000,"[(512, 384), (512, 384), (512, 384), (512, 384), (512, 384), (512, 384), (512, 384), (512, 384), (512, 384), (512, 384), (512, 384), (512, 384), (512, 384), (512, 384), (512, 384), (512, 384), (512, 384), (512, 384), (512, 384), (512, 384), (512, 384), (512, 384), (512, 384), (513, 384), (513, 378), (513, 368), (511, 362), (507, 354), (505, 351), (500, 346), (498, 343), (490, 336), (488, 334), (482, 332), (479, 330), (468, 325), (461, 322), (451, 319), (442, 314), (420, 305), (409, 303), (396, 299), (378, 293), (343, 280), (322, 271), (294, 263), (256, 239)]",209.52748688671022,"[4, 1, 7, 2, 9, 5, 6, 3, 8]","(0, 0.25)",ENG002B,ENG,B,Chinese,Mon Sep 17 16:44:48 2018,Mouse
2,0,2,0,92,6,6,1,382,162,220,139,0,500,200,8000,"[(512, 384), (512, 384), (512, 384), (512, 384), (512, 384), (512, 384), (512, 384), (512, 384), (512, 384), (512, 384), (512, 384), (512, 384), (512, 384), (512, 384), (512, 384), (512, 384), (513, 383), (513, 379), (513, 378), (513, 375), (513, 372), (513, 371), (513, 370), (513, 369), (513, 365), (513, 361), (513, 357), (513, 353), (512, 337), (512, 329), (511, 321), (507, 310), (502, 290), (499, 279), (493, 264), (488, 245), (473, 189), (466, 151), (457, 123)]",258.1002788634805,"[4, 1, 7, 2, 9, 5, 6, 3, 8]","(0, 0.25)",ENG002B,ENG,B,Chinese,Mon Sep 17 16:44:48 2018,Mouse
2,0,2,0,93,9,5,0,-1881,541,1340,138,0,500,200,8000,"[(512, 384), (512, 384), (512, 384), (512, 384), (512, 384), (512, 384), (512, 384), (512, 384), (512, 384), (512, 384), (512, 384), (512, 384), (512, 384), (512, 384), (512, 384), (512, 384), (512, 384), (512, 384), (512, 384), (512, 384), (512, 384), (512, 384), (512, 384), (512, 384), (512, 384), (512, 384), (512, 384), (512, 384), (512, 384), (512, 384), (512, 384), (512, 384), (512, 384), (512, 384), (512, 384), (512, 384), (512, 384), (512, 384), (512, 384), (512, 384), (512, 384), (512, 384), (512, 384), (512, 384), (512, 384), (512, 384), (512, 384), (512, 384), (512, 384), (512, 384), (512, 384), (512, 384), (512, 384), (512, 384), (509, 381), (508, 381), (508, 380), (508, 379), (508, 379), (508, 378), (507, 377), (507, 377), (507, 376), (507, 376), (507, 376), (507, 376), (507, 376), (507, 376), (507, 376), (507, 376), (507, 376), (507, 376), (507, 376), (507, 376), (507, 376), (507, 376), (507, 376), (507, 376), (507, 376), (507, 376), (507, 376), (507, 376), (507, 376), (507, 376), (507, 376), (507, 376), (507, 376), (507, 376), (507, 376), (507, 376), (507, 376), (507, 376), (507, 376), (507, 376), (507, 376), (507, 376), (507, 376), (507, 376), (507, 376), (507, 376), (507, 376), (507, 376), (507, 376), (507, 376), (507, 376), (507, 376), (507, 376), (507, 376), (507, 376), (507, 376), (507, 376), (507, 376), (507, 376), (507, 376), (507, 376), (507, 376), (507, 376), (507, 376), (507, 376), (507, 376), (507, 376), (507, 376), (507, 376), (507, 376), (507, 376), (507, 376), (507, 376), (507, 376), (507, 376), (507, 376), (507, 376), (507, 376), (507, 376), (507, 376), (507, 376), (507, 376), (507, 376), (507, 376), (507, 376), (507, 376), (507, 376), (507, 376), (507, 376), (507, 376), (507, 376), (507, 376), (506, 372), (505, 369), (504, 365), (504, 364), (504, 361), (503, 359), (502, 358), (502, 355), (500, 350), (500, 348), (499, 345), (499, 345), (498, 341), (497, 340), (497, 339), (496, 337), (496, 337), (496, 337), (496, 336), (496, 336), (496, 336), (496, 336), (496, 336), (496, 336), (496, 336), (496, 336), (496, 336), (496, 336), (496, 336), (496, 336), (496, 336), (496, 336), (494, 334), (490, 330), (485, 325), (479, 320), (461, 306), (451, 300), (433, 287), (416, 274), (368, 242), (346, 226), (321, 209)]",222.4968602204151,"[4, 1, 7, 2, 9, 5, 6, 3, 8]","(0, 0.25)",ENG002B,ENG,B,Chinese,Mon Sep 17 16:44:48 2018,Mouse
2,0,2,0,94,7,7,1,454,274,180,139,0,500,200,8000,"[(512, 384), (512, 384), (512, 384), (512, 384), (512, 384), (512, 384), (512, 384), (512, 384), (512, 384), (512, 384), (512, 384), (512, 384), (512, 384), (512, 384), (512, 384), (512, 384), (512, 384), (512, 384), (512, 384), (512, 384), (512, 384), (512, 384), (512, 384), (512, 384), (512, 384), (512, 384), (512, 384), (512, 386), (512, 392), (512, 410), (512, 420), (512, 432), (512, 447), (508, 477), (505, 494), (504, 507), (502, 519), (494, 544), (492, 556), (488, 569), (483, 582), (476, 605), (474, 614), (471, 624), (469, 630), (463, 643)]",100.71312302279104,"[4, 1, 7, 2, 9, 5, 6, 3, 8]","(0, 0.25)",ENG002B,ENG,B,Chinese,Mon Sep 17 16:44:48 2018,Mouse
2,0,2,0,95,8,8,1,523,343,180,139,0,500,200,8000,"[(512, 384), (512, 384), (512, 384), (512, 384), (512, 384), (512, 384), (512, 384), (512, 384), (512, 384), (512, 384), (512, 384), (512, 384), (512, 384), (512, 384), (512, 384), (512, 384), (512, 384), (512, 384), (512, 384), (512, 384), (512, 384), (512, 384), (512, 384), (512, 384), (512, 384), (512, 384), (512, 384), (512, 384), (512, 384), (512, 384), (512, 384), (512, 384), (512, 384), (512, 384), (513, 383), (528, 378), (551, 368), (560, 363), (567, 361), (577, 357), (598, 351), (609, 350), (622, 348), (633, 347), (655, 342), (666, 340), (679, 337), (691, 333), (716, 328), (724, 326), (734, 325), (743, 322), (754, 318)]",344.7448812969422,"[4, 1, 7, 2, 9, 5, 6, 3, 8]","(0, 0.25)",ENG002B,ENG,B,Chinese,Mon Sep 17 16:44:48 2018,Mouse
2,0,2,0,96,8,8,1,372,302,70,138,0,500,200,8000,"[(512, 384), (512, 384), (512, 384), (512, 384), (512, 384), (512, 384), (512, 384), (512, 384), (512, 384), (512, 384), (512, 384), (512, 384), (512, 384), (512, 384), (512, 384), (512, 384), (512, 384), (512, 384), (512, 384), (512, 384), (512, 384), (512, 384), (512, 384), (512, 384), (512, 384), (512, 384), (512, 384), (512, 384), (512, 384), (512, 384), (520, 382), (535, 376), (583, 359), (612, 347), (644, 334), (682, 325), (738, 309), (761, 301)]",341.565051177078,"[4, 1, 7, 2, 9, 5, 6, 3, 8]","(0, 0.25)",ENG002B,ENG,B,Chinese,Mon Sep 17 16:44:48 2018,Mouse
2,0,2,0,97,1,4,0,-544,444,100,137,0,500,200,8000,"[(512, 384), (512, 384), (512, 384), (512, 384), (512, 384), (512, 384), (512, 384), (512, 384), (512, 384), (512, 384), (512, 384), (512, 384), (512, 384), (512, 384), (512, 384), (512, 384), (512, 384), (512, 384), (512, 384), (512, 384), (512, 384), (512, 384), (512, 384), (512, 384), (512, 384), (512, 384), (512, 384), (512, 384), (512, 384), (512, 384), (512, 384), (512, 384), (512, 384), (512, 384), (512, 384), (512, 384), (512, 384), (512, 384), (512, 384), (512, 384), (512, 384), (512, 384), (512, 384), (512, 384), (515, 388), (532, 396), (559, 404), (576, 409), (594, 418), (612, 425), (666, 443), (691, 450), (719, 459), (747, 469), (797, 489)]",20.224859431168078,"[4, 1, 7, 2, 9, 5, 6, 3, 8]","(0, 0.25)",ENG002B,ENG,B,Chinese,Mon Sep 17 16:44:48 2018,Mouse
2,0,2,0,98,4,4,1,380,230,150,138,0,500,200,8000,"[(512, 384), (512, 384), (512, 384), (512, 384), (512, 384), (512, 384), (512, 384), (512, 384), (512, 384), (512, 384), (512, 384), (512, 384), (512, 384), (512, 384), (512, 384), (512, 384), (512, 384), (512, 384), (512, 384), (512, 384), (512, 384), (512, 384), (518, 384), (543, 388), (559, 392), (572, 397), (587, 400), (621, 411), (636, 416), (647, 422), (662, 430), (691, 443), (701, 448), (712, 454), (722, 458), (737, 464), (744, 466), (749, 469)]",19.73036125473104,"[4, 1, 7, 2, 9, 5, 6, 3, 8]","(0, 0.25)",ENG002B,ENG,B,Chinese,Mon Sep 17 16:44:48 2018,Mouse
2,0,2,0,99,9,9,1,334,214,120,138,0,500,200,8000,"[(512, 384), (512, 384), (512, 384), (512, 384), (512, 384), (512, 384), (512, 384), (512, 384), (512, 384), (512, 384), (512, 384), (512, 384), (512, 384), (512, 384), (512, 384), (512, 384), (512, 384), (512, 384), (512, 384), (512, 384), (512, 384), (502, 384), (487, 383), (476, 380), (466, 378), (440, 374), (429, 374), (410, 372), (391, 372), (343, 371), (323, 371), (300, 371), (278, 371), (239, 371)]",182.72631099390625,"[4, 1, 7, 2, 9, 5, 6, 3, 8]","(0, 0.25)",ENG002B,ENG,B,Chinese,Mon Sep 17 16:44:48 2018,Mouse
2,0,2,0,100,1,9,0,-392,322,70,137,0,500,200,8000,"[(512, 384), (512, 384), (512, 384), (512, 384), (512, 384), (512, 384), (512, 384), (512, 384), (512, 384), (512, 384), (512, 384), (512, 384), (512, 384), (512, 384), (512, 384), (512, 384), (512, 384), (512, 384), (512, 384), (512, 384), (512, 384), (512, 384), (512, 384), (512, 384), (512, 384), (512, 384), (512, 384), (512, 384), (512, 384), (512, 384), (512, 384), (512, 384), (491, 385), (474, 388), (453, 389), (429, 394), (354, 405), (322, 410), (287, 413), (250, 418)]",172.60599135740173,"[4, 1, 7, 2, 9, 5, 6, 3, 8]","(0, 0.25)",ENG002B,ENG,B,Chinese,Mon Sep 17 16:44:48 2018,Mouse
2,0,2,0,101,9,9,1,375,205,170,138,0,500,200,8000,"[(512, 384), (512, 384), (512, 384), (512, 384), (512, 384), (512, 384), (512, 384), (512, 384), (512, 384), (512, 384), (512, 384), (512, 384), (512, 384), (512, 384), (512, 384), (512, 384), (512, 384), (512, 384), (512, 384), (512, 384), (508, 384), (503, 384), (497, 384), (489, 382), (467, 382), (456, 382), (443, 382), (429, 382), (399, 382), (386, 382), (369, 382), (352, 382), (324, 383), (313, 384), (300, 387), (288, 388), (266, 393), (256, 394)]",177.7630209365623,"[4, 1, 7, 2, 9, 5, 6, 3, 8]","(0, 0.25)",ENG002B,ENG,B,Chinese,Mon Sep 17 16:44:48 2018,Mouse
2,0,2,0,102,1,1,1,632,462,170,138,0,500,200,8000,"[(512, 384), (512, 384), (512, 384), (512, 384), (512, 384), (512, 384), (512, 384), (512, 384), (512, 384), (512, 384), (512, 384), (512, 384), (512, 384), (512, 384), (512, 384), (512, 384), (512, 384), (512, 384), (512, 384), (512, 384), (512, 384), (512, 384), (512, 384), (512, 384), (512, 384), (512, 384), (512, 384), (512, 384), (512, 384), (512, 384), (512, 384), (512, 384), (512, 384), (512, 384), (512, 384), (512, 384), (512, 384), (512, 384), (512, 384), (512, 384), (512, 384), (512, 384), (512, 384), (512, 384), (512, 384), (512, 384), (513, 388), (521, 401), (528, 409), (535, 419), (543, 430), (560, 454), (570, 467), (577, 476), (585, 488), (601, 511), (610, 521), (618, 533), (629, 545), (641, 564), (647, 572), (651, 579), (653, 585), (656, 590)]",55.0453303694967,"[4, 1, 7, 2, 9, 5, 6, 3, 8]","(0, 0.25)",ENG002B,ENG,B,Chinese,Mon Sep 17 16:44:48 2018,Mouse
2,0,2,0,103,2,3,0,-542,352,190,137,0,500,200,8000,"[(512, 384), (512, 384), (512, 384), (512, 384), (512, 384), (512, 384), (512, 384), (512, 384), (512, 384), (512, 384), (512, 384), (512, 384), (512, 384), (512, 384), (512, 384), (512, 384), (512, 384), (512, 384), (512, 384), (512, 384), (512, 384), (512, 384), (512, 384), (512, 384), (512, 384), (512, 384), (512, 384), (512, 384), (512, 384), (512, 384), (512, 384), (512, 384), (512, 384), (512, 384), (512, 384), (512, 379), (519, 364), (526, 355), (533, 346), (542, 337), (557, 323), (566, 315), (574, 311), (579, 306), (590, 295), (595, 290), (603, 285), (607, 279), (620, 260), (629, 247), (636, 235), (641, 224), (653, 201), (658, 191), (664, 181)]",306.8247117092237,"[4, 1, 7, 2, 9, 5, 6, 3, 8]","(0, 0.25)",ENG002B,ENG,B,Chinese,Mon Sep 17 16:44:48 2018,Mouse
2,0,2,0,104,4,9,0,-791,701,90,138,0,500,200,8000,"[(512, 384), (512, 384), (512, 384), (512, 384), (512, 384), (512, 384), (512, 384), (512, 384), (512, 384), (512, 384), (512, 384), (512, 384), (512, 384), (512, 384), (512, 384), (512, 384), (512, 384), (512, 384), (512, 384), (512, 384), (512, 384), (512, 384), (512, 384), (512, 384), (512, 384), (512, 384), (512, 384), (512, 384), (512, 384), (512, 384), (512, 384), (512, 384), (512, 384), (512, 384), (512, 384), (512, 384), (512, 384), (512, 384), (512, 384), (512, 384), (512, 384), (512, 384), (512, 384), (512, 384), (512, 384), (512, 384), (512, 384), (512, 384), (512, 384), (512, 384), (512, 384), (512, 384), (512, 384), (512, 384), (512, 384), (512, 384), (512, 384), (512, 384), (512, 384), (512, 384), (512, 384), (512, 384), (512, 384), (512, 384), (512, 384), (512, 384), (512, 384), (512, 384), (512, 384), (512, 384), (511, 384), (503, 384), (491, 384), (477, 384), (434, 384), (398, 384), (365, 384), (334, 384), (264, 384), (231, 384)]",180.0,"[4, 1, 7, 2, 9, 5, 6, 3, 8]","(0, 0.25)",ENG002B,ENG,B,Chinese,Mon Sep 17 16:44:48 2018,Mouse
2,0,2,0,105,6,6,1,552,452,100,139,0,500,200,8000,"[(512, 384), (512, 384), (512, 384), (512, 384), (512, 384), (512, 384), (512, 384), (512, 384), (512, 384), (512, 384), (512, 384), (512, 384), (512, 384), (512, 384), (512, 384), (512, 384), (512, 384), (512, 384), (512, 384), (512, 384), (512, 384), (512, 384), (512, 384), (512, 384), (512, 384), (512, 384), (512, 384), (512, 384), (512, 384), (512, 384), (512, 384), (512, 384), (512, 384), (512, 384), (512, 384), (512, 384), (512, 384), (512, 384), (512, 384), (512, 384), (512, 384), (512, 384), (512, 384), (512, 384), (512, 384), (512, 379), (512, 360), (512, 315), (512, 293), (512, 268), (512, 248), (512, 212), (509, 196), (508, 179), (505, 165), (495, 120)]",266.3155859993397,"[4, 1, 7, 2, 9, 5, 6, 3, 8]","(0, 0.25)",ENG002B,ENG,B,Chinese,Mon Sep 17 16:44:48 2018,Mouse
2,0,2,0,106,9,9,1,372,262,110,139,0,500,200,8000,"[(512, 384), (512, 384), (512, 384), (512, 384), (512, 384), (512, 384), (512, 384), (512, 384), (512, 384), (512, 384), (512, 384), (512, 384), (512, 384), (512, 384), (512, 384), (512, 384), (512, 384), (512, 384), (512, 384), (512, 384), (512, 384), (512, 384), (512, 384), (512, 384), (512, 384), (512, 384), (510, 385), (504, 385), (488, 385), (477, 385), (459, 387), (446, 389), (404, 396), (378, 397), (354, 402), (328, 405), (274, 413), (248, 417)]",172.8749836510982,"[4, 1, 7, 2, 9, 5, 6, 3, 8]","(0, 0.25)",ENG002B,ENG,B,Chinese,Mon Sep 17 16:44:48 2018,Mouse
2,0,2,0,107,7,7,1,403,312,91,138,0,500,200,8000,"[(512, 384), (512, 384), (512, 384), (512, 384), (512, 384), (512, 384), (512, 384), (512, 384), (512, 384), (512, 384), (512, 384), (512, 384), (512, 384), (512, 384), (512, 384), (512, 384), (512, 384), (512, 384), (512, 384), (512, 384), (512, 384), (512, 384), (512, 384), (512, 384), (512, 384), (512, 384), (512, 384), (512, 384), (512, 384), (512, 384), (512, 384), (508, 402), (505, 413), (501, 427), (495, 443), (483, 478), (476, 508), (472, 527), (469, 551), (461, 604), (453, 632)]",103.38208601853715,"[4, 1, 7, 2, 9, 5, 6, 3, 8]","(0, 0.25)",ENG002B,ENG,B,Chinese,Mon Sep 17 16:44:48 2018,Mouse
2,0,2,0,108,7,7,1,352,272,80,137,0,500,200,8000,"[(512, 384), (512, 384), (512, 384), (512, 384), (512, 384), (512, 384), (512, 384), (512, 384), (512, 384), (512, 384), (512, 384), (512, 384), (512, 384), (512, 384), (512, 384), (512, 384), (512, 384), (512, 384), (512, 384), (512, 384), (512, 384), (512, 384), (512, 384), (512, 384), (512, 384), (512, 384), (512, 384), (513, 383), (510, 394), (504, 413), (496, 438), (467, 507), (455, 539), (444, 565), (436, 590), (427, 636)]",108.63933242514345,"[4, 1, 7, 2, 9, 5, 6, 3, 8]","(0, 0.25)",ENG002B,ENG,B,Chinese,Mon Sep 17 16:44:48 2018,Mouse
2,0,2,0,109,5,9,0,-352,272,80,136,0,500,200,8000,"[(512, 384), (512, 384), (512, 384), (512, 384), (512, 384), (512, 384), (512, 384), (512, 384), (512, 384), (512, 384), (512, 384), (512, 384), (512, 384), (512, 384), (512, 384), (512, 384), (512, 384), (512, 384), (512, 384), (512, 384), (512, 384), (512, 384), (512, 384), (512, 384), (512, 384), (512, 384), (512, 384), (507, 384), (494, 385), (479, 385), (464, 387), (419, 393), (393, 396), (355, 404), (323, 409), (252, 414)]",173.418055344822,"[4, 1, 7, 2, 9, 5, 6, 3, 8]","(0, 0.25)",ENG002B,ENG,B,Chinese,Mon Sep 17 16:44:48 2018,Mouse
2,0,2,0,110,9,9,1,251,151,100,137,0,500,200,8000,"[(512, 384), (512, 384), (512, 384), (512, 384), (512, 384), (512, 384), (512, 384), (512, 384), (512, 384), (512, 384), (512, 384), (512, 384), (512, 384), (512, 384), (512, 384), (505, 384), (474, 384), (457, 384), (435, 384), (409, 384), (364, 384), (338, 387), (318, 387), (295, 389), (263, 389), (248, 389)]",178.9149823805026,"[4, 1, 7, 2, 9, 5, 6, 3, 8]","(0, 0.25)",ENG002B,ENG,B,Chinese,Mon Sep 17 16:44:48 2018,Mouse
2,0,2,0,111,4,4,1,512,362,150,137,0,500,200,8000,"[(512, 384), (512, 384), (512, 384), (512, 384), (512, 384), (512, 384), (512, 384), (512, 384), (512, 384), (512, 384), (512, 384), (512, 384), (512, 384), (512, 384), (512, 384), (512, 384), (512, 384), (512, 384), (512, 384), (512, 384), (512, 384), (512, 384), (512, 384), (512, 384), (512, 384), (512, 384), (512, 384), (512, 384), (512, 384), (512, 384), (512, 384), (512, 384), (512, 384), (512, 384), (512, 384), (512, 384), (519, 384), (528, 387), (541, 391), (563, 401), (574, 404), (587, 409), (600, 415), (629, 427), (641, 432), (655, 438), (668, 444), (695, 456), (708, 461), (722, 467), (735, 473), (764, 484)]",21.644435140713995,"[4, 1, 7, 2, 9, 5, 6, 3, 8]","(0, 0.25)",ENG002B,ENG,B,Chinese,Mon Sep 17 16:44:48 2018,Mouse
2,0,2,0,112,6,6,1,542,402,140,136,0,500,200,8000,"[(512, 384), (512, 384), (512, 384), (512, 384), (512, 384), (512, 384), (512, 384), (512, 384), (512, 384), (512, 384), (512, 384), (512, 384), (512, 384), (512, 384), (512, 384), (512, 384), (512, 384), (512, 384), (512, 384), (512, 384), (512, 384), (512, 384), (512, 384), (512, 384), (512, 384), (512, 384), (512, 384), (512, 384), (512, 384), (512, 384), (512, 384), (512, 384), (512, 384), (512, 384), (512, 384), (512, 384), (512, 384), (512, 384), (512, 384), (512, 384), (508, 373), (507, 369), (507, 365), (507, 358), (503, 341), (502, 330), (499, 316), (499, 301), (495, 270), (493, 252), (493, 235), (493, 210), (493, 168), (491, 148), (488, 127)]",264.66489425934424,"[4, 1, 7, 2, 9, 5, 6, 3, 8]","(0, 0.25)",ENG002B,ENG,B,Chinese,Mon Sep 17 16:44:48 2018,Mouse
2,0,2,0,113,1,1,1,1672,1572,100,135,0,500,200,8000,"[(512, 384), (512, 384), (512, 384), (512, 384), (512, 384), (512, 384), (512, 384), (512, 384), (512, 384), (512, 384), (512, 384), (512, 384), (512, 384), (512, 384), (512, 384), (512, 384), (512, 384), (512, 384), (512, 384), (512, 384), (512, 384), (512, 384), (512, 384), (512, 384), (512, 384), (512, 384), (512, 384), (512, 384), (512, 384), (512, 384), (512, 384), (512, 384), (512, 384), (512, 384), (512, 384), (512, 384), (512, 384), (512, 384), (512, 384), (512, 384), (512, 384), (512, 384), (512, 384), (512, 384), (512, 384), (512, 384), (512, 384), (512, 384), (512, 384), (512, 384), (512, 384), (512, 384), (512, 384), (512, 384), (512, 384), (512, 384), (512, 384), (512, 384), (512, 384), (512, 384), (512, 384), (512, 384), (512, 384), (512, 384), (512, 384), (512, 384), (512, 384), (512, 384), (512, 384), (512, 384), (512, 384), (512, 384), (512, 384), (512, 384), (512, 384), (512, 384), (512, 384), (512, 384), (512, 384), (512, 384), (512, 384), (512, 384), (512, 384), (512, 384), (512, 384), (512, 384), (512, 384), (512, 384), (512, 384), (512, 384), (512, 384), (512, 384), (512, 384), (512, 384), (512, 384), (512, 384), (512, 384), (512, 384), (512, 384), (512, 384), (512, 384), (512, 384), (512, 384), (512, 384), (512, 384), (512, 384), (512, 384), (512, 384), (512, 384), (512, 384), (512, 384), (512, 384), (512, 384), (512, 384), (512, 384), (512, 384), (512, 384), (512, 384), (512, 384), (512, 384), (512, 384), (512, 384), (512, 384), (512, 384), (512, 384), (512, 384), (512, 384), (512, 384), (512, 384), (512, 384), (512, 384), (512, 384), (512, 384), (512, 384), (512, 384), (512, 384), (512, 384), (512, 384), (512, 384), (512, 384), (512, 384), (512, 384), (512, 384), (512, 384), (512, 384), (512, 384), (512, 384), (512, 384), (512, 384), (512, 384), (512, 384), (512, 384), (512, 384), (512, 384), (512, 384), (512, 384), (512, 384), (512, 385), (522, 406), (528, 417), (536, 432), (545, 453), (570, 494), (583, 514), (595, 533), (609, 552), (641, 598), (654, 615)]",58.42018355952725,"[4, 1, 7, 2, 9, 5, 6, 3, 8]","(0, 0.25)",ENG002B,ENG,B,Chinese,Mon Sep 17 16:44:48 2018,Mouse
2,0,2,0,114,7,2,0,-1167,1087,80,134,0,500,200,8000,"[(512, 384), (512, 384), (512, 384), (512, 384), (512, 384), (512, 384), (512, 384), (512, 384), (512, 384), (512, 384), (512, 384), (512, 384), (512, 384), (512, 384), (512, 384), (512, 384), (512, 384), (512, 384), (512, 384), (512, 384), (512, 384), (512, 384), (512, 384), (512, 384), (512, 384), (512, 384), (512, 384), (512, 384), (512, 384), (512, 384), (512, 384), (512, 384), (512, 384), (512, 384), (512, 384), (512, 384), (512, 384), (512, 384), (512, 384), (512, 384), (512, 384), (512, 384), (512, 384), (512, 384), (512, 384), (512, 384), (512, 384), (512, 384), (512, 384), (512, 384), (512, 384), (512, 384), (512, 384), (512, 384), (512, 384), (512, 384), (512, 384), (512, 384), (512, 384), (512, 384), (512, 384), (512, 384), (512, 384), (512, 384), (512, 384), (512, 384), (512, 384), (512, 384), (512, 384), (512, 384), (512, 384), (512, 384), (512, 384), (512, 384), (512, 384), (512, 384), (512, 384), (512, 384), (512, 384), (512, 384), (512, 384), (512, 384), (512, 384), (512, 384), (512, 384), (512, 384), (512, 384), (512, 384), (512, 384), (512, 384), (512, 384), (512, 384), (512, 384), (512, 384), (512, 384), (512, 384), (512, 384), (512, 384), (512, 384), (512, 384), (512, 384), (512, 384), (512, 384), (512, 384), (512, 384), (512, 384), (512, 384), (512, 384), (512, 383), (504, 385), (462, 410), (438, 425), (411, 440), (386, 453), (329, 477), (299, 490), (276, 501)]",153.62950080698917,"[4, 1, 7, 2, 9, 5, 6, 3, 8]","(0, 0.25)",ENG002B,ENG,B,Chinese,Mon Sep 17 16:44:48 2018,Mouse
2,0,2,0,115,9,3,0,-552,382,170,135,0,500,200,8000,"[(512, 384), (512, 384), (512, 384), (512, 384), (512, 384), (512, 384), (512, 384), (512, 384), (512, 384), (512, 384), (512, 384), (512, 384), (512, 384), (512, 384), (512, 384), (512, 384), (512, 384), (512, 384), (512, 384), (512, 384), (512, 384), (512, 384), (512, 384), (512, 384), (512, 384), (512, 384), (512, 384), (512, 384), (512, 384), (512, 384), (512, 384), (512, 384), (512, 384), (512, 384), (512, 384), (512, 384), (512, 384), (512, 384), (525, 370), (537, 355), (545, 343), (550, 333), (565, 305), (571, 293), (576, 279), (580, 269), (590, 249), (593, 240), (597, 230), (601, 220), (610, 200), (616, 186), (619, 178), (622, 172), (627, 163), (627, 160)]",297.175640276794,"[4, 1, 7, 2, 9, 5, 6, 3, 8]","(0, 0.25)",ENG002B,ENG,B,Chinese,Mon Sep 17 16:44:48 2018,Mouse
2,0,2,0,116,1,1,1,631,501,130,136,0,500,200,8000,"[(512, 384), (512, 384), (512, 384), (512, 384), (512, 384), (512, 384), (512, 384), (512, 384), (512, 384), (512, 384), (512, 384), (512, 384), (512, 384), (512, 384), (512, 384), (512, 384), (512, 384), (512, 384), (512, 384), (512, 384), (512, 384), (512, 384), (512, 384), (512, 384), (512, 384), (512, 384), (512, 384), (512, 384), (512, 384), (512, 384), (512, 384), (512, 384), (512, 384), (512, 384), (512, 384), (512, 384), (512, 384), (512, 384), (512, 384), (512, 384), (512, 384), (512, 384), (512, 384), (512, 384), (512, 384), (512, 384), (512, 384), (512, 384), (512, 384), (512, 384), (512, 389), (512, 411), (512, 420), (512, 429), (516, 439), (524, 460), (528, 471), (535, 484), (546, 501), (575, 538), (594, 559), (608, 575), (626, 595), (652, 623)]",59.63933466230701,"[4, 1, 7, 2, 9, 5, 6, 3, 8]","(0, 0.25)",ENG002B,ENG,B,Chinese,Mon Sep 17 16:44:48 2018,Mouse
2,0,2,0,117,8,8,1,452,202,250,136,0,500,200,8000,"[(512, 384), (512, 384), (512, 384), (512, 384), (512, 384), (512, 384), (512, 384), (512, 384), (512, 384), (512, 384), (512, 384), (512, 384), (512, 384), (512, 384), (512, 384), (512, 384), (512, 384), (512, 384), (512, 384), (512, 384), (514, 378), (521, 374), (528, 371), (537, 368), (550, 364), (559, 360), (563, 360), (569, 359), (575, 358), (576, 358), (579, 356), (579, 356), (583, 355), (584, 355), (587, 354), (590, 352), (597, 351), (600, 351), (603, 350), (609, 348), (621, 347), (634, 346), (650, 342), (669, 338), (730, 321), (769, 306)]",343.1168541095103,"[4, 1, 7, 2, 9, 5, 6, 3, 8]","(0, 0.25)",ENG002B,ENG,B,Chinese,Mon Sep 17 16:44:48 2018,Mouse
2,0,2,0,118,8,6,0,-1205,625,580,135,0,500,200,8000,"[(512, 384), (512, 384), (512, 384), (512, 384), (512, 384), (512, 384), (512, 384), (512, 384), (512, 384), (512, 384), (512, 384), (512, 384), (512, 384), (512, 384), (512, 384), (512, 384), (512, 384), (512, 384), (512, 384), (512, 384), (512, 384), (512, 384), (512, 384), (512, 384), (512, 384), (512, 384), (512, 384), (512, 384), (512, 384), (512, 384), (512, 384), (512, 384), (512, 384), (512, 384), (512, 384), (512, 384), (512, 384), (512, 384), (512, 384), (512, 384), (512, 384), (512, 384), (512, 384), (512, 384), (512, 384), (512, 384), (512, 384), (512, 384), (512, 384), (512, 384), (512, 384), (512, 384), (512, 384), (512, 384), (512, 384), (512, 384), (512, 384), (512, 384), (512, 384), (512, 384), (512, 384), (512, 384), (503, 384), (492, 384), (481, 384), (469, 384), (442, 384), (428, 382), (414, 381), (399, 377), (379, 375), (371, 374), (368, 374), (365, 372), (364, 372), (363, 372), (363, 372), (363, 372), (363, 372), (363, 372), (363, 372), (363, 372), (363, 372), (363, 372), (363, 372), (363, 372), (363, 372), (363, 372), (363, 372), (363, 372), (363, 372), (363, 372), (363, 372), (363, 372), (363, 372), (363, 372), (363, 372), (363, 372), (363, 372), (363, 372), (363, 372), (363, 372), (363, 372), (363, 372), (363, 372), (363, 372), (363, 372), (363, 372), (363, 372), (363, 372), (363, 372), (363, 372), (363, 372), (362, 368), (367, 341), (370, 323), (376, 301), (385, 273), (403, 196), (412, 157), (417, 122)]",250.06958731319435,"[4, 1, 7, 2, 9, 5, 6, 3, 8]","(0, 0.25)",ENG002B,ENG,B,Chinese,Mon Sep 17 16:44:48 2018,Mouse
2,0,2,0,119,6,6,1,373,272,101,136,0,500,200,8000,"[(512, 384), (512, 384), (512, 384), (512, 384), (512, 384), (512, 384), (512, 384), (512, 384), (512, 384), (512, 384), (512, 384), (512, 384), (512, 384), (512, 384), (512, 384), (512, 384), (512, 384), (512, 384), (512, 384), (512, 384), (512, 384), (512, 384), (512, 384), (512, 384), (512, 384), (512, 384), (512, 384), (512, 383), (512, 374), (512, 364), (512, 345), (512, 333), (510, 318), (509, 300), (496, 230), (493, 190), (484, 159), (476, 126)]",262.0565281894096,"[4, 1, 7, 2, 9, 5, 6, 3, 8]","(0, 0.25)",ENG002B,ENG,B,Chinese,Mon Sep 17 16:44:48 2018,Mouse
2,0,2,0,120,3,5,0,-556,306,250,136,0,500,200,8000,"[(512, 384), (512, 384), (512, 384), (512, 384), (512, 384), (512, 384), (512, 384), (512, 384), (512, 384), (512, 384), (512, 384), (512, 384), (512, 384), (512, 384), (512, 384), (512, 384), (512, 384), (512, 384), (512, 384), (512, 384), (512, 384), (512, 384), (512, 384), (512, 384), (512, 384), (512, 384), (512, 384), (512, 384), (512, 384), (512, 384), (508, 381), (495, 373), (488, 370), (483, 366), (474, 362), (461, 354), (457, 352), (451, 349), (445, 346), (438, 340), (435, 338), (432, 335), (427, 332), (420, 325), (418, 323), (414, 320), (409, 316), (401, 308), (395, 302), (386, 290), (379, 283), (363, 262), (354, 250), (342, 237), (334, 228), (319, 209)]",222.19972083196205,"[4, 1, 7, 2, 9, 5, 6, 3, 8]","(0, 0.25)",ENG002B,ENG,B,Chinese,Mon Sep 17 16:44:48 2018,Mouse
2,0,2,0,121,3,4,0,-512,432,80,137,0,500,200,8000,"[(512, 384), (512, 384), (512, 384), (512, 384), (512, 384), (512, 384), (512, 384), (512, 384), (512, 384), (512, 384), (512, 384), (512, 384), (512, 384), (512, 384), (512, 384), (512, 384), (512, 384), (512, 384), (512, 384), (512, 384), (512, 384), (512, 384), (512, 384), (512, 384), (512, 384), (512, 384), (512, 384), (512, 384), (512, 384), (512, 384), (512, 384), (512, 384), (512, 384), (512, 384), (512, 384), (512, 384), (512, 384), (512, 384), (512, 384), (512, 384), (512, 384), (512, 384), (512, 384), (513, 384), (548, 398), (569, 406), (587, 415), (610, 424), (660, 447), (692, 459), (721, 475), (750, 485)]",22.994898910333845,"[4, 1, 7, 2, 9, 5, 6, 3, 8]","(0, 0.25)",ENG002B,ENG,B,Chinese,Mon Sep 17 16:44:48 2018,Mouse
2,0,2,0,122,6,6,1,351,281,70,138,0,500,200,8000,"[(512, 384), (512, 384), (512, 384), (512, 384), (512, 384), (512, 384), (512, 384), (512, 384), (512, 384), (512, 384), (512, 384), (512, 384), (512, 384), (512, 384), (512, 384), (512, 384), (512, 384), (512, 384), (512, 384), (512, 384), (512, 384), (512, 384), (512, 384), (512, 384), (512, 384), (512, 384), (512, 384), (512, 384), (511, 382), (507, 353), (505, 330), (505, 305), (505, 275), (504, 199), (498, 161), (491, 126)]",265.3466484127316,"[4, 1, 7, 2, 9, 5, 6, 3, 8]","(0, 0.25)",ENG002B,ENG,B,Chinese,Mon Sep 17 16:44:48 2018,Mouse
