NativeLangNumber,LanuageNumber,SessionNumber,Block,TrialNum,ConditionNumber,Response,Accuracy,RT,MovementOnsetTime,TimeInMotion,SignalContrast,SignalContrastNumber,StimDisplayTime,MaskTime,MaxResponseTime,MousePositionXY,MouseAngle,WheelOrder,NoiseMuSigma,ParticipantID,LanuageTested,SessionTested,NativeLanuage,Date,ResponseDevice
2,0,4,0,1,8,8,1,572,102,470,153,0,500,200,8000,"[(512, 384), (512, 384), (512, 384), (512, 384), (512, 384), (512, 384), (512, 384), (512, 384), (512, 384), (512, 384), (511, 384), (511, 384), (510, 385), (509, 385), (509, 386), (509, 386), (509, 386), (509, 386), (509, 386), (509, 386), (509, 386), (509, 386), (509, 386), (509, 386), (509, 386), (509, 386), (509, 386), (509, 386), (509, 386), (509, 386), (509, 386), (509, 386), (509, 386), (509, 386), (509, 386), (509, 386), (509, 386), (509, 386), (509, 386), (509, 386), (509, 386), (509, 386), (509, 386), (509, 386), (509, 386), (509, 386), (509, 386), (509, 386), (509, 386), (509, 386), (509, 386), (509, 386), (508, 386), (476, 385), (439, 381), (399, 374), (347, 366), (245, 352)]",186.834311475089,"[9, 6, 1, 4, 8, 5, 7, 2, 3]","(0, 0.25)",ENG004D,ENG,D,Chinese,Fri Oct 12 18:04:22 2018,Mouse
2,0,4,0,2,9,9,1,727,667,60,153,0,500,200,8000,"[(512, 384), (512, 384), (512, 384), (512, 384), (512, 384), (512, 384), (512, 384), (512, 384), (512, 384), (512, 384), (512, 384), (512, 384), (512, 384), (512, 384), (512, 384), (512, 384), (512, 384), (512, 384), (512, 384), (512, 384), (512, 384), (512, 384), (512, 384), (512, 384), (512, 384), (512, 384), (512, 384), (512, 384), (512, 384), (512, 384), (512, 384), (512, 384), (512, 384), (512, 384), (512, 384), (512, 384), (512, 384), (512, 384), (512, 384), (512, 384), (512, 384), (512, 384), (512, 384), (512, 384), (512, 384), (512, 384), (512, 384), (512, 384), (512, 384), (512, 384), (512, 384), (512, 384), (512, 384), (512, 384), (512, 384), (512, 384), (512, 384), (512, 384), (512, 384), (512, 384), (512, 384), (512, 384), (512, 384), (512, 384), (512, 384), (512, 384), (516, 386), (526, 390), (539, 395), (561, 402), (637, 428), (698, 449), (768, 470)]",18.56913073103783,"[9, 6, 1, 4, 8, 5, 7, 2, 3]","(0, 0.25)",ENG004D,ENG,D,Chinese,Fri Oct 12 18:04:22 2018,Mouse
2,0,4,0,3,3,9,0,-498,48,450,152,0,500,200,8000,"[(512, 384), (512, 384), (512, 384), (512, 384), (512, 380), (512, 380), (512, 380), (512, 379), (512, 379), (512, 379), (512, 379), (512, 379), (512, 379), (512, 379), (512, 379), (512, 379), (512, 379), (512, 379), (512, 379), (512, 379), (512, 379), (512, 379), (512, 379), (512, 379), (512, 379), (512, 379), (512, 379), (512, 379), (514, 378), (516, 377), (519, 374), (520, 374), (521, 373), (521, 373), (521, 373), (521, 373), (521, 373), (521, 373), (521, 373), (521, 373), (521, 373), (521, 373), (521, 373), (521, 373), (521, 373), (523, 373), (530, 375), (561, 386), (719, 410), (822, 424)]",7.3523793598923595,"[9, 6, 1, 4, 8, 5, 7, 2, 3]","(0, 0.25)",ENG004D,ENG,D,Chinese,Fri Oct 12 18:04:22 2018,Mouse
2,0,4,0,4,5,5,1,428,378,50,153,0,500,200,8000,"[(512, 384), (512, 384), (512, 384), (512, 384), (512, 384), (512, 384), (512, 384), (512, 384), (512, 384), (512, 384), (512, 384), (512, 384), (512, 384), (512, 384), (512, 384), (512, 384), (512, 384), (512, 384), (512, 384), (512, 384), (512, 384), (512, 384), (512, 384), (512, 384), (512, 384), (512, 384), (512, 384), (512, 384), (512, 384), (512, 384), (512, 384), (512, 384), (512, 384), (512, 384), (512, 384), (512, 384), (512, 384), (498, 372), (481, 357), (455, 326), (423, 291), (350, 220), (315, 191)]",224.41237158376003,"[9, 6, 1, 4, 8, 5, 7, 2, 3]","(0, 0.25)",ENG004D,ENG,D,Chinese,Fri Oct 12 18:04:22 2018,Mouse
2,0,4,0,5,5,5,1,577,497,80,153,0,500,200,8000,"[(512, 384), (512, 384), (512, 384), (512, 384), (512, 384), (512, 384), (512, 384), (512, 384), (512, 384), (512, 384), (512, 384), (512, 384), (512, 384), (512, 384), (512, 384), (512, 384), (512, 384), (512, 384), (512, 384), (512, 384), (512, 384), (512, 384), (512, 384), (512, 384), (512, 384), (512, 384), (512, 384), (512, 384), (512, 384), (512, 384), (512, 384), (512, 384), (512, 384), (512, 384), (512, 384), (512, 384), (512, 384), (512, 384), (512, 384), (512, 384), (512, 384), (512, 384), (512, 384), (512, 384), (512, 384), (512, 384), (512, 384), (512, 384), (512, 384), (503, 377), (486, 357), (462, 328), (436, 294), (387, 243), (370, 225), (355, 207), (347, 197), (334, 173)]",229.8489576150331,"[9, 6, 1, 4, 8, 5, 7, 2, 3]","(0, 0.25)",ENG004D,ENG,D,Chinese,Fri Oct 12 18:04:22 2018,Mouse
2,0,4,0,6,2,2,1,286,236,50,152,0,500,200,8000,"[(512, 384), (512, 384), (512, 384), (512, 384), (512, 384), (512, 384), (512, 384), (512, 384), (512, 384), (512, 384), (512, 384), (512, 384), (512, 384), (512, 384), (512, 384), (512, 384), (512, 384), (512, 384), (512, 384), (512, 384), (512, 384), (512, 384), (512, 384), (516, 380), (525, 363), (544, 337), (613, 252), (664, 201), (726, 155)]",313.060703228816,"[9, 6, 1, 4, 8, 5, 7, 2, 3]","(0, 0.25)",ENG004D,ENG,D,Chinese,Fri Oct 12 18:04:22 2018,Mouse
2,0,4,0,7,1,1,1,329,289,40,151,0,500,200,8000,"[(512, 384), (512, 384), (512, 384), (512, 384), (512, 384), (512, 384), (512, 384), (512, 384), (512, 384), (512, 384), (512, 384), (512, 384), (512, 384), (512, 384), (512, 384), (512, 384), (512, 384), (512, 384), (512, 384), (512, 384), (512, 384), (512, 384), (512, 384), (512, 384), (512, 384), (512, 384), (512, 384), (512, 384), (508, 415), (506, 457), (498, 516), (486, 574), (454, 654)]",102.12373824778939,"[9, 6, 1, 4, 8, 5, 7, 2, 3]","(0, 0.25)",ENG004D,ENG,D,Chinese,Fri Oct 12 18:04:22 2018,Mouse
2,0,4,0,8,4,4,1,317,287,30,150,0,500,200,8000,"[(512, 384), (512, 384), (512, 384), (512, 384), (512, 384), (512, 384), (512, 384), (512, 384), (512, 384), (512, 384), (512, 384), (512, 384), (512, 384), (512, 384), (512, 384), (512, 384), (512, 384), (512, 384), (512, 384), (512, 384), (512, 384), (512, 384), (512, 384), (512, 384), (512, 384), (512, 384), (512, 384), (512, 384), (501, 395), (466, 426), (330, 526), (232, 575)]",145.70042589734504,"[9, 6, 1, 4, 8, 5, 7, 2, 3]","(0, 0.25)",ENG004D,ENG,D,Chinese,Fri Oct 12 18:04:22 2018,Mouse
2,0,4,0,9,1,1,1,97,37,60,149,0,500,200,8000,"[(512, 384), (512, 384), (512, 384), (511, 385), (507, 390), (488, 432), (472, 464), (452, 509), (432, 565), (393, 646)]",114.42747627080098,"[9, 6, 1, 4, 8, 5, 7, 2, 3]","(0, 0.25)",ENG004D,ENG,D,Chinese,Fri Oct 12 18:04:22 2018,Mouse
2,0,4,0,10,6,6,1,328,28,300,148,0,500,200,8000,"[(511, 384), (511, 384), (510, 384), (510, 384), (510, 384), (509, 384), (507, 385), (505, 386), (503, 387), (501, 388), (501, 388), (501, 388), (501, 388), (501, 388), (501, 388), (500, 388), (500, 388), (500, 388), (499, 388), (498, 389), (498, 389), (498, 389), (498, 389), (498, 389), (498, 389), (498, 389), (498, 389), (499, 390), (505, 397), (521, 415), (589, 498), (637, 554), (688, 621)]",53.40182826859085,"[9, 6, 1, 4, 8, 5, 7, 2, 3]","(0, 0.25)",ENG004D,ENG,D,Chinese,Fri Oct 12 18:04:22 2018,Mouse
2,0,4,0,11,8,5,0,-488,88,400,147,0,500,200,8000,"[(512, 384), (512, 384), (512, 384), (512, 384), (512, 384), (512, 384), (512, 384), (512, 384), (512, 386), (511, 386), (511, 386), (511, 387), (511, 387), (511, 387), (511, 387), (511, 387), (511, 387), (511, 387), (511, 387), (511, 387), (511, 387), (511, 387), (511, 387), (511, 387), (511, 387), (511, 387), (511, 387), (511, 387), (511, 387), (511, 387), (511, 387), (511, 387), (510, 387), (510, 387), (510, 387), (510, 387), (510, 387), (509, 387), (506, 386), (499, 383), (481, 375), (473, 371), (467, 369), (459, 366), (439, 355), (420, 344), (383, 327), (340, 309), (241, 284)]",200.25424690312332,"[9, 6, 1, 4, 8, 5, 7, 2, 3]","(0, 0.25)",ENG004D,ENG,D,Chinese,Fri Oct 12 18:04:22 2018,Mouse
2,0,4,0,12,7,7,1,308,278,30,148,0,500,200,8000,"[(512, 384), (512, 384), (512, 384), (512, 384), (512, 384), (512, 384), (512, 384), (512, 384), (512, 384), (512, 384), (512, 384), (512, 384), (512, 384), (512, 384), (512, 384), (512, 384), (512, 384), (512, 384), (512, 384), (512, 384), (512, 384), (512, 384), (512, 384), (512, 384), (512, 384), (512, 384), (512, 384), (512, 370), (510, 317), (507, 242), (503, 114)]",268.0908475670036,"[9, 6, 1, 4, 8, 5, 7, 2, 3]","(0, 0.25)",ENG004D,ENG,D,Chinese,Fri Oct 12 18:04:22 2018,Mouse
2,0,4,0,13,1,1,1,136,76,60,148,0,500,200,8000,"[(512, 384), (512, 384), (512, 384), (512, 384), (512, 384), (512, 384), (512, 384), (512, 390), (512, 401), (512, 420), (508, 504), (504, 557), (500, 605), (495, 643)]",93.75534007320053,"[9, 6, 1, 4, 8, 5, 7, 2, 3]","(0, 0.25)",ENG004D,ENG,D,Chinese,Fri Oct 12 18:04:22 2018,Mouse
2,0,4,0,14,4,4,1,368,308,60,147,0,500,200,8000,"[(512, 384), (512, 384), (512, 384), (512, 384), (512, 384), (512, 384), (512, 384), (512, 384), (512, 384), (512, 384), (512, 384), (512, 384), (512, 384), (512, 384), (512, 384), (512, 384), (512, 384), (512, 384), (512, 384), (512, 384), (512, 384), (512, 384), (512, 384), (512, 384), (512, 384), (512, 384), (512, 384), (512, 384), (512, 384), (512, 384), (510, 384), (491, 402), (471, 419), (438, 439), (400, 460), (312, 479), (274, 486)]",156.80140948635182,"[9, 6, 1, 4, 8, 5, 7, 2, 3]","(0, 0.25)",ENG004D,ENG,D,Chinese,Fri Oct 12 18:04:22 2018,Mouse
2,0,4,0,15,9,6,0,-268,198,70,146,0,500,200,8000,"[(512, 384), (512, 384), (512, 384), (512, 384), (512, 384), (512, 384), (512, 384), (512, 384), (512, 384), (512, 384), (512, 384), (512, 384), (512, 384), (512, 384), (512, 384), (512, 384), (512, 384), (512, 384), (512, 384), (512, 385), (514, 392), (534, 417), (551, 442), (574, 470), (596, 506), (650, 569), (669, 595)]",53.34795597925314,"[9, 6, 1, 4, 8, 5, 7, 2, 3]","(0, 0.25)",ENG004D,ENG,D,Chinese,Fri Oct 12 18:04:22 2018,Mouse
2,0,4,0,16,4,4,1,307,257,50,147,0,500,200,8000,"[(512, 384), (512, 384), (512, 384), (512, 384), (512, 384), (512, 384), (512, 384), (512, 384), (512, 384), (512, 384), (512, 384), (512, 384), (512, 384), (512, 384), (512, 384), (512, 384), (512, 384), (512, 384), (512, 384), (512, 384), (512, 384), (512, 384), (512, 384), (512, 384), (512, 384), (508, 391), (497, 405), (470, 430), (420, 463), (310, 513), (259, 533)]",149.50477327719653,"[9, 6, 1, 4, 8, 5, 7, 2, 3]","(0, 0.25)",ENG004D,ENG,D,Chinese,Fri Oct 12 18:04:22 2018,Mouse
2,0,4,0,17,6,6,1,918,508,410,147,0,500,200,8000,"[(512, 384), (512, 384), (512, 384), (512, 384), (512, 384), (512, 384), (512, 384), (512, 384), (512, 384), (512, 384), (512, 384), (512, 384), (512, 384), (512, 384), (512, 384), (512, 384), (512, 384), (512, 384), (512, 384), (512, 384), (512, 384), (512, 384), (512, 384), (512, 384), (512, 384), (512, 384), (512, 384), (512, 384), (512, 384), (512, 384), (512, 384), (512, 384), (512, 384), (512, 384), (512, 384), (512, 384), (512, 384), (512, 384), (512, 384), (512, 384), (512, 384), (512, 384), (512, 384), (512, 384), (512, 384), (512, 384), (512, 384), (512, 384), (512, 384), (512, 384), (512, 385), (516, 393), (521, 402), (531, 424), (537, 437), (543, 454), (549, 473), (561, 523), (569, 548), (574, 565), (580, 580), (587, 597), (588, 600), (590, 600), (590, 600), (591, 600), (592, 598), (593, 594), (593, 586), (593, 565), (593, 556), (593, 546), (592, 538), (590, 525), (590, 517), (589, 511), (589, 507), (588, 504), (588, 504), (588, 504), (588, 504), (588, 504), (588, 504), (588, 504), (588, 504), (587, 504), (587, 504), (587, 504), (587, 504), (600, 545), (620, 593), (642, 641)]",63.16804494837945,"[9, 6, 1, 4, 8, 5, 7, 2, 3]","(0, 0.25)",ENG004D,ENG,D,Chinese,Fri Oct 12 18:04:22 2018,Mouse
2,0,4,0,18,3,3,1,807,357,450,146,0,500,200,8000,"[(512, 384), (512, 384), (512, 384), (512, 384), (512, 384), (512, 384), (512, 384), (512, 384), (512, 384), (512, 384), (512, 384), (512, 384), (512, 384), (512, 384), (512, 384), (512, 384), (512, 384), (512, 384), (512, 384), (512, 384), (512, 384), (512, 384), (512, 384), (512, 384), (512, 384), (512, 384), (512, 384), (512, 384), (512, 384), (512, 384), (512, 384), (512, 384), (512, 384), (512, 384), (512, 384), (513, 384), (513, 384), (513, 384), (513, 384), (513, 384), (513, 384), (513, 384), (513, 384), (513, 384), (513, 384), (513, 384), (513, 384), (513, 384), (513, 384), (513, 384), (513, 384), (513, 384), (513, 384), (513, 384), (513, 384), (513, 384), (513, 384), (513, 384), (513, 384), (513, 384), (513, 384), (513, 384), (513, 384), (513, 384), (513, 384), (513, 384), (513, 384), (513, 384), (513, 384), (513, 384), (513, 384), (513, 384), (515, 384), (518, 383), (526, 379), (537, 374), (590, 362), (628, 353), (680, 345), (731, 335), (834, 323)]",349.2729488242916,"[9, 6, 1, 4, 8, 5, 7, 2, 3]","(0, 0.25)",ENG004D,ENG,D,Chinese,Fri Oct 12 18:04:22 2018,Mouse
2,0,4,0,19,8,8,1,417,347,70,145,0,500,200,8000,"[(512, 384), (512, 384), (512, 384), (512, 384), (512, 384), (512, 384), (512, 384), (512, 384), (512, 384), (512, 384), (512, 384), (512, 384), (512, 384), (512, 384), (512, 384), (512, 384), (512, 384), (512, 384), (512, 384), (512, 384), (512, 384), (512, 384), (512, 384), (512, 384), (512, 384), (512, 384), (512, 384), (512, 384), (512, 384), (512, 384), (512, 384), (512, 384), (512, 384), (512, 384), (507, 386), (500, 391), (488, 396), (468, 403), (401, 413), (347, 417), (284, 417), (220, 417)]",173.55215002018656,"[9, 6, 1, 4, 8, 5, 7, 2, 3]","(0, 0.25)",ENG004D,ENG,D,Chinese,Fri Oct 12 18:04:22 2018,Mouse
2,0,4,0,20,2,2,1,438,378,60,144,0,500,200,8000,"[(512, 384), (512, 384), (512, 384), (512, 384), (512, 384), (512, 384), (512, 384), (512, 384), (512, 384), (512, 384), (512, 384), (512, 384), (512, 384), (512, 384), (512, 384), (512, 384), (512, 384), (512, 384), (512, 384), (512, 384), (512, 384), (512, 384), (512, 384), (512, 384), (512, 384), (512, 384), (512, 384), (512, 384), (512, 384), (512, 384), (512, 384), (512, 384), (512, 384), (512, 384), (512, 384), (512, 384), (512, 384), (513, 383), (521, 377), (546, 358), (572, 339), (604, 309), (636, 277), (709, 204)]",317.58188029525957,"[9, 6, 1, 4, 8, 5, 7, 2, 3]","(0, 0.25)",ENG004D,ENG,D,Chinese,Fri Oct 12 18:04:22 2018,Mouse
2,0,4,0,21,3,9,0,-308,238,70,143,0,500,200,8000,"[(512, 384), (512, 384), (512, 384), (512, 384), (512, 384), (512, 384), (512, 384), (512, 384), (512, 384), (512, 384), (512, 384), (512, 384), (512, 384), (512, 384), (512, 384), (512, 384), (512, 384), (512, 384), (512, 384), (512, 384), (512, 384), (512, 384), (512, 384), (513, 384), (515, 385), (521, 386), (546, 387), (573, 387), (617, 389), (678, 389), (823, 388)]",0.7368825782116466,"[9, 6, 1, 4, 8, 5, 7, 2, 3]","(0, 0.25)",ENG004D,ENG,D,Chinese,Fri Oct 12 18:04:22 2018,Mouse
2,0,4,0,22,7,2,0,-467,377,90,144,0,500,200,8000,"[(512, 384), (512, 384), (512, 384), (512, 384), (512, 384), (512, 384), (512, 384), (512, 384), (512, 384), (512, 384), (512, 384), (512, 384), (512, 384), (512, 384), (512, 384), (512, 384), (512, 384), (512, 384), (512, 384), (512, 384), (512, 384), (512, 384), (512, 384), (512, 384), (512, 384), (512, 384), (512, 384), (512, 384), (512, 384), (512, 384), (512, 384), (512, 384), (512, 384), (512, 384), (512, 384), (512, 384), (512, 384), (512, 382), (517, 361), (518, 347), (519, 335), (520, 325), (528, 295), (539, 269), (557, 239), (579, 203), (616, 148)]",293.7820304232214,"[9, 6, 1, 4, 8, 5, 7, 2, 3]","(0, 0.25)",ENG004D,ENG,D,Chinese,Fri Oct 12 18:04:22 2018,Mouse
2,0,4,0,23,3,3,1,438,188,250,145,0,500,200,8000,"[(512, 384), (512, 384), (512, 384), (512, 384), (512, 384), (512, 384), (512, 384), (512, 384), (512, 384), (512, 384), (512, 384), (512, 384), (512, 384), (512, 384), (512, 384), (512, 384), (512, 384), (512, 384), (512, 383), (512, 383), (512, 383), (512, 383), (512, 383), (512, 383), (512, 383), (512, 383), (512, 383), (512, 383), (512, 383), (512, 383), (512, 383), (512, 383), (512, 383), (512, 382), (526, 372), (538, 365), (555, 356), (578, 345), (626, 323), (652, 311), (674, 299), (695, 290), (729, 272), (742, 266)]",332.8402043077035,"[9, 6, 1, 4, 8, 5, 7, 2, 3]","(0, 0.25)",ENG004D,ENG,D,Chinese,Fri Oct 12 18:04:22 2018,Mouse
2,0,4,0,24,6,6,1,879,259,620,145,0,500,200,8000,"[(512, 384), (512, 384), (512, 384), (512, 384), (512, 384), (512, 384), (512, 384), (512, 384), (512, 384), (512, 384), (512, 384), (512, 384), (512, 384), (512, 384), (512, 384), (512, 384), (512, 384), (512, 384), (512, 384), (512, 384), (512, 384), (512, 384), (512, 384), (512, 384), (512, 384), (512, 385), (512, 386), (512, 386), (512, 386), (512, 388), (512, 388), (512, 388), (512, 388), (512, 388), (512, 388), (512, 388), (512, 388), (512, 388), (512, 388), (512, 388), (512, 388), (512, 388), (512, 388), (512, 388), (512, 388), (512, 388), (512, 388), (512, 388), (512, 388), (512, 388), (512, 388), (512, 388), (512, 388), (512, 388), (512, 388), (512, 389), (512, 389), (514, 389), (515, 390), (515, 390), (515, 390), (515, 390), (515, 390), (515, 390), (515, 390), (515, 390), (515, 390), (515, 390), (515, 390), (515, 390), (515, 390), (515, 390), (515, 390), (515, 393), (518, 403), (521, 413), (524, 422), (530, 436), (533, 446), (537, 456), (544, 466), (566, 504), (577, 525), (589, 547), (597, 563), (609, 588), (616, 602), (624, 617)]",64.32702554767555,"[9, 6, 1, 4, 8, 5, 7, 2, 3]","(0, 0.25)",ENG004D,ENG,D,Chinese,Fri Oct 12 18:04:22 2018,Mouse
2,0,4,0,25,3,3,1,356,246,110,144,0,500,200,8000,"[(512, 384), (512, 384), (512, 384), (512, 384), (512, 384), (512, 384), (512, 384), (512, 384), (512, 384), (512, 384), (512, 384), (512, 384), (512, 384), (512, 384), (512, 384), (512, 384), (512, 384), (512, 384), (512, 384), (512, 384), (512, 384), (512, 384), (512, 384), (512, 384), (521, 382), (526, 381), (532, 381), (542, 379), (571, 372), (602, 362), (636, 351), (670, 339), (716, 322), (732, 312), (745, 305), (758, 299)]",340.93851234167556,"[9, 6, 1, 4, 8, 5, 7, 2, 3]","(0, 0.25)",ENG004D,ENG,D,Chinese,Fri Oct 12 18:04:22 2018,Mouse
2,0,4,0,26,7,7,1,347,277,70,143,0,500,200,8000,"[(512, 384), (512, 384), (512, 384), (512, 384), (512, 384), (512, 384), (512, 384), (512, 384), (512, 384), (512, 384), (512, 384), (512, 384), (512, 384), (512, 384), (512, 384), (512, 384), (512, 384), (512, 384), (512, 384), (512, 384), (512, 384), (512, 384), (512, 384), (512, 384), (512, 384), (512, 384), (512, 384), (508, 376), (501, 365), (496, 352), (489, 334), (481, 265), (479, 217), (477, 161), (471, 107)]",261.5805274824034,"[9, 6, 1, 4, 8, 5, 7, 2, 3]","(0, 0.25)",ENG004D,ENG,D,Chinese,Fri Oct 12 18:04:22 2018,Mouse
2,0,4,0,27,8,9,0,-409,309,100,142,0,500,200,8000,"[(512, 384), (512, 384), (512, 384), (512, 384), (512, 384), (512, 384), (512, 384), (512, 384), (512, 384), (512, 384), (512, 384), (512, 384), (512, 384), (512, 384), (512, 384), (512, 384), (512, 384), (512, 384), (512, 384), (512, 384), (512, 384), (512, 384), (512, 384), (512, 384), (512, 384), (512, 384), (512, 384), (512, 384), (512, 384), (512, 384), (515, 384), (526, 384), (534, 384), (543, 384), (552, 384), (583, 385), (600, 386), (621, 388), (643, 388), (721, 388), (766, 387)]",0.6766903402793287,"[9, 6, 1, 4, 8, 5, 7, 2, 3]","(0, 0.25)",ENG004D,ENG,D,Chinese,Fri Oct 12 18:04:22 2018,Mouse
2,0,4,0,28,2,2,1,308,258,50,143,0,500,200,8000,"[(512, 384), (512, 384), (512, 384), (512, 384), (512, 384), (512, 384), (512, 384), (512, 384), (512, 384), (512, 384), (512, 384), (512, 384), (512, 384), (512, 384), (512, 384), (512, 384), (512, 384), (512, 384), (512, 384), (512, 384), (512, 384), (512, 384), (512, 384), (512, 384), (512, 384), (527, 363), (542, 336), (567, 300), (589, 264), (636, 197), (660, 166)]",304.1725468961746,"[9, 6, 1, 4, 8, 5, 7, 2, 3]","(0, 0.25)",ENG004D,ENG,D,Chinese,Fri Oct 12 18:04:22 2018,Mouse
2,0,4,0,29,8,8,1,538,448,90,143,0,500,200,8000,"[(512, 384), (512, 384), (512, 384), (512, 384), (512, 384), (512, 384), (512, 384), (512, 384), (512, 384), (512, 384), (512, 384), (512, 384), (512, 384), (512, 384), (512, 384), (512, 384), (512, 384), (512, 384), (512, 384), (512, 384), (512, 384), (512, 384), (512, 384), (512, 384), (512, 384), (512, 384), (512, 384), (512, 384), (512, 384), (512, 384), (512, 384), (512, 384), (512, 384), (512, 384), (512, 384), (512, 384), (512, 384), (512, 384), (512, 384), (512, 384), (512, 384), (512, 384), (512, 384), (512, 384), (511, 384), (502, 387), (497, 389), (486, 390), (473, 392), (423, 393), (393, 393), (350, 391), (300, 389), (209, 381)]",180.56726640985792,"[9, 6, 1, 4, 8, 5, 7, 2, 3]","(0, 0.25)",ENG004D,ENG,D,Chinese,Fri Oct 12 18:04:22 2018,Mouse
2,0,4,0,30,5,5,1,1188,1148,40,142,0,500,200,8000,"[(512, 384), (512, 384), (512, 384), (512, 384), (512, 384), (512, 384), (512, 384), (512, 384), (512, 384), (512, 384), (512, 384), (512, 384), (512, 384), (512, 384), (512, 384), (512, 384), (512, 384), (512, 384), (512, 384), (512, 384), (512, 384), (512, 384), (512, 384), (512, 384), (512, 384), (512, 384), (512, 384), (512, 384), (512, 384), (512, 384), (512, 384), (512, 384), (512, 384), (512, 384), (512, 384), (512, 384), (512, 384), (512, 384), (512, 384), (512, 384), (512, 384), (512, 384), (512, 384), (512, 384), (512, 384), (512, 384), (512, 384), (512, 384), (512, 384), (512, 384), (512, 384), (512, 384), (512, 384), (512, 384), (512, 384), (512, 384), (512, 384), (512, 384), (512, 384), (512, 384), (512, 384), (512, 384), (512, 384), (512, 384), (512, 384), (512, 384), (512, 384), (512, 384), (512, 384), (512, 384), (512, 384), (512, 384), (512, 384), (512, 384), (512, 384), (512, 384), (512, 384), (512, 384), (512, 384), (512, 384), (512, 384), (512, 384), (512, 384), (512, 384), (512, 384), (512, 384), (512, 384), (512, 384), (512, 384), (512, 384), (512, 384), (512, 384), (512, 384), (512, 384), (512, 384), (512, 384), (512, 384), (512, 384), (512, 384), (512, 384), (512, 384), (512, 384), (512, 384), (512, 384), (512, 384), (512, 384), (512, 384), (512, 384), (512, 384), (512, 384), (512, 384), (512, 384), (512, 384), (512, 384), (493, 375), (466, 361), (429, 347), (387, 329), (274, 281)]",203.4016633122186,"[9, 6, 1, 4, 8, 5, 7, 2, 3]","(0, 0.25)",ENG004D,ENG,D,Chinese,Fri Oct 12 18:04:22 2018,Mouse
2,0,4,0,31,1,1,1,117,47,70,141,0,500,200,8000,"[(512, 384), (512, 384), (512, 384), (512, 384), (509, 389), (501, 402), (476, 455), (469, 488), (461, 521), (454, 554), (440, 614), (439, 640)]",105.91583151783304,"[9, 6, 1, 4, 8, 5, 7, 2, 3]","(0, 0.25)",ENG004D,ENG,D,Chinese,Fri Oct 12 18:04:22 2018,Mouse
2,0,4,0,32,3,3,1,417,287,130,140,0,500,200,8000,"[(512, 384), (512, 384), (512, 384), (512, 384), (512, 384), (512, 384), (512, 384), (512, 384), (512, 384), (512, 384), (512, 384), (512, 384), (512, 384), (512, 384), (512, 384), (512, 384), (512, 384), (512, 384), (512, 384), (512, 384), (512, 384), (512, 384), (512, 384), (512, 384), (512, 384), (512, 384), (512, 384), (512, 384), (515, 382), (521, 378), (521, 377), (522, 376), (524, 376), (526, 376), (531, 376), (539, 376), (544, 376), (573, 377), (604, 377), (648, 377), (699, 372), (803, 350)]",353.3358627075874,"[9, 6, 1, 4, 8, 5, 7, 2, 3]","(0, 0.25)",ENG004D,ENG,D,Chinese,Fri Oct 12 18:04:22 2018,Mouse
2,0,4,0,33,5,5,1,448,408,40,139,0,500,200,8000,"[(512, 384), (512, 384), (512, 384), (512, 384), (512, 384), (512, 384), (512, 384), (512, 384), (512, 384), (512, 384), (512, 384), (512, 384), (512, 384), (512, 384), (512, 384), (512, 384), (512, 384), (512, 384), (512, 384), (512, 384), (512, 384), (512, 384), (512, 384), (512, 384), (512, 384), (512, 384), (512, 384), (512, 384), (512, 384), (512, 384), (512, 384), (512, 384), (512, 384), (512, 384), (512, 384), (512, 384), (512, 384), (512, 384), (512, 384), (512, 384), (507, 383), (487, 365), (414, 292), (371, 254), (321, 220)]",220.65066626528187,"[9, 6, 1, 4, 8, 5, 7, 2, 3]","(0, 0.25)",ENG004D,ENG,D,Chinese,Fri Oct 12 18:04:22 2018,Mouse
2,0,4,0,34,6,6,1,768,388,380,138,0,500,200,8000,"[(512, 384), (512, 384), (512, 384), (512, 384), (512, 384), (512, 384), (512, 384), (512, 384), (512, 384), (512, 384), (512, 384), (512, 384), (512, 384), (512, 384), (512, 384), (512, 384), (512, 384), (512, 384), (512, 384), (512, 384), (512, 384), (512, 384), (512, 384), (512, 384), (512, 384), (512, 384), (512, 384), (512, 384), (512, 384), (512, 384), (512, 384), (512, 384), (512, 384), (512, 384), (512, 384), (512, 384), (512, 384), (512, 384), (514, 384), (515, 385), (518, 387), (518, 387), (518, 387), (519, 387), (519, 387), (519, 387), (519, 387), (519, 387), (519, 387), (519, 387), (519, 387), (520, 387), (520, 387), (520, 387), (520, 387), (520, 387), (520, 387), (520, 387), (520, 387), (520, 387), (520, 387), (520, 387), (520, 387), (520, 387), (520, 394), (520, 405), (520, 420), (520, 439), (520, 467), (520, 481), (521, 492), (528, 505), (551, 545), (569, 564), (587, 580), (608, 598), (639, 620)]",61.71372383426993,"[9, 6, 1, 4, 8, 5, 7, 2, 3]","(0, 0.25)",ENG004D,ENG,D,Chinese,Fri Oct 12 18:04:22 2018,Mouse
2,0,4,0,35,9,3,0,-368,308,60,137,0,500,200,8000,"[(512, 384), (512, 384), (512, 384), (512, 384), (512, 384), (512, 384), (512, 384), (512, 384), (512, 384), (512, 384), (512, 384), (512, 384), (512, 384), (512, 384), (512, 384), (512, 384), (512, 384), (512, 384), (512, 384), (512, 384), (512, 384), (512, 384), (512, 384), (512, 384), (512, 384), (512, 384), (512, 384), (512, 384), (512, 384), (512, 384), (515, 381), (524, 378), (538, 373), (564, 370), (647, 361), (701, 357), (760, 349)]",351.96695420944064,"[9, 6, 1, 4, 8, 5, 7, 2, 3]","(0, 0.25)",ENG004D,ENG,D,Chinese,Fri Oct 12 18:04:22 2018,Mouse
2,0,4,0,36,8,8,1,368,218,150,138,0,500,200,8000,"[(512, 384), (512, 384), (512, 384), (512, 384), (512, 384), (512, 384), (512, 384), (512, 384), (512, 384), (512, 384), (512, 384), (512, 384), (512, 384), (512, 384), (512, 384), (512, 384), (512, 384), (512, 384), (512, 384), (512, 384), (512, 384), (510, 384), (509, 384), (508, 385), (507, 386), (506, 386), (506, 386), (506, 386), (504, 386), (502, 387), (496, 389), (488, 391), (453, 396), (422, 398), (383, 398), (336, 398), (238, 395)]",177.70103902031042,"[9, 6, 1, 4, 8, 5, 7, 2, 3]","(0, 0.25)",ENG004D,ENG,D,Chinese,Fri Oct 12 18:04:22 2018,Mouse
2,0,4,0,37,6,6,1,1077,457,620,138,0,500,200,8000,"[(512, 384), (512, 384), (512, 384), (512, 384), (512, 384), (512, 384), (512, 384), (512, 384), (512, 384), (512, 384), (512, 384), (512, 384), (512, 384), (512, 384), (512, 384), (512, 384), (512, 384), (512, 384), (512, 384), (512, 384), (512, 384), (512, 384), (512, 384), (512, 384), (512, 384), (512, 384), (512, 384), (512, 384), (512, 384), (512, 384), (512, 384), (512, 384), (512, 384), (512, 384), (512, 384), (512, 384), (512, 384), (512, 384), (512, 384), (512, 384), (512, 384), (512, 384), (512, 384), (512, 384), (512, 384), (515, 385), (541, 394), (561, 401), (579, 408), (599, 414), (621, 423), (628, 426), (632, 427), (633, 427), (633, 427), (633, 427), (634, 427), (634, 427), (634, 427), (634, 427), (634, 427), (634, 427), (634, 427), (634, 427), (634, 427), (634, 427), (634, 427), (634, 427), (634, 427), (634, 427), (634, 428), (634, 428), (634, 428), (633, 429), (633, 429), (633, 429), (633, 430), (633, 434), (634, 453), (635, 467), (636, 480), (636, 495), (637, 516), (637, 521), (636, 526), (636, 529), (636, 534), (637, 536), (637, 538), (637, 538), (638, 539), (638, 540), (639, 540), (639, 540), (639, 540), (640, 540), (642, 541), (644, 542), (648, 544), (649, 545), (649, 546), (649, 548), (649, 553), (650, 556), (651, 560), (653, 570), (656, 585), (658, 594)]",55.19150185002769,"[9, 6, 1, 4, 8, 5, 7, 2, 3]","(0, 0.25)",ENG004D,ENG,D,Chinese,Fri Oct 12 18:04:22 2018,Mouse
2,0,4,0,38,3,3,1,576,526,50,137,0,500,200,8000,"[(512, 384), (512, 384), (512, 384), (512, 384), (512, 384), (512, 384), (512, 384), (512, 384), (512, 384), (512, 384), (512, 384), (512, 384), (512, 384), (512, 384), (512, 384), (512, 384), (512, 384), (512, 384), (512, 384), (512, 384), (512, 384), (512, 384), (512, 384), (512, 384), (512, 384), (512, 384), (512, 384), (512, 384), (512, 384), (512, 384), (512, 384), (512, 384), (512, 384), (512, 384), (512, 384), (512, 384), (512, 384), (512, 384), (512, 384), (512, 384), (512, 384), (512, 384), (512, 384), (512, 384), (512, 384), (512, 384), (512, 384), (512, 384), (512, 384), (512, 384), (512, 384), (512, 384), (514, 383), (541, 377), (570, 372), (605, 369), (653, 361), (763, 339)]",349.8358303641549,"[9, 6, 1, 4, 8, 5, 7, 2, 3]","(0, 0.25)",ENG004D,ENG,D,Chinese,Fri Oct 12 18:04:22 2018,Mouse
2,0,4,0,39,5,2,0,-629,469,160,136,0,500,200,8000,"[(512, 384), (512, 384), (512, 384), (512, 384), (512, 384), (512, 384), (512, 384), (512, 384), (512, 384), (512, 384), (512, 384), (512, 384), (512, 384), (512, 384), (512, 384), (512, 384), (512, 384), (512, 384), (512, 384), (512, 384), (512, 384), (512, 384), (512, 384), (512, 384), (512, 384), (512, 384), (512, 384), (512, 384), (512, 384), (512, 384), (512, 384), (512, 384), (512, 384), (512, 384), (512, 384), (512, 384), (512, 384), (512, 384), (512, 384), (512, 384), (512, 384), (512, 384), (512, 384), (512, 384), (512, 384), (512, 384), (512, 379), (512, 375), (512, 371), (512, 368), (511, 361), (511, 359), (510, 358), (510, 358), (510, 357), (510, 355), (511, 355), (512, 354), (520, 349), (533, 344), (551, 337), (585, 313), (705, 221)]",319.81691529649265,"[9, 6, 1, 4, 8, 5, 7, 2, 3]","(0, 0.25)",ENG004D,ENG,D,Chinese,Fri Oct 12 18:04:22 2018,Mouse
2,0,4,0,40,3,3,1,297,227,70,137,0,500,200,8000,"[(512, 384), (512, 384), (512, 384), (512, 384), (512, 384), (512, 384), (512, 384), (512, 384), (512, 384), (512, 384), (512, 384), (512, 384), (512, 384), (512, 384), (512, 384), (512, 384), (512, 384), (512, 384), (512, 384), (512, 384), (512, 384), (512, 384), (513, 384), (517, 383), (528, 380), (543, 375), (630, 368), (690, 359), (760, 355), (835, 351)]",354.1664924152648,"[9, 6, 1, 4, 8, 5, 7, 2, 3]","(0, 0.25)",ENG004D,ENG,D,Chinese,Fri Oct 12 18:04:22 2018,Mouse
2,0,4,0,41,6,2,0,-517,347,170,137,0,500,200,8000,"[(512, 384), (512, 384), (512, 384), (512, 384), (512, 384), (512, 384), (512, 384), (512, 384), (512, 384), (512, 384), (512, 384), (512, 384), (512, 384), (512, 384), (512, 384), (512, 384), (512, 384), (512, 384), (512, 384), (512, 384), (512, 384), (512, 384), (512, 384), (512, 384), (512, 384), (512, 384), (512, 384), (512, 384), (512, 384), (512, 384), (512, 384), (512, 384), (512, 384), (512, 384), (512, 379), (518, 361), (521, 347), (525, 324), (531, 296), (535, 256), (536, 246), (536, 241), (536, 237), (538, 233), (539, 232), (543, 230), (546, 227), (565, 216), (582, 207), (599, 194), (619, 180), (655, 141)]",300.4758480625808,"[9, 6, 1, 4, 8, 5, 7, 2, 3]","(0, 0.25)",ENG004D,ENG,D,Chinese,Fri Oct 12 18:04:22 2018,Mouse
2,0,4,0,42,5,5,1,378,318,60,138,0,500,200,8000,"[(512, 384), (512, 384), (512, 384), (512, 384), (512, 384), (512, 384), (512, 384), (512, 384), (512, 384), (512, 384), (512, 384), (512, 384), (512, 384), (512, 384), (512, 384), (512, 384), (512, 384), (512, 384), (512, 384), (512, 384), (512, 384), (512, 384), (512, 384), (512, 384), (512, 384), (512, 384), (512, 384), (512, 384), (512, 384), (512, 384), (512, 384), (510, 384), (502, 380), (481, 369), (408, 320), (369, 288), (332, 257), (291, 218)]",216.91135623449338,"[9, 6, 1, 4, 8, 5, 7, 2, 3]","(0, 0.25)",ENG004D,ENG,D,Chinese,Fri Oct 12 18:04:22 2018,Mouse
2,0,4,0,43,5,5,1,356,296,60,138,0,500,200,8000,"[(512, 384), (512, 384), (512, 384), (512, 384), (512, 384), (512, 384), (512, 384), (512, 384), (512, 384), (512, 384), (512, 384), (512, 384), (512, 384), (512, 384), (512, 384), (512, 384), (512, 384), (512, 384), (512, 384), (512, 384), (512, 384), (512, 384), (512, 384), (512, 384), (512, 384), (512, 384), (512, 384), (512, 384), (512, 384), (505, 381), (489, 373), (425, 329), (388, 298), (353, 265), (320, 232), (255, 180)]",218.44164356066227,"[9, 6, 1, 4, 8, 5, 7, 2, 3]","(0, 0.25)",ENG004D,ENG,D,Chinese,Fri Oct 12 18:04:22 2018,Mouse
2,0,4,0,44,9,3,0,-298,198,100,137,0,500,200,8000,"[(512, 384), (512, 384), (512, 384), (512, 384), (512, 384), (512, 384), (512, 384), (512, 384), (512, 384), (512, 384), (512, 384), (512, 384), (512, 384), (512, 384), (512, 384), (512, 384), (512, 384), (512, 384), (512, 384), (513, 384), (516, 384), (521, 384), (530, 381), (535, 379), (540, 375), (548, 371), (594, 352), (650, 332), (714, 310), (778, 284)]",339.39675892658266,"[9, 6, 1, 4, 8, 5, 7, 2, 3]","(0, 0.25)",ENG004D,ENG,D,Chinese,Fri Oct 12 18:04:22 2018,Mouse
2,0,4,0,45,2,2,1,327,217,110,138,0,500,200,8000,"[(512, 384), (512, 384), (512, 384), (512, 384), (512, 384), (512, 384), (512, 384), (512, 384), (512, 384), (512, 384), (512, 384), (512, 384), (512, 384), (512, 384), (512, 384), (512, 384), (512, 384), (512, 384), (512, 384), (512, 384), (512, 384), (513, 384), (513, 384), (517, 384), (520, 384), (523, 381), (530, 376), (546, 354), (558, 334), (573, 307), (593, 274), (644, 204), (673, 170)]",306.9554775366644,"[9, 6, 1, 4, 8, 5, 7, 2, 3]","(0, 0.25)",ENG004D,ENG,D,Chinese,Fri Oct 12 18:04:22 2018,Mouse
2,0,4,0,46,8,4,0,-689,419,270,138,0,500,200,8000,"[(512, 384), (512, 384), (512, 384), (512, 384), (512, 384), (512, 384), (512, 384), (512, 384), (512, 384), (512, 384), (512, 384), (512, 384), (512, 384), (512, 384), (512, 384), (512, 384), (512, 384), (512, 384), (512, 384), (512, 384), (512, 384), (512, 384), (512, 384), (512, 384), (512, 384), (512, 384), (512, 384), (512, 384), (512, 384), (512, 384), (512, 384), (512, 384), (512, 384), (512, 384), (512, 384), (512, 384), (512, 384), (512, 384), (512, 384), (512, 384), (512, 384), (512, 390), (511, 402), (511, 414), (511, 433), (511, 481), (511, 494), (511, 507), (510, 514), (503, 530), (499, 536), (495, 540), (490, 543), (486, 543), (484, 543), (480, 541), (472, 537), (446, 520), (427, 508), (410, 497), (390, 483), (360, 469), (348, 465), (337, 462), (327, 461), (311, 461), (301, 462), (289, 467), (276, 471)]",159.76389066135565,"[9, 6, 1, 4, 8, 5, 7, 2, 3]","(0, 0.25)",ENG004D,ENG,D,Chinese,Fri Oct 12 18:04:22 2018,Mouse
2,0,4,0,47,6,6,1,348,18,330,139,0,500,200,8000,"[(511, 386), (508, 386), (507, 386), (507, 386), (507, 386), (507, 386), (507, 386), (507, 386), (507, 386), (507, 386), (507, 386), (507, 386), (507, 386), (507, 386), (507, 386), (507, 386), (507, 386), (507, 386), (507, 386), (507, 386), (507, 386), (507, 386), (507, 386), (507, 386), (507, 386), (507, 386), (507, 386), (524, 395), (545, 412), (571, 435), (587, 460), (625, 511), (640, 535), (655, 565), (663, 590)]",53.75822199285766,"[9, 6, 1, 4, 8, 5, 7, 2, 3]","(0, 0.25)",ENG004D,ENG,D,Chinese,Fri Oct 12 18:04:22 2018,Mouse
2,0,4,0,48,2,2,1,308,228,80,139,0,500,200,8000,"[(512, 384), (512, 384), (512, 384), (512, 384), (512, 384), (512, 384), (512, 384), (512, 384), (512, 384), (512, 384), (512, 384), (512, 384), (512, 384), (512, 384), (512, 384), (512, 384), (512, 384), (512, 384), (512, 384), (512, 384), (512, 384), (512, 384), (512, 382), (522, 366), (529, 355), (534, 344), (546, 323), (585, 260), (611, 216), (634, 177), (655, 139)]",300.2709755492901,"[9, 6, 1, 4, 8, 5, 7, 2, 3]","(0, 0.25)",ENG004D,ENG,D,Chinese,Fri Oct 12 18:04:22 2018,Mouse
2,0,4,0,49,9,5,0,-798,688,110,138,0,500,200,8000,"[(512, 384), (512, 384), (512, 384), (512, 384), (512, 384), (512, 384), (512, 384), (512, 384), (512, 384), (512, 384), (512, 384), (512, 384), (512, 384), (512, 384), (512, 384), (512, 384), (512, 384), (512, 384), (512, 384), (512, 384), (512, 384), (512, 384), (512, 384), (512, 384), (512, 384), (512, 384), (512, 384), (512, 384), (512, 384), (512, 384), (512, 384), (512, 384), (512, 384), (512, 384), (512, 384), (512, 384), (512, 384), (512, 384), (512, 384), (512, 384), (512, 384), (512, 384), (512, 384), (512, 384), (512, 384), (512, 384), (512, 384), (512, 384), (512, 384), (512, 384), (512, 384), (512, 384), (512, 384), (512, 384), (512, 384), (512, 384), (512, 384), (512, 384), (512, 384), (512, 384), (512, 384), (512, 384), (512, 384), (512, 384), (512, 384), (512, 384), (512, 384), (512, 384), (508, 381), (503, 372), (495, 363), (473, 346), (463, 336), (451, 330), (442, 323), (403, 299), (373, 282), (343, 262), (313, 244), (253, 213)]",213.4340559164847,"[9, 6, 1, 4, 8, 5, 7, 2, 3]","(0, 0.25)",ENG004D,ENG,D,Chinese,Fri Oct 12 18:04:22 2018,Mouse
2,0,4,0,50,8,8,1,1187,917,270,139,0,500,200,8000,"[(512, 384), (512, 384), (512, 384), (512, 384), (512, 384), (512, 384), (512, 384), (512, 384), (512, 384), (512, 384), (512, 384), (512, 384), (512, 384), (512, 384), (512, 384), (512, 384), (512, 384), (512, 384), (512, 384), (512, 384), (512, 384), (512, 384), (512, 384), (512, 384), (512, 384), (512, 384), (512, 384), (512, 384), (512, 384), (512, 384), (512, 384), (512, 384), (512, 384), (512, 384), (512, 384), (512, 384), (512, 384), (512, 384), (512, 384), (512, 384), (512, 384), (512, 384), (512, 384), (512, 384), (512, 384), (512, 384), (512, 384), (512, 384), (512, 384), (512, 384), (512, 384), (512, 384), (512, 384), (512, 384), (512, 384), (512, 384), (512, 384), (512, 384), (512, 384), (512, 384), (512, 384), (512, 384), (512, 384), (512, 384), (512, 384), (512, 384), (512, 384), (512, 384), (512, 384), (512, 384), (512, 384), (512, 384), (512, 384), (512, 384), (512, 384), (512, 384), (512, 384), (512, 384), (512, 384), (512, 384), (512, 384), (512, 384), (512, 384), (512, 384), (512, 384), (512, 384), (512, 384), (512, 384), (512, 384), (512, 384), (512, 384), (511, 384), (510, 384), (509, 384), (509, 384), (509, 384), (509, 384), (509, 384), (508, 384), (508, 384), (508, 384), (508, 384), (507, 384), (506, 384), (506, 384), (506, 384), (506, 384), (506, 384), (506, 384), (506, 384), (506, 384), (505, 384), (505, 384), (503, 384), (482, 391), (463, 394), (423, 395), (370, 397), (223, 392)]",178.4143625889031,"[9, 6, 1, 4, 8, 5, 7, 2, 3]","(0, 0.25)",ENG004D,ENG,D,Chinese,Fri Oct 12 18:04:22 2018,Mouse
2,0,4,0,51,9,3,0,-386,306,80,139,0,500,200,8000,"[(512, 384), (512, 384), (512, 384), (512, 384), (512, 384), (512, 384), (512, 384), (512, 384), (512, 384), (512, 384), (512, 384), (512, 384), (512, 384), (512, 384), (512, 384), (512, 384), (512, 384), (512, 384), (512, 384), (512, 384), (512, 384), (512, 384), (512, 384), (512, 384), (512, 384), (512, 384), (512, 384), (512, 384), (512, 384), (512, 384), (513, 384), (519, 381), (529, 378), (543, 375), (601, 365), (638, 360), (676, 355), (710, 353), (768, 346)]",351.55680907082336,"[9, 6, 1, 4, 8, 5, 7, 2, 3]","(0, 0.25)",ENG004D,ENG,D,Chinese,Fri Oct 12 18:04:22 2018,Mouse
2,0,4,0,52,1,1,1,389,339,50,140,0,500,200,8000,"[(512, 384), (512, 384), (512, 384), (512, 384), (512, 384), (512, 384), (512, 384), (512, 384), (512, 384), (512, 384), (512, 384), (512, 384), (512, 384), (512, 384), (512, 384), (512, 384), (512, 384), (512, 384), (512, 384), (512, 384), (512, 384), (512, 384), (512, 384), (512, 384), (512, 384), (512, 384), (512, 384), (512, 384), (512, 384), (512, 384), (512, 384), (512, 384), (512, 384), (508, 393), (481, 448), (463, 483), (446, 518), (433, 557), (411, 640)]",111.53078366043852,"[9, 6, 1, 4, 8, 5, 7, 2, 3]","(0, 0.25)",ENG004D,ENG,D,Chinese,Fri Oct 12 18:04:22 2018,Mouse
2,0,4,0,53,9,9,1,428,328,100,140,0,500,200,8000,"[(512, 384), (512, 384), (512, 384), (512, 384), (512, 384), (512, 384), (512, 384), (512, 384), (512, 384), (512, 384), (512, 384), (512, 384), (512, 384), (512, 384), (512, 384), (512, 384), (512, 384), (512, 384), (512, 384), (512, 384), (512, 384), (512, 384), (512, 384), (512, 384), (512, 384), (512, 384), (512, 384), (512, 384), (512, 384), (512, 384), (512, 384), (512, 384), (513, 384), (518, 384), (535, 384), (548, 385), (561, 387), (574, 388), (610, 393), (635, 401), (680, 412), (724, 426), (824, 458)]",13.342833698423048,"[9, 6, 1, 4, 8, 5, 7, 2, 3]","(0, 0.25)",ENG004D,ENG,D,Chinese,Fri Oct 12 18:04:22 2018,Mouse
2,0,4,0,54,3,3,1,238,148,90,139,0,500,200,8000,"[(512, 384), (512, 384), (512, 384), (512, 384), (512, 384), (512, 384), (512, 384), (512, 384), (512, 384), (512, 384), (512, 384), (512, 384), (512, 384), (512, 384), (512, 383), (517, 383), (522, 381), (527, 379), (544, 373), (558, 369), (585, 357), (622, 342), (711, 311), (764, 293)]",340.14478563067894,"[9, 6, 1, 4, 8, 5, 7, 2, 3]","(0, 0.25)",ENG004D,ENG,D,Chinese,Fri Oct 12 18:04:22 2018,Mouse
2,0,4,0,55,2,2,1,338,288,50,138,0,500,200,8000,"[(512, 384), (512, 384), (512, 384), (512, 384), (512, 384), (512, 384), (512, 384), (512, 384), (512, 384), (512, 384), (512, 384), (512, 384), (512, 384), (512, 384), (512, 384), (512, 384), (512, 384), (512, 384), (512, 384), (512, 384), (512, 384), (512, 384), (512, 384), (512, 384), (512, 384), (512, 384), (512, 384), (512, 384), (518, 372), (543, 328), (566, 285), (593, 238), (626, 183), (680, 111)]",301.6075022462489,"[9, 6, 1, 4, 8, 5, 7, 2, 3]","(0, 0.25)",ENG004D,ENG,D,Chinese,Fri Oct 12 18:04:22 2018,Mouse
2,0,4,0,56,3,3,1,408,358,50,137,0,500,200,8000,"[(512, 384), (512, 384), (512, 384), (512, 384), (512, 384), (512, 384), (512, 384), (512, 384), (512, 384), (512, 384), (512, 384), (512, 384), (512, 384), (512, 384), (512, 384), (512, 384), (512, 384), (512, 384), (512, 384), (512, 384), (512, 384), (512, 384), (512, 384), (512, 384), (512, 384), (512, 384), (512, 384), (512, 384), (512, 384), (512, 384), (512, 384), (512, 384), (512, 384), (512, 384), (512, 384), (520, 380), (534, 374), (561, 370), (652, 358), (712, 348), (781, 335)]",349.6764110459643,"[9, 6, 1, 4, 8, 5, 7, 2, 3]","(0, 0.25)",ENG004D,ENG,D,Chinese,Fri Oct 12 18:04:22 2018,Mouse
2,0,4,0,57,2,2,1,327,267,60,136,0,500,200,8000,"[(512, 384), (512, 384), (512, 384), (512, 384), (512, 384), (512, 384), (512, 384), (512, 384), (512, 384), (512, 384), (512, 384), (512, 384), (512, 384), (512, 384), (512, 384), (512, 384), (512, 384), (512, 384), (512, 384), (512, 384), (512, 384), (512, 384), (512, 384), (512, 384), (512, 384), (512, 384), (515, 378), (524, 364), (548, 330), (567, 305), (590, 267), (614, 230), (673, 139)]",303.3106308245608,"[9, 6, 1, 4, 8, 5, 7, 2, 3]","(0, 0.25)",ENG004D,ENG,D,Chinese,Fri Oct 12 18:04:22 2018,Mouse
2,0,4,0,58,9,3,0,-307,247,60,135,0,500,200,8000,"[(512, 384), (512, 384), (512, 384), (512, 384), (512, 384), (512, 384), (512, 384), (512, 384), (512, 384), (512, 384), (512, 384), (512, 384), (512, 384), (512, 384), (512, 384), (512, 384), (512, 384), (512, 384), (512, 384), (512, 384), (512, 384), (512, 384), (512, 384), (512, 384), (513, 384), (520, 380), (554, 367), (591, 354), (640, 346), (691, 336), (806, 314)]",346.6075022462489,"[9, 6, 1, 4, 8, 5, 7, 2, 3]","(0, 0.25)",ENG004D,ENG,D,Chinese,Fri Oct 12 18:04:22 2018,Mouse
2,0,4,0,59,4,2,0,-218,138,80,136,0,500,200,8000,"[(512, 384), (512, 384), (512, 384), (512, 384), (512, 384), (512, 384), (512, 384), (512, 384), (512, 384), (512, 384), (512, 384), (512, 384), (512, 384), (512, 383), (520, 363), (528, 350), (536, 332), (551, 309), (598, 240), (624, 206), (647, 177), (669, 147)]",303.5223730403922,"[9, 6, 1, 4, 8, 5, 7, 2, 3]","(0, 0.25)",ENG004D,ENG,D,Chinese,Fri Oct 12 18:04:22 2018,Mouse
2,0,4,0,60,8,8,1,328,118,210,137,0,500,200,8000,"[(512, 384), (512, 384), (512, 384), (512, 384), (512, 384), (512, 384), (512, 384), (512, 384), (512, 384), (512, 384), (512, 384), (511, 385), (508, 386), (505, 389), (500, 391), (485, 394), (480, 395), (477, 395), (474, 395), (471, 395), (469, 395), (467, 395), (465, 395), (461, 395), (459, 394), (458, 394), (457, 394), (451, 394), (442, 394), (425, 392), (394, 392), (302, 391), (235, 388)]",179.17268162518528,"[9, 6, 1, 4, 8, 5, 7, 2, 3]","(0, 0.25)",ENG004D,ENG,D,Chinese,Fri Oct 12 18:04:22 2018,Mouse
2,0,4,0,61,7,5,0,-488,88,400,137,0,500,200,8000,"[(512, 384), (512, 384), (512, 384), (512, 384), (512, 384), (512, 384), (512, 384), (512, 384), (511, 382), (507, 377), (505, 375), (505, 374), (503, 372), (502, 372), (501, 371), (501, 371), (501, 371), (501, 371), (501, 371), (501, 371), (501, 371), (501, 371), (501, 371), (501, 371), (501, 371), (501, 371), (501, 371), (501, 371), (501, 371), (501, 371), (501, 371), (501, 371), (501, 371), (501, 371), (501, 371), (501, 371), (501, 371), (501, 371), (501, 371), (501, 371), (501, 371), (494, 368), (480, 360), (453, 342), (427, 324), (382, 280), (355, 243), (339, 214), (324, 174)]",228.16388361888073,"[9, 6, 1, 4, 8, 5, 7, 2, 3]","(0, 0.25)",ENG004D,ENG,D,Chinese,Fri Oct 12 18:04:22 2018,Mouse
2,0,4,0,62,5,2,0,-468,398,70,138,0,500,200,8000,"[(512, 384), (512, 384), (512, 384), (512, 384), (512, 384), (512, 384), (512, 384), (512, 384), (512, 384), (512, 384), (512, 384), (512, 384), (512, 384), (512, 384), (512, 384), (512, 384), (512, 384), (512, 384), (512, 384), (512, 384), (512, 384), (512, 384), (512, 384), (512, 384), (512, 384), (512, 384), (512, 384), (512, 384), (512, 384), (512, 384), (512, 384), (512, 384), (512, 384), (512, 384), (512, 384), (512, 384), (512, 384), (512, 384), (512, 384), (515, 382), (524, 373), (535, 359), (548, 342), (588, 281), (622, 238), (660, 188), (694, 148)]",307.63892232842204,"[9, 6, 1, 4, 8, 5, 7, 2, 3]","(0, 0.25)",ENG004D,ENG,D,Chinese,Fri Oct 12 18:04:22 2018,Mouse
2,0,4,0,63,4,4,1,427,357,70,139,0,500,200,8000,"[(512, 384), (512, 384), (512, 384), (512, 384), (512, 384), (512, 384), (512, 384), (512, 384), (512, 384), (512, 384), (512, 384), (512, 384), (512, 384), (512, 384), (512, 384), (512, 384), (512, 384), (512, 384), (512, 384), (512, 384), (512, 384), (512, 384), (512, 384), (512, 384), (512, 384), (512, 384), (512, 384), (512, 384), (512, 384), (512, 384), (512, 384), (512, 384), (512, 384), (512, 384), (512, 384), (508, 390), (498, 402), (483, 416), (454, 437), (392, 485), (354, 508), (315, 533), (254, 572)]",143.9198437836623,"[9, 6, 1, 4, 8, 5, 7, 2, 3]","(0, 0.25)",ENG004D,ENG,D,Chinese,Fri Oct 12 18:04:22 2018,Mouse
2,0,4,0,64,3,3,1,297,247,50,139,0,500,200,8000,"[(512, 384), (512, 384), (512, 384), (512, 384), (512, 384), (512, 384), (512, 384), (512, 384), (512, 384), (512, 384), (512, 384), (512, 384), (512, 384), (512, 384), (512, 384), (512, 384), (512, 384), (512, 384), (512, 384), (512, 384), (512, 384), (512, 384), (512, 384), (512, 384), (520, 379), (536, 368), (565, 355), (652, 322), (717, 298), (785, 281)]",339.32904161818374,"[9, 6, 1, 4, 8, 5, 7, 2, 3]","(0, 0.25)",ENG004D,ENG,D,Chinese,Fri Oct 12 18:04:22 2018,Mouse
2,0,4,0,65,1,1,1,209,119,90,138,0,500,200,8000,"[(512, 384), (512, 384), (512, 384), (512, 384), (512, 384), (512, 384), (512, 384), (512, 384), (512, 384), (512, 384), (512, 384), (512, 386), (519, 423), (523, 455), (523, 482), (520, 514), (518, 558), (514, 574), (509, 596), (501, 626), (482, 675)]",95.88598783302828,"[9, 6, 1, 4, 8, 5, 7, 2, 3]","(0, 0.25)",ENG004D,ENG,D,Chinese,Fri Oct 12 18:04:22 2018,Mouse
2,0,4,0,66,1,1,1,188,148,40,137,0,500,200,8000,"[(512, 384), (512, 384), (512, 384), (512, 384), (512, 384), (512, 384), (512, 384), (512, 384), (512, 384), (512, 384), (512, 384), (512, 384), (512, 384), (512, 384), (512, 414), (510, 461), (504, 523), (492, 581), (455, 666)]",101.42710159394514,"[9, 6, 1, 4, 8, 5, 7, 2, 3]","(0, 0.25)",ENG004D,ENG,D,Chinese,Fri Oct 12 18:04:22 2018,Mouse
2,0,4,0,67,8,8,1,87,27,60,136,0,500,200,8000,"[(512, 384), (512, 384), (511, 384), (503, 385), (490, 388), (463, 389), (368, 388), (309, 384), (244, 378)]",181.28252708271017,"[9, 6, 1, 4, 8, 5, 7, 2, 3]","(0, 0.25)",ENG004D,ENG,D,Chinese,Fri Oct 12 18:04:22 2018,Mouse
2,0,4,0,68,1,1,1,108,58,50,135,0,500,200,8000,"[(512, 384), (512, 384), (512, 384), (512, 384), (512, 384), (510, 395), (507, 422), (500, 465), (494, 558), (488, 604), (481, 639)]",96.93135679831583,"[9, 6, 1, 4, 8, 5, 7, 2, 3]","(0, 0.25)",ENG004D,ENG,D,Chinese,Fri Oct 12 18:04:22 2018,Mouse
2,0,4,0,69,4,3,0,-328,38,290,134,0,500,200,8000,"[(511, 384), (511, 384), (511, 384), (510, 384), (509, 384), (509, 384), (509, 384), (509, 384), (509, 385), (509, 386), (509, 386), (510, 387), (510, 388), (510, 388), (510, 388), (510, 388), (510, 388), (510, 388), (510, 388), (510, 388), (510, 388), (510, 388), (510, 388), (510, 388), (512, 387), (516, 385), (523, 378), (535, 370), (589, 336), (630, 316), (669, 303), (732, 290), (744, 288)]",337.5205656028969,"[9, 6, 1, 4, 8, 5, 7, 2, 3]","(0, 0.25)",ENG004D,ENG,D,Chinese,Fri Oct 12 18:04:22 2018,Mouse
2,0,4,0,70,8,8,1,58,18,40,135,0,500,200,8000,"[(503, 387), (457, 401), (412, 404), (355, 408), (294, 412), (158, 412)]",175.47754585359803,"[9, 6, 1, 4, 8, 5, 7, 2, 3]","(0, 0.25)",ENG004D,ENG,D,Chinese,Fri Oct 12 18:04:22 2018,Mouse
2,0,4,0,71,7,2,0,-717,667,50,135,0,500,200,8000,"[(512, 384), (512, 384), (512, 384), (512, 384), (512, 384), (512, 384), (512, 384), (512, 384), (512, 384), (512, 384), (512, 384), (512, 384), (512, 384), (512, 384), (512, 384), (512, 384), (512, 384), (512, 384), (512, 384), (512, 384), (512, 384), (512, 384), (512, 384), (512, 384), (512, 384), (512, 384), (512, 384), (512, 384), (512, 384), (512, 384), (512, 384), (512, 384), (512, 384), (512, 384), (512, 384), (512, 384), (512, 384), (512, 384), (512, 384), (512, 384), (512, 384), (512, 384), (512, 384), (512, 384), (512, 384), (512, 384), (512, 384), (512, 384), (512, 384), (512, 384), (512, 384), (512, 384), (512, 384), (512, 384), (512, 384), (512, 384), (512, 384), (512, 384), (512, 384), (512, 384), (512, 384), (512, 384), (512, 384), (512, 384), (512, 384), (512, 384), (514, 382), (537, 342), (562, 308), (600, 253), (646, 189), (744, 55)]",305.19023435524844,"[9, 6, 1, 4, 8, 5, 7, 2, 3]","(0, 0.25)",ENG004D,ENG,D,Chinese,Fri Oct 12 18:04:22 2018,Mouse
2,0,4,0,72,7,2,0,-68,28,40,136,0,500,200,8000,"[(512, 384), (512, 384), (520, 368), (534, 336), (553, 296), (576, 242), (630, 129)]",294.8321087623514,"[9, 6, 1, 4, 8, 5, 7, 2, 3]","(0, 0.25)",ENG004D,ENG,D,Chinese,Fri Oct 12 18:04:22 2018,Mouse
2,0,4,0,73,7,7,1,518,468,50,137,0,500,200,8000,"[(512, 384), (512, 384), (512, 384), (512, 384), (512, 384), (512, 384), (512, 384), (512, 384), (512, 384), (512, 384), (512, 384), (512, 384), (512, 384), (512, 384), (512, 384), (512, 384), (512, 384), (512, 384), (512, 384), (512, 384), (512, 384), (512, 384), (512, 384), (512, 384), (512, 384), (512, 384), (512, 384), (512, 384), (512, 384), (512, 384), (512, 384), (512, 384), (512, 384), (512, 384), (512, 384), (512, 384), (512, 384), (512, 384), (512, 384), (512, 384), (512, 384), (512, 384), (512, 384), (512, 384), (512, 384), (512, 384), (510, 382), (503, 367), (491, 336), (479, 284), (464, 162), (458, 108)]",258.92979742206063,"[9, 6, 1, 4, 8, 5, 7, 2, 3]","(0, 0.25)",ENG004D,ENG,D,Chinese,Fri Oct 12 18:04:22 2018,Mouse
2,0,4,0,74,9,9,1,458,258,200,137,0,500,200,8000,"[(512, 384), (512, 384), (512, 384), (512, 384), (512, 384), (512, 384), (512, 384), (512, 384), (512, 384), (512, 384), (512, 384), (512, 384), (512, 384), (512, 384), (512, 384), (512, 384), (512, 384), (512, 384), (512, 384), (512, 384), (512, 384), (512, 384), (512, 384), (512, 384), (512, 384), (513, 385), (513, 385), (515, 387), (519, 390), (534, 401), (543, 406), (549, 411), (554, 414), (562, 419), (563, 420), (565, 420), (565, 420), (569, 421), (572, 422), (577, 422), (586, 426), (628, 440), (654, 452), (691, 467), (726, 481), (792, 512)]",24.567171320601314,"[9, 6, 1, 4, 8, 5, 7, 2, 3]","(0, 0.25)",ENG004D,ENG,D,Chinese,Fri Oct 12 18:04:22 2018,Mouse
2,0,4,0,75,9,2,0,-228,158,70,136,0,500,200,8000,"[(512, 384), (512, 384), (512, 384), (512, 384), (512, 384), (512, 384), (512, 384), (512, 384), (512, 384), (512, 384), (512, 384), (512, 384), (512, 384), (512, 384), (512, 384), (512, 381), (514, 375), (525, 352), (529, 336), (540, 308), (552, 271), (599, 177), (624, 138)]",294.4790409851631,"[9, 6, 1, 4, 8, 5, 7, 2, 3]","(0, 0.25)",ENG004D,ENG,D,Chinese,Fri Oct 12 18:04:22 2018,Mouse
2,0,4,0,76,1,7,0,-497,457,40,137,0,500,200,8000,"[(512, 384), (512, 384), (512, 384), (512, 384), (512, 384), (512, 384), (512, 384), (512, 384), (512, 384), (512, 384), (512, 384), (512, 384), (512, 384), (512, 384), (512, 384), (512, 384), (512, 384), (512, 384), (512, 384), (512, 384), (512, 384), (512, 384), (512, 384), (512, 384), (512, 384), (512, 384), (512, 384), (512, 384), (512, 384), (512, 384), (512, 384), (512, 384), (512, 384), (512, 384), (512, 384), (512, 384), (512, 384), (512, 384), (512, 384), (512, 384), (512, 384), (512, 384), (512, 384), (512, 384), (512, 384), (508, 371), (501, 351), (488, 311), (468, 258), (431, 146)]",251.20470511369075,"[9, 6, 1, 4, 8, 5, 7, 2, 3]","(0, 0.25)",ENG004D,ENG,D,Chinese,Fri Oct 12 18:04:22 2018,Mouse
2,0,4,0,77,2,2,1,188,138,50,138,0,500,200,8000,"[(512, 384), (512, 384), (512, 384), (512, 384), (512, 384), (512, 384), (512, 384), (512, 384), (512, 384), (512, 384), (512, 384), (512, 384), (512, 384), (513, 384), (536, 361), (561, 324), (585, 278), (601, 228), (634, 135)]",296.1029984556472,"[9, 6, 1, 4, 8, 5, 7, 2, 3]","(0, 0.25)",ENG004D,ENG,D,Chinese,Fri Oct 12 18:04:22 2018,Mouse
2,0,4,0,78,5,2,0,-77,37,40,138,0,500,200,8000,"[(512, 384), (512, 384), (512, 384), (519, 376), (540, 338), (571, 291), (614, 230), (702, 102)]",303.9704687760195,"[9, 6, 1, 4, 8, 5, 7, 2, 3]","(0, 0.25)",ENG004D,ENG,D,Chinese,Fri Oct 12 18:04:22 2018,Mouse
2,0,4,0,79,2,7,0,-659,229,430,139,0,500,200,8000,"[(512, 384), (512, 384), (512, 384), (512, 384), (512, 384), (512, 384), (512, 384), (512, 384), (512, 384), (512, 384), (512, 384), (512, 384), (512, 384), (512, 384), (512, 384), (512, 384), (512, 384), (512, 384), (512, 384), (512, 384), (512, 384), (512, 384), (512, 383), (513, 375), (516, 362), (516, 337), (513, 264), (511, 230), (510, 204), (507, 186), (504, 161), (501, 152), (499, 142), (497, 138), (496, 135), (496, 135), (496, 135), (496, 135), (496, 135), (496, 135), (496, 142), (498, 151), (502, 182), (506, 209), (511, 239), (514, 268), (526, 322), (531, 339), (534, 350), (536, 360), (538, 368), (539, 369), (539, 370), (539, 370), (539, 370), (539, 370), (539, 370), (539, 370), (539, 370), (539, 367), (534, 347), (529, 304), (515, 207), (510, 172), (508, 141), (507, 118)]",268.9231384793974,"[9, 6, 1, 4, 8, 5, 7, 2, 3]","(0, 0.25)",ENG004D,ENG,D,Chinese,Fri Oct 12 18:04:22 2018,Mouse
2,0,4,0,80,2,3,0,-57,17,40,140,0,500,200,8000,"[(514, 384), (522, 381), (538, 371), (608, 315), (657, 271), (710, 226)]",321.41084002023246,"[9, 6, 1, 4, 8, 5, 7, 2, 3]","(0, 0.25)",ENG004D,ENG,D,Chinese,Fri Oct 12 18:04:22 2018,Mouse
2,0,4,0,81,6,6,1,417,357,60,141,0,500,200,8000,"[(512, 384), (512, 384), (512, 384), (512, 384), (512, 384), (512, 384), (512, 384), (512, 384), (512, 384), (512, 384), (512, 384), (512, 384), (512, 384), (512, 384), (512, 384), (512, 384), (512, 384), (512, 384), (512, 384), (512, 384), (512, 384), (512, 384), (512, 384), (512, 384), (512, 384), (512, 384), (512, 384), (512, 384), (512, 384), (512, 384), (512, 384), (512, 384), (512, 384), (512, 384), (512, 384), (513, 385), (514, 386), (518, 394), (528, 407), (574, 482), (606, 542), (636, 607)]",60.92358555575893,"[9, 6, 1, 4, 8, 5, 7, 2, 3]","(0, 0.25)",ENG004D,ENG,D,Chinese,Fri Oct 12 18:04:22 2018,Mouse
2,0,4,0,82,5,5,1,438,378,60,141,0,500,200,8000,"[(512, 384), (512, 384), (512, 384), (512, 384), (512, 384), (512, 384), (512, 384), (512, 384), (512, 384), (512, 384), (512, 384), (512, 384), (512, 384), (512, 384), (512, 384), (512, 384), (512, 384), (512, 384), (512, 384), (512, 384), (512, 384), (512, 384), (512, 384), (512, 384), (512, 384), (512, 384), (512, 384), (512, 384), (512, 384), (512, 384), (512, 384), (512, 384), (512, 384), (512, 384), (512, 384), (512, 384), (512, 384), (510, 383), (502, 372), (486, 350), (437, 280), (405, 240), (378, 211), (351, 186)]",230.88435978826092,"[9, 6, 1, 4, 8, 5, 7, 2, 3]","(0, 0.25)",ENG004D,ENG,D,Chinese,Fri Oct 12 18:04:22 2018,Mouse
2,0,4,0,83,9,9,1,528,348,180,140,0,500,200,8000,"[(512, 384), (512, 384), (512, 384), (512, 384), (512, 384), (512, 384), (512, 384), (512, 384), (512, 384), (512, 384), (512, 384), (512, 384), (512, 384), (512, 384), (512, 384), (512, 384), (512, 384), (512, 384), (512, 384), (512, 384), (512, 384), (512, 384), (512, 384), (512, 384), (512, 384), (512, 384), (512, 384), (512, 384), (512, 384), (512, 384), (512, 384), (512, 384), (512, 384), (512, 384), (513, 384), (514, 384), (514, 384), (514, 384), (515, 384), (515, 384), (515, 384), (515, 384), (515, 384), (515, 384), (515, 384), (518, 385), (523, 389), (543, 399), (566, 409), (601, 423), (635, 436), (719, 466), (767, 484)]",21.412969474871762,"[9, 6, 1, 4, 8, 5, 7, 2, 3]","(0, 0.25)",ENG004D,ENG,D,Chinese,Fri Oct 12 18:04:22 2018,Mouse
2,0,4,0,84,7,7,1,328,238,90,139,0,500,200,8000,"[(512, 384), (512, 384), (512, 384), (512, 384), (512, 384), (512, 384), (512, 384), (512, 384), (512, 384), (512, 384), (512, 384), (512, 384), (512, 384), (512, 384), (512, 384), (512, 384), (512, 384), (512, 384), (512, 384), (512, 384), (512, 384), (512, 384), (512, 384), (512, 381), (512, 377), (507, 369), (504, 360), (500, 344), (494, 319), (485, 245), (482, 199), (482, 158), (482, 124)]",263.418055344822,"[9, 6, 1, 4, 8, 5, 7, 2, 3]","(0, 0.25)",ENG004D,ENG,D,Chinese,Fri Oct 12 18:04:22 2018,Mouse
2,0,4,0,85,3,3,1,327,277,50,138,0,500,200,8000,"[(512, 384), (512, 384), (512, 384), (512, 384), (512, 384), (512, 384), (512, 384), (512, 384), (512, 384), (512, 384), (512, 384), (512, 384), (512, 384), (512, 384), (512, 384), (512, 384), (512, 384), (512, 384), (512, 384), (512, 384), (512, 384), (512, 384), (512, 384), (512, 384), (512, 384), (512, 384), (512, 384), (514, 383), (549, 376), (581, 370), (630, 364), (678, 356), (787, 340)]",350.9097230791777,"[9, 6, 1, 4, 8, 5, 7, 2, 3]","(0, 0.25)",ENG004D,ENG,D,Chinese,Fri Oct 12 18:04:22 2018,Mouse
2,0,4,0,86,6,6,1,389,289,100,137,0,500,200,8000,"[(512, 384), (512, 384), (512, 384), (512, 384), (512, 384), (512, 384), (512, 384), (512, 384), (512, 384), (512, 384), (512, 384), (512, 384), (512, 384), (512, 384), (512, 384), (512, 384), (512, 384), (512, 384), (512, 384), (512, 384), (512, 384), (512, 384), (512, 384), (512, 384), (512, 384), (512, 384), (512, 384), (512, 384), (512, 385), (513, 390), (520, 411), (525, 422), (533, 434), (542, 451), (564, 489), (577, 509), (592, 531), (605, 557), (631, 616)]",62.84530467084066,"[9, 6, 1, 4, 8, 5, 7, 2, 3]","(0, 0.25)",ENG004D,ENG,D,Chinese,Fri Oct 12 18:04:22 2018,Mouse
2,0,4,0,87,6,6,1,78,18,60,136,0,500,200,8000,"[(523, 396), (534, 410), (568, 463), (587, 493), (604, 518), (633, 565), (646, 583), (662, 598)]",54.972057687331095,"[9, 6, 1, 4, 8, 5, 7, 2, 3]","(0, 0.25)",ENG004D,ENG,D,Chinese,Fri Oct 12 18:04:22 2018,Mouse
2,0,4,0,88,4,4,1,328,288,40,135,0,500,200,8000,"[(512, 384), (512, 384), (512, 384), (512, 384), (512, 384), (512, 384), (512, 384), (512, 384), (512, 384), (512, 384), (512, 384), (512, 384), (512, 384), (512, 384), (512, 384), (512, 384), (512, 384), (512, 384), (512, 384), (512, 384), (512, 384), (512, 384), (512, 384), (512, 384), (512, 384), (512, 384), (512, 384), (512, 384), (493, 403), (460, 425), (421, 452), (367, 477), (242, 520)]",153.26543517694495,"[9, 6, 1, 4, 8, 5, 7, 2, 3]","(0, 0.25)",ENG004D,ENG,D,Chinese,Fri Oct 12 18:04:22 2018,Mouse
2,0,4,0,89,7,4,0,-318,268,50,134,0,500,200,8000,"[(512, 384), (512, 384), (512, 384), (512, 384), (512, 384), (512, 384), (512, 384), (512, 384), (512, 384), (512, 384), (512, 384), (512, 384), (512, 384), (512, 384), (512, 384), (512, 384), (512, 384), (512, 384), (512, 384), (512, 384), (512, 384), (512, 384), (512, 384), (512, 384), (512, 384), (512, 384), (510, 389), (501, 404), (481, 434), (452, 471), (347, 565), (278, 601)]",137.15868588086207,"[9, 6, 1, 4, 8, 5, 7, 2, 3]","(0, 0.25)",ENG004D,ENG,D,Chinese,Fri Oct 12 18:04:22 2018,Mouse
2,0,4,0,90,1,9,0,-518,478,40,135,0,500,200,8000,"[(512, 384), (512, 384), (512, 384), (512, 384), (512, 384), (512, 384), (512, 384), (512, 384), (512, 384), (512, 384), (512, 384), (512, 384), (512, 384), (512, 384), (512, 384), (512, 384), (512, 384), (512, 384), (512, 384), (512, 384), (512, 384), (512, 384), (512, 384), (512, 384), (512, 384), (512, 384), (512, 384), (512, 384), (512, 384), (512, 384), (512, 384), (512, 384), (512, 384), (512, 384), (512, 384), (512, 384), (512, 384), (512, 384), (512, 384), (512, 384), (512, 384), (512, 384), (512, 384), (512, 384), (512, 384), (512, 384), (512, 384), (517, 388), (533, 398), (614, 443), (682, 476), (752, 506)]",26.945748428504753,"[9, 6, 1, 4, 8, 5, 7, 2, 3]","(0, 0.25)",ENG004D,ENG,D,Chinese,Fri Oct 12 18:04:22 2018,Mouse
2,0,4,0,91,8,8,1,376,326,50,136,0,500,200,8000,"[(512, 384), (512, 384), (512, 384), (512, 384), (512, 384), (512, 384), (512, 384), (512, 384), (512, 384), (512, 384), (512, 384), (512, 384), (512, 384), (512, 384), (512, 384), (512, 384), (512, 384), (512, 384), (512, 384), (512, 384), (512, 384), (512, 384), (512, 384), (512, 384), (512, 384), (512, 384), (512, 384), (512, 384), (512, 384), (512, 384), (512, 384), (512, 384), (505, 385), (455, 390), (411, 390), (361, 390), (311, 390), (199, 383)]",180.18305298584346,"[9, 6, 1, 4, 8, 5, 7, 2, 3]","(0, 0.25)",ENG004D,ENG,D,Chinese,Fri Oct 12 18:04:22 2018,Mouse
2,0,4,0,92,5,9,0,-529,499,30,136,0,500,200,8000,"[(512, 384), (512, 384), (512, 384), (512, 384), (512, 384), (512, 384), (512, 384), (512, 384), (512, 384), (512, 384), (512, 384), (512, 384), (512, 384), (512, 384), (512, 384), (512, 384), (512, 384), (512, 384), (512, 384), (512, 384), (512, 384), (512, 384), (512, 384), (512, 384), (512, 384), (512, 384), (512, 384), (512, 384), (512, 384), (512, 384), (512, 384), (512, 384), (512, 384), (512, 384), (512, 384), (512, 384), (512, 384), (512, 384), (512, 384), (512, 384), (512, 384), (512, 384), (512, 384), (512, 384), (512, 384), (512, 384), (512, 384), (512, 384), (512, 384), (521, 388), (610, 409), (683, 424), (768, 442)]",12.765565781058621,"[9, 6, 1, 4, 8, 5, 7, 2, 3]","(0, 0.25)",ENG004D,ENG,D,Chinese,Fri Oct 12 18:04:22 2018,Mouse
2,0,4,0,93,7,4,0,-558,488,70,137,0,500,200,8000,"[(512, 384), (512, 384), (512, 384), (512, 384), (512, 384), (512, 384), (512, 384), (512, 384), (512, 384), (512, 384), (512, 384), (512, 384), (512, 384), (512, 384), (512, 384), (512, 384), (512, 384), (512, 384), (512, 384), (512, 384), (512, 384), (512, 384), (512, 384), (512, 384), (512, 384), (512, 384), (512, 384), (512, 384), (512, 384), (512, 384), (512, 384), (512, 384), (512, 384), (512, 384), (512, 384), (512, 384), (512, 384), (512, 384), (512, 384), (512, 384), (512, 384), (512, 384), (512, 384), (512, 384), (512, 384), (512, 384), (512, 384), (512, 384), (511, 384), (510, 386), (506, 390), (497, 398), (449, 438), (388, 472), (321, 501), (163, 550)]",154.5621508890601,"[9, 6, 1, 4, 8, 5, 7, 2, 3]","(0, 0.25)",ENG004D,ENG,D,Chinese,Fri Oct 12 18:04:22 2018,Mouse
2,0,4,0,94,7,4,0,-127,87,40,138,0,500,200,8000,"[(512, 384), (512, 384), (512, 384), (512, 384), (512, 384), (512, 384), (512, 384), (512, 384), (510, 388), (499, 406), (439, 477), (380, 525), (303, 575)]",137.57657183026885,"[9, 6, 1, 4, 8, 5, 7, 2, 3]","(0, 0.25)",ENG004D,ENG,D,Chinese,Fri Oct 12 18:04:22 2018,Mouse
2,0,4,0,95,8,8,1,327,47,280,139,0,500,200,8000,"[(512, 384), (512, 384), (512, 384), (512, 384), (511, 384), (511, 384), (511, 384), (511, 384), (511, 384), (511, 384), (511, 384), (511, 384), (511, 384), (511, 384), (511, 384), (511, 384), (511, 384), (511, 384), (511, 384), (511, 384), (511, 384), (511, 384), (511, 384), (510, 385), (505, 389), (499, 392), (487, 395), (471, 400), (409, 410), (364, 414), (319, 414), (269, 416), (168, 420)]",174.0256767135194,"[9, 6, 1, 4, 8, 5, 7, 2, 3]","(0, 0.25)",ENG004D,ENG,D,Chinese,Fri Oct 12 18:04:22 2018,Mouse
2,0,4,0,96,2,2,1,288,218,70,139,0,500,200,8000,"[(512, 384), (512, 384), (512, 384), (512, 384), (512, 384), (512, 384), (512, 384), (512, 384), (512, 384), (512, 384), (512, 384), (512, 384), (512, 384), (512, 384), (512, 384), (512, 384), (512, 384), (512, 384), (512, 384), (512, 384), (512, 384), (513, 381), (523, 360), (538, 338), (555, 307), (576, 274), (623, 202), (644, 174), (660, 152)]",302.53506715793503,"[9, 6, 1, 4, 8, 5, 7, 2, 3]","(0, 0.25)",ENG004D,ENG,D,Chinese,Fri Oct 12 18:04:22 2018,Mouse
2,0,4,0,97,3,9,0,-357,317,40,138,0,500,200,8000,"[(512, 384), (512, 384), (512, 384), (512, 384), (512, 384), (512, 384), (512, 384), (512, 384), (512, 384), (512, 384), (512, 384), (512, 384), (512, 384), (512, 384), (512, 384), (512, 384), (512, 384), (512, 384), (512, 384), (512, 384), (512, 384), (512, 384), (512, 384), (512, 384), (512, 384), (512, 384), (512, 384), (512, 384), (512, 384), (512, 384), (512, 384), (518, 387), (585, 419), (642, 444), (701, 467), (771, 495)]",23.19859051364819,"[9, 6, 1, 4, 8, 5, 7, 2, 3]","(0, 0.25)",ENG004D,ENG,D,Chinese,Fri Oct 12 18:04:22 2018,Mouse
2,0,4,0,98,1,1,1,406,356,50,139,0,500,200,8000,"[(512, 384), (512, 384), (512, 384), (512, 384), (512, 384), (512, 384), (512, 384), (512, 384), (512, 384), (512, 384), (512, 384), (512, 384), (512, 384), (512, 384), (512, 384), (512, 384), (512, 384), (512, 384), (512, 384), (512, 384), (512, 384), (512, 384), (512, 384), (512, 384), (512, 384), (512, 384), (512, 384), (512, 384), (512, 384), (512, 384), (512, 384), (512, 384), (512, 384), (512, 384), (512, 384), (511, 384), (510, 422), (505, 467), (499, 513), (483, 558), (443, 636)]",105.3128183608063,"[9, 6, 1, 4, 8, 5, 7, 2, 3]","(0, 0.25)",ENG004D,ENG,D,Chinese,Fri Oct 12 18:04:22 2018,Mouse
2,0,4,0,99,1,2,0,-258,178,80,139,0,500,200,8000,"[(512, 384), (512, 384), (512, 384), (512, 384), (512, 384), (512, 384), (512, 384), (512, 384), (512, 384), (512, 384), (512, 384), (512, 384), (512, 384), (512, 384), (512, 384), (512, 384), (512, 384), (512, 383), (518, 377), (524, 371), (532, 361), (555, 334), (574, 306), (599, 267), (636, 209), (704, 89)]",303.05798843046307,"[9, 6, 1, 4, 8, 5, 7, 2, 3]","(0, 0.25)",ENG004D,ENG,D,Chinese,Fri Oct 12 18:04:22 2018,Mouse
2,0,4,0,100,4,4,1,468,278,190,140,0,500,200,8000,"[(512, 384), (512, 384), (512, 384), (512, 384), (512, 384), (512, 384), (512, 384), (512, 384), (512, 384), (512, 384), (512, 384), (512, 384), (512, 384), (512, 384), (512, 384), (512, 384), (512, 384), (512, 384), (512, 384), (512, 384), (512, 384), (512, 384), (512, 384), (512, 384), (512, 384), (512, 384), (512, 384), (509, 392), (504, 401), (499, 408), (493, 419), (492, 420), (491, 422), (490, 422), (490, 423), (490, 423), (490, 423), (490, 423), (488, 423), (483, 424), (475, 427), (463, 433), (417, 460), (384, 481), (350, 503), (315, 523), (256, 555)]",146.2583146686038,"[9, 6, 1, 4, 8, 5, 7, 2, 3]","(0, 0.25)",ENG004D,ENG,D,Chinese,Fri Oct 12 18:04:22 2018,Mouse
2,0,4,0,101,9,9,1,427,307,120,140,0,500,200,8000,"[(512, 384), (512, 384), (512, 384), (512, 384), (512, 384), (512, 384), (512, 384), (512, 384), (512, 384), (512, 384), (512, 384), (512, 384), (512, 384), (512, 384), (512, 384), (512, 384), (512, 384), (512, 384), (512, 384), (512, 384), (512, 384), (512, 384), (512, 384), (512, 384), (512, 384), (512, 384), (512, 384), (512, 384), (512, 384), (512, 384), (513, 384), (514, 386), (515, 387), (516, 389), (517, 390), (519, 391), (524, 394), (536, 398), (581, 410), (614, 415), (649, 422), (684, 430), (769, 448)]",13.983774820035439,"[9, 6, 1, 4, 8, 5, 7, 2, 3]","(0, 0.25)",ENG004D,ENG,D,Chinese,Fri Oct 12 18:04:22 2018,Mouse
2,0,4,0,102,4,4,1,418,348,70,139,0,500,200,8000,"[(512, 384), (512, 384), (512, 384), (512, 384), (512, 384), (512, 384), (512, 384), (512, 384), (512, 384), (512, 384), (512, 384), (512, 384), (512, 384), (512, 384), (512, 384), (512, 384), (512, 384), (512, 384), (512, 384), (512, 384), (512, 384), (512, 384), (512, 384), (512, 384), (512, 384), (512, 384), (512, 384), (512, 384), (512, 384), (512, 384), (512, 384), (512, 384), (512, 384), (512, 384), (508, 386), (499, 390), (487, 398), (474, 406), (414, 442), (371, 461), (328, 481), (287, 504)]",151.92751306414706,"[9, 6, 1, 4, 8, 5, 7, 2, 3]","(0, 0.25)",ENG004D,ENG,D,Chinese,Fri Oct 12 18:04:22 2018,Mouse
2,0,4,0,103,7,7,1,398,18,380,138,0,500,200,8000,"[(512, 384), (511, 384), (511, 383), (510, 383), (510, 383), (510, 383), (510, 383), (510, 383), (510, 383), (510, 383), (510, 383), (510, 383), (510, 383), (510, 383), (510, 383), (510, 383), (510, 383), (510, 383), (510, 383), (510, 383), (510, 383), (510, 383), (510, 383), (510, 383), (510, 383), (510, 383), (510, 383), (510, 383), (510, 383), (510, 383), (510, 383), (510, 383), (510, 383), (508, 381), (504, 374), (493, 355), (489, 335), (489, 302), (489, 244), (497, 101)]",266.965960353055,"[9, 6, 1, 4, 8, 5, 7, 2, 3]","(0, 0.25)",ENG004D,ENG,D,Chinese,Fri Oct 12 18:04:22 2018,Mouse
2,0,4,0,104,2,2,1,107,57,50,137,0,500,200,8000,"[(512, 384), (512, 384), (512, 384), (512, 384), (512, 384), (516, 381), (535, 358), (558, 332), (592, 292), (632, 244), (721, 127)]",309.1190290908688,"[9, 6, 1, 4, 8, 5, 7, 2, 3]","(0, 0.25)",ENG004D,ENG,D,Chinese,Fri Oct 12 18:04:22 2018,Mouse
2,0,4,0,105,3,3,1,217,157,60,136,0,500,200,8000,"[(512, 384), (512, 384), (512, 384), (512, 384), (512, 384), (512, 384), (512, 384), (512, 384), (512, 384), (512, 384), (512, 384), (512, 384), (512, 384), (512, 384), (512, 384), (512, 383), (519, 380), (534, 371), (605, 346), (652, 330), (698, 310), (754, 291)]",338.97835598594577,"[9, 6, 1, 4, 8, 5, 7, 2, 3]","(0, 0.25)",ENG004D,ENG,D,Chinese,Fri Oct 12 18:04:22 2018,Mouse
2,0,4,0,106,4,4,1,559,469,90,135,0,500,200,8000,"[(512, 384), (512, 384), (512, 384), (512, 384), (512, 384), (512, 384), (512, 384), (512, 384), (512, 384), (512, 384), (512, 384), (512, 384), (512, 384), (512, 384), (512, 384), (512, 384), (512, 384), (512, 384), (512, 384), (512, 384), (512, 384), (512, 384), (512, 384), (512, 384), (512, 384), (512, 384), (512, 384), (512, 384), (512, 384), (512, 384), (512, 384), (512, 384), (512, 384), (512, 384), (512, 384), (512, 384), (512, 384), (512, 384), (512, 384), (512, 384), (512, 384), (512, 384), (512, 384), (512, 384), (512, 384), (512, 384), (510, 387), (497, 406), (489, 418), (479, 428), (467, 440), (439, 460), (419, 478), (393, 497), (365, 518), (322, 551)]",138.68623024278546,"[9, 6, 1, 4, 8, 5, 7, 2, 3]","(0, 0.25)",ENG004D,ENG,D,Chinese,Fri Oct 12 18:04:22 2018,Mouse
2,0,4,0,107,6,4,0,-187,107,80,134,0,500,200,8000,"[(512, 384), (512, 384), (512, 384), (512, 384), (512, 384), (512, 384), (512, 384), (512, 384), (512, 384), (512, 384), (506, 393), (491, 415), (471, 438), (442, 464), (385, 497), (364, 505), (352, 510), (337, 516), (305, 533)]",144.25340506823142,"[9, 6, 1, 4, 8, 5, 7, 2, 3]","(0, 0.25)",ENG004D,ENG,D,Chinese,Fri Oct 12 18:04:22 2018,Mouse
2,0,4,0,108,5,3,0,-328,278,50,135,0,500,200,8000,"[(512, 384), (512, 384), (512, 384), (512, 384), (512, 384), (512, 384), (512, 384), (512, 384), (512, 384), (512, 384), (512, 384), (512, 384), (512, 384), (512, 384), (512, 384), (512, 384), (512, 384), (512, 384), (512, 384), (512, 384), (512, 384), (512, 384), (512, 384), (512, 384), (512, 384), (512, 384), (512, 384), (519, 378), (541, 362), (574, 340), (667, 289), (722, 258), (791, 232)]",331.4183249482989,"[9, 6, 1, 4, 8, 5, 7, 2, 3]","(0, 0.25)",ENG004D,ENG,D,Chinese,Fri Oct 12 18:04:22 2018,Mouse
2,0,4,0,109,4,4,1,931,11,920,136,0,500,200,8000,"[(512, 384), (509, 380), (509, 379), (509, 379), (509, 379), (509, 378), (509, 378), (509, 378), (509, 378), (509, 378), (509, 378), (509, 378), (509, 378), (509, 378), (509, 378), (509, 378), (509, 378), (509, 378), (509, 378), (509, 378), (509, 378), (509, 378), (509, 378), (509, 378), (509, 378), (509, 378), (509, 378), (509, 378), (509, 378), (509, 378), (509, 378), (509, 378), (509, 378), (509, 378), (509, 378), (509, 378), (509, 378), (507, 378), (501, 375), (493, 372), (488, 369), (479, 363), (475, 361), (472, 360), (470, 358), (468, 358), (468, 358), (468, 358), (468, 358), (468, 358), (468, 358), (468, 358), (468, 358), (468, 358), (468, 358), (468, 358), (468, 358), (468, 358), (468, 358), (468, 358), (468, 358), (468, 358), (468, 358), (468, 358), (468, 358), (468, 358), (468, 358), (468, 358), (468, 358), (468, 358), (468, 358), (468, 358), (468, 358), (468, 358), (471, 363), (474, 369), (478, 379), (487, 397), (489, 403), (491, 409), (492, 412), (492, 422), (492, 428), (490, 436), (484, 445), (466, 467), (453, 479), (438, 493), (416, 508), (384, 523), (369, 526), (348, 533), (328, 542), (290, 556)]",142.23237870827768,"[9, 6, 1, 4, 8, 5, 7, 2, 3]","(0, 0.25)",ENG004D,ENG,D,Chinese,Fri Oct 12 18:04:22 2018,Mouse
2,0,4,0,110,6,9,0,-357,227,130,136,0,500,200,8000,"[(512, 384), (512, 384), (512, 384), (512, 384), (512, 384), (512, 384), (512, 384), (512, 384), (512, 384), (512, 384), (512, 384), (512, 384), (512, 384), (512, 384), (512, 384), (512, 384), (512, 384), (512, 384), (512, 384), (512, 384), (512, 384), (512, 384), (513, 383), (513, 383), (513, 383), (513, 383), (513, 382), (513, 382), (516, 382), (524, 386), (554, 399), (579, 412), (606, 429), (637, 449), (700, 491), (729, 514)]",30.92491194174495,"[9, 6, 1, 4, 8, 5, 7, 2, 3]","(0, 0.25)",ENG004D,ENG,D,Chinese,Fri Oct 12 18:04:22 2018,Mouse
2,0,4,0,111,7,4,0,-497,407,90,137,0,500,200,8000,"[(512, 384), (512, 384), (512, 384), (512, 384), (512, 384), (512, 384), (512, 384), (512, 384), (512, 384), (512, 384), (512, 384), (512, 384), (512, 384), (512, 384), (512, 384), (512, 384), (512, 384), (512, 384), (512, 384), (512, 384), (512, 384), (512, 384), (512, 384), (512, 384), (512, 384), (512, 384), (512, 384), (512, 384), (512, 384), (512, 384), (512, 384), (512, 384), (512, 384), (512, 384), (512, 384), (512, 384), (512, 384), (512, 384), (512, 384), (512, 384), (509, 388), (503, 394), (501, 397), (498, 400), (494, 403), (490, 408), (466, 432), (443, 454), (406, 485), (323, 553)]",138.19755777385086,"[9, 6, 1, 4, 8, 5, 7, 2, 3]","(0, 0.25)",ENG004D,ENG,D,Chinese,Fri Oct 12 18:04:22 2018,Mouse
2,0,4,0,112,7,7,1,269,209,60,138,0,500,200,8000,"[(512, 384), (512, 384), (512, 384), (512, 384), (512, 384), (512, 384), (512, 384), (512, 384), (512, 384), (512, 384), (512, 384), (512, 384), (512, 384), (512, 384), (512, 384), (512, 384), (512, 384), (512, 384), (512, 384), (512, 384), (512, 383), (512, 372), (512, 289), (512, 242), (514, 195), (514, 150), (514, 56)]",270.3493601795028,"[9, 6, 1, 4, 8, 5, 7, 2, 3]","(0, 0.25)",ENG004D,ENG,D,Chinese,Fri Oct 12 18:04:22 2018,Mouse
2,0,4,0,113,6,6,1,468,348,120,138,0,500,200,8000,"[(512, 384), (512, 384), (512, 384), (512, 384), (512, 384), (512, 384), (512, 384), (512, 384), (512, 384), (512, 384), (512, 384), (512, 384), (512, 384), (512, 384), (512, 384), (512, 384), (512, 384), (512, 384), (512, 384), (512, 384), (512, 384), (512, 384), (512, 384), (512, 384), (512, 384), (512, 384), (512, 384), (512, 384), (512, 384), (512, 384), (512, 384), (512, 384), (512, 384), (512, 384), (514, 388), (522, 401), (539, 428), (557, 459), (594, 507), (609, 527), (617, 539), (626, 549), (638, 567), (645, 576), (649, 583), (653, 588), (655, 591)]",55.36245909843186,"[9, 6, 1, 4, 8, 5, 7, 2, 3]","(0, 0.25)",ENG004D,ENG,D,Chinese,Fri Oct 12 18:04:22 2018,Mouse
2,0,4,0,114,4,4,1,697,537,160,137,0,500,200,8000,"[(512, 384), (512, 384), (512, 384), (512, 384), (512, 384), (512, 384), (512, 384), (512, 384), (512, 384), (512, 384), (512, 384), (512, 384), (512, 384), (512, 384), (512, 384), (512, 384), (512, 384), (512, 384), (512, 384), (512, 384), (512, 384), (512, 384), (512, 384), (512, 384), (512, 384), (512, 384), (512, 384), (512, 384), (512, 384), (512, 384), (512, 384), (512, 384), (512, 384), (512, 384), (512, 384), (512, 384), (512, 384), (512, 384), (512, 384), (512, 384), (512, 384), (512, 384), (512, 384), (512, 384), (512, 384), (512, 384), (512, 384), (512, 384), (512, 384), (512, 384), (512, 384), (512, 384), (512, 384), (511, 384), (510, 385), (510, 386), (510, 386), (509, 387), (509, 388), (509, 388), (508, 389), (507, 392), (499, 401), (490, 411), (475, 428), (454, 447), (398, 499), (367, 521), (340, 538), (321, 550)]",139.0057700356083,"[9, 6, 1, 4, 8, 5, 7, 2, 3]","(0, 0.25)",ENG004D,ENG,D,Chinese,Fri Oct 12 18:04:22 2018,Mouse
2,0,4,0,115,7,7,1,308,218,90,136,0,500,200,8000,"[(512, 384), (512, 384), (512, 384), (512, 384), (512, 384), (512, 384), (512, 384), (512, 384), (512, 384), (512, 384), (512, 384), (512, 384), (512, 384), (512, 384), (512, 384), (512, 384), (512, 384), (512, 384), (512, 384), (512, 384), (512, 384), (511, 383), (507, 378), (492, 351), (481, 324), (469, 293), (462, 260), (449, 190), (448, 167), (445, 149), (445, 132)]",255.111045101277,"[9, 6, 1, 4, 8, 5, 7, 2, 3]","(0, 0.25)",ENG004D,ENG,D,Chinese,Fri Oct 12 18:04:22 2018,Mouse
2,0,4,0,116,2,7,0,-3358,3288,70,135,0,500,200,8000,"[(512, 384), (512, 384), (512, 384), (512, 384), (512, 384), (512, 384), (512, 384), (512, 384), (512, 384), (512, 384), (512, 384), (512, 384), (512, 384), (512, 384), (512, 384), (512, 384), (512, 384), (512, 384), (512, 384), (512, 384), (512, 384), (512, 384), (512, 384), (512, 384), (512, 384), (512, 384), (512, 384), (512, 384), (512, 384), (512, 384), (512, 384), (512, 384), (512, 384), (512, 384), (512, 384), (512, 384), (512, 384), (512, 384), (512, 384), (512, 384), (512, 384), (512, 384), (512, 384), (512, 384), (512, 384), (512, 384), (512, 384), (512, 384), (512, 384), (512, 384), (512, 384), (512, 384), (512, 384), (512, 384), (512, 384), (512, 384), (512, 384), (512, 384), (512, 384), (512, 384), (512, 384), (512, 384), (512, 384), (512, 384), (512, 384), (512, 384), (512, 384), (512, 384), (512, 384), (512, 384), (512, 384), (512, 384), (512, 384), (512, 384), (512, 384), (512, 384), (512, 384), (512, 384), (512, 384), (512, 384), (512, 384), (512, 384), (512, 384), (512, 384), (512, 384), (512, 384), (512, 384), (512, 384), (512, 384), (512, 384), (512, 384), (512, 384), (512, 384), (512, 384), (512, 384), (512, 384), (512, 384), (512, 384), (512, 384), (512, 384), (512, 384), (512, 384), (512, 384), (512, 384), (512, 384), (512, 384), (512, 384), (512, 384), (512, 384), (512, 384), (512, 384), (512, 384), (512, 384), (512, 384), (512, 384), (512, 384), (512, 384), (512, 384), (512, 384), (512, 384), (512, 384), (512, 384), (512, 384), (512, 384), (512, 384), (512, 384), (512, 384), (512, 384), (512, 384), (512, 384), (512, 384), (512, 384), (512, 384), (512, 384), (512, 384), (512, 384), (512, 384), (512, 384), (512, 384), (512, 384), (512, 384), (512, 384), (512, 384), (512, 384), (512, 384), (512, 384), (512, 384), (512, 384), (512, 384), (512, 384), (512, 384), (512, 384), (512, 384), (512, 384), (512, 384), (512, 384), (512, 384), (512, 384), (512, 384), (512, 384), (512, 384), (512, 384), (512, 384), (512, 384), (512, 384), (512, 384), (512, 384), (512, 384), (512, 384), (512, 384), (512, 384), (512, 384), (512, 384), (512, 384), (512, 384), (512, 384), (512, 384), (512, 384), (512, 384), (512, 384), (512, 384), (512, 384), (512, 384), (512, 384), (512, 384), (512, 384), (512, 384), (512, 384), (512, 384), (512, 384), (512, 384), (512, 384), (512, 384), (512, 384), (512, 384), (512, 384), (512, 384), (512, 384), (512, 384), (512, 384), (512, 384), (512, 384), (512, 384), (512, 384), (512, 384), (512, 384), (512, 384), (512, 384), (512, 384), (512, 384), (512, 384), (512, 384), (512, 384), (512, 384), (512, 384), (512, 384), (512, 384), (512, 384), (512, 384), (512, 384), (512, 384), (512, 384), (512, 384), (512, 384), (512, 384), (512, 384), (512, 384), (512, 384), (512, 384), (512, 384), (512, 384), (512, 384), (512, 384), (512, 384), (512, 384), (512, 384), (512, 384), (512, 384), (512, 384), (512, 384), (512, 384), (512, 384), (512, 384), (512, 384), (512, 384), (512, 384), (512, 384), (512, 384), (512, 384), (512, 384), (512, 384), (512, 384), (512, 384), (512, 384), (512, 384), (512, 384), (512, 384), (512, 384), (512, 384), (512, 384), (512, 384), (512, 384), (512, 384), (512, 384), (512, 384), (512, 384), (512, 384), (512, 384), (512, 384), (512, 384), (512, 384), (512, 384), (512, 384), (512, 384), (512, 384), (512, 384), (512, 384), (512, 384), (512, 384), (512, 384), (512, 384), (512, 384), (512, 384), (512, 384), (512, 384), (512, 384), (512, 384), (512, 384), (512, 384), (512, 384), (512, 384), (512, 384), (512, 384), (512, 384), (512, 384), (512, 384), (512, 384), (512, 384), (512, 384), (512, 384), (512, 384), (512, 384), (512, 384), (512, 384), (512, 384), (512, 384), (512, 384), (512, 384), (512, 384), (512, 384), (512, 384), (512, 384), (512, 384), (512, 384), (512, 384), (512, 384), (512, 384), (512, 384), (512, 384), (512, 384), (512, 384), (512, 384), (512, 384), (512, 384), (512, 384), (512, 384), (512, 384), (512, 384), (511, 383), (509, 375), (506, 363), (504, 305), (510, 262), (520, 210), (531, 169), (561, 87)]",279.3684460831058,"[9, 6, 1, 4, 8, 5, 7, 2, 3]","(0, 0.25)",ENG004D,ENG,D,Chinese,Fri Oct 12 18:04:22 2018,Mouse
2,0,4,0,117,6,1,0,-320,40,280,136,0,500,200,8000,"[(512, 384), (512, 384), (512, 384), (512, 383), (513, 383), (513, 383), (513, 383), (513, 383), (513, 383), (513, 383), (513, 383), (513, 383), (513, 383), (513, 383), (513, 383), (513, 383), (513, 383), (514, 383), (514, 383), (514, 383), (514, 383), (514, 383), (514, 383), (514, 383), (514, 383), (514, 383), (513, 407), (513, 435), (513, 476), (513, 526), (513, 618), (513, 662)]",89.79390096261588,"[9, 6, 1, 4, 8, 5, 7, 2, 3]","(0, 0.25)",ENG004D,ENG,D,Chinese,Fri Oct 12 18:04:22 2018,Mouse
2,0,4,0,118,6,8,0,-289,159,130,137,0,500,200,8000,"[(512, 384), (512, 384), (512, 384), (512, 384), (512, 384), (512, 384), (512, 384), (512, 384), (512, 384), (512, 384), (512, 384), (512, 384), (512, 384), (512, 384), (512, 384), (511, 384), (511, 384), (509, 385), (506, 386), (503, 388), (498, 391), (476, 393), (458, 393), (433, 393), (410, 393), (352, 379), (320, 363), (287, 338), (242, 308)]",195.72092778582277,"[9, 6, 1, 4, 8, 5, 7, 2, 3]","(0, 0.25)",ENG004D,ENG,D,Chinese,Fri Oct 12 18:04:22 2018,Mouse
2,0,4,0,119,3,8,0,-238,178,60,138,0,500,200,8000,"[(512, 384), (512, 384), (512, 384), (512, 384), (512, 384), (512, 384), (512, 384), (512, 384), (512, 384), (512, 384), (512, 384), (512, 384), (512, 384), (512, 384), (512, 384), (512, 384), (512, 384), (510, 387), (502, 390), (473, 408), (446, 423), (406, 438), (359, 454), (263, 472)]",160.53589637277202,"[9, 6, 1, 4, 8, 5, 7, 2, 3]","(0, 0.25)",ENG004D,ENG,D,Chinese,Fri Oct 12 18:04:22 2018,Mouse
2,0,4,0,120,9,9,1,308,248,60,139,0,500,200,8000,"[(512, 384), (512, 384), (512, 384), (512, 384), (512, 384), (512, 384), (512, 384), (512, 384), (512, 384), (512, 384), (512, 384), (512, 384), (512, 384), (512, 384), (512, 384), (512, 384), (512, 384), (512, 384), (512, 384), (512, 384), (512, 384), (512, 384), (512, 384), (512, 384), (515, 386), (521, 389), (542, 398), (570, 403), (614, 415), (663, 425), (771, 455)]",15.329966184339447,"[9, 6, 1, 4, 8, 5, 7, 2, 3]","(0, 0.25)",ENG004D,ENG,D,Chinese,Fri Oct 12 18:04:22 2018,Mouse
2,0,4,0,121,2,2,1,128,68,60,139,0,500,200,8000,"[(512, 384), (512, 384), (512, 384), (512, 384), (512, 384), (512, 384), (513, 383), (518, 377), (527, 364), (551, 335), (619, 250), (656, 205), (691, 160)]",308.62860140558934,"[9, 6, 1, 4, 8, 5, 7, 2, 3]","(0, 0.25)",ENG004D,ENG,D,Chinese,Fri Oct 12 18:04:22 2018,Mouse
2,0,4,0,122,1,6,0,-637,87,550,138,0,500,200,8000,"[(512, 384), (512, 384), (512, 384), (512, 384), (512, 384), (512, 384), (512, 384), (512, 384), (513, 384), (514, 384), (514, 384), (514, 384), (514, 384), (514, 384), (514, 384), (514, 384), (514, 384), (514, 384), (514, 384), (514, 384), (514, 384), (514, 384), (514, 384), (514, 383), (514, 383), (514, 383), (514, 383), (514, 383), (518, 389), (529, 398), (540, 406), (559, 416), (609, 440), (635, 450), (653, 458), (663, 463), (675, 468), (678, 469), (678, 469), (678, 469), (678, 469), (678, 469), (678, 469), (678, 469), (678, 469), (678, 469), (678, 469), (678, 469), (678, 469), (678, 469), (677, 469), (677, 469), (676, 469), (676, 469), (674, 469), (673, 469), (672, 470), (671, 470), (669, 472), (666, 476), (663, 504), (663, 529), (663, 565), (664, 605)]",55.48047551870469,"[9, 6, 1, 4, 8, 5, 7, 2, 3]","(0, 0.25)",ENG004D,ENG,D,Chinese,Fri Oct 12 18:04:22 2018,Mouse
2,0,4,0,123,9,9,1,56,16,40,139,0,500,200,8000,"[(528, 388), (550, 392), (585, 399), (674, 414), (724, 426), (770, 434)]",10.96787218266168,"[9, 6, 1, 4, 8, 5, 7, 2, 3]","(0, 0.25)",ENG004D,ENG,D,Chinese,Fri Oct 12 18:04:22 2018,Mouse
2,0,4,0,124,5,3,0,-607,427,180,139,0,500,200,8000,"[(512, 384), (512, 384), (512, 384), (512, 384), (512, 384), (512, 384), (512, 384), (512, 384), (512, 384), (512, 384), (512, 384), (512, 384), (512, 384), (512, 384), (512, 384), (512, 384), (512, 384), (512, 384), (512, 384), (512, 384), (512, 384), (512, 384), (512, 384), (512, 384), (512, 384), (512, 384), (512, 384), (512, 384), (512, 384), (512, 384), (512, 384), (512, 384), (512, 384), (512, 384), (512, 384), (512, 384), (512, 384), (512, 384), (512, 384), (512, 384), (512, 384), (512, 384), (513, 383), (514, 382), (516, 382), (516, 382), (516, 382), (516, 382), (516, 382), (516, 382), (516, 382), (516, 382), (518, 380), (521, 378), (528, 375), (537, 370), (582, 356), (623, 346), (674, 341), (716, 331), (779, 314)]",345.3092637938794,"[9, 6, 1, 4, 8, 5, 7, 2, 3]","(0, 0.25)",ENG004D,ENG,D,Chinese,Fri Oct 12 18:04:22 2018,Mouse
2,0,4,0,125,4,4,1,388,318,70,140,0,500,200,8000,"[(512, 384), (512, 384), (512, 384), (512, 384), (512, 384), (512, 384), (512, 384), (512, 384), (512, 384), (512, 384), (512, 384), (512, 384), (512, 384), (512, 384), (512, 384), (512, 384), (512, 384), (512, 384), (512, 384), (512, 384), (512, 384), (512, 384), (512, 384), (512, 384), (512, 384), (512, 384), (512, 384), (512, 384), (512, 384), (512, 384), (512, 384), (507, 387), (495, 403), (475, 418), (409, 460), (369, 475), (330, 485), (294, 497), (253, 513)]",153.52350482584197,"[9, 6, 1, 4, 8, 5, 7, 2, 3]","(0, 0.25)",ENG004D,ENG,D,Chinese,Fri Oct 12 18:04:22 2018,Mouse
2,0,4,0,126,4,4,1,68,18,50,140,0,500,200,8000,"[(511, 386), (507, 395), (476, 449), (444, 489), (403, 532), (358, 567), (279, 613)]",135.49605496039524,"[9, 6, 1, 4, 8, 5, 7, 2, 3]","(0, 0.25)",ENG004D,ENG,D,Chinese,Fri Oct 12 18:04:22 2018,Mouse
2,0,4,0,127,2,2,1,231,161,70,139,0,500,200,8000,"[(512, 384), (512, 384), (512, 384), (512, 384), (512, 384), (512, 384), (512, 384), (512, 384), (512, 384), (512, 384), (512, 384), (512, 384), (512, 384), (512, 384), (512, 384), (512, 384), (516, 382), (519, 377), (524, 370), (539, 337), (556, 302), (576, 246), (600, 187), (647, 77)]",293.7369844975387,"[9, 6, 1, 4, 8, 5, 7, 2, 3]","(0, 0.25)",ENG004D,ENG,D,Chinese,Fri Oct 12 18:04:22 2018,Mouse
2,0,4,0,128,4,4,1,268,188,80,138,0,500,200,8000,"[(512, 384), (512, 384), (512, 384), (512, 384), (512, 384), (512, 384), (512, 384), (512, 384), (512, 384), (512, 384), (512, 384), (512, 384), (512, 384), (512, 384), (512, 384), (512, 384), (512, 384), (512, 384), (509, 385), (508, 386), (505, 387), (503, 389), (480, 416), (452, 448), (414, 485), (364, 525), (253, 582)]",142.60285546248866,"[9, 6, 1, 4, 8, 5, 7, 2, 3]","(0, 0.25)",ENG004D,ENG,D,Chinese,Fri Oct 12 18:04:22 2018,Mouse
2,0,4,0,129,5,5,1,427,367,60,137,0,500,200,8000,"[(512, 384), (512, 384), (512, 384), (512, 384), (512, 384), (512, 384), (512, 384), (512, 384), (512, 384), (512, 384), (512, 384), (512, 384), (512, 384), (512, 384), (512, 384), (512, 384), (512, 384), (512, 384), (512, 384), (512, 384), (512, 384), (512, 384), (512, 384), (512, 384), (512, 384), (512, 384), (512, 384), (512, 384), (512, 384), (512, 384), (512, 384), (512, 384), (512, 384), (512, 384), (512, 384), (512, 384), (508, 382), (499, 375), (449, 334), (409, 300), (372, 268), (336, 242), (270, 201)]",217.0965112809745,"[9, 6, 1, 4, 8, 5, 7, 2, 3]","(0, 0.25)",ENG004D,ENG,D,Chinese,Fri Oct 12 18:04:22 2018,Mouse
2,0,4,0,130,1,1,1,136,96,40,136,0,500,200,8000,"[(512, 384), (512, 384), (512, 384), (512, 384), (512, 384), (512, 384), (512, 384), (512, 384), (512, 384), (511, 388), (496, 459), (483, 521), (466, 585), (443, 639)]",105.14098383507691,"[9, 6, 1, 4, 8, 5, 7, 2, 3]","(0, 0.25)",ENG004D,ENG,D,Chinese,Fri Oct 12 18:04:22 2018,Mouse
2,0,4,0,131,5,8,0,-278,158,120,135,0,500,200,8000,"[(512, 384), (512, 384), (512, 384), (512, 384), (512, 384), (512, 384), (512, 384), (512, 384), (512, 384), (512, 384), (512, 384), (512, 384), (512, 384), (512, 384), (512, 384), (502, 389), (487, 398), (461, 408), (428, 417), (352, 429), (324, 431), (304, 432), (293, 432), (278, 432), (273, 432), (271, 431), (267, 429), (251, 425)]",171.07247040807192,"[9, 6, 1, 4, 8, 5, 7, 2, 3]","(0, 0.25)",ENG004D,ENG,D,Chinese,Fri Oct 12 18:04:22 2018,Mouse
2,0,4,0,132,1,4,0,-428,348,80,136,0,500,200,8000,"[(512, 384), (512, 384), (512, 384), (512, 384), (512, 384), (512, 384), (512, 384), (512, 384), (512, 384), (512, 384), (512, 384), (512, 384), (512, 384), (512, 384), (512, 384), (512, 384), (512, 384), (512, 384), (512, 384), (512, 384), (512, 384), (512, 384), (512, 384), (512, 384), (512, 384), (512, 384), (512, 384), (512, 384), (512, 384), (512, 384), (512, 384), (512, 384), (512, 384), (512, 384), (502, 399), (493, 412), (476, 430), (454, 447), (389, 479), (362, 496), (338, 507), (319, 519), (299, 531)]",145.3888578154696,"[9, 6, 1, 4, 8, 5, 7, 2, 3]","(0, 0.25)",ENG004D,ENG,D,Chinese,Fri Oct 12 18:04:22 2018,Mouse
2,0,4,0,133,8,8,1,378,328,50,137,0,500,200,8000,"[(512, 384), (512, 384), (512, 384), (512, 384), (512, 384), (512, 384), (512, 384), (512, 384), (512, 384), (512, 384), (512, 384), (512, 384), (512, 384), (512, 384), (512, 384), (512, 384), (512, 384), (512, 384), (512, 384), (512, 384), (512, 384), (512, 384), (512, 384), (512, 384), (512, 384), (512, 384), (512, 384), (512, 384), (512, 384), (512, 384), (512, 384), (512, 384), (511, 384), (505, 386), (465, 400), (408, 408), (328, 410), (245, 410)]",174.4381715343563,"[9, 6, 1, 4, 8, 5, 7, 2, 3]","(0, 0.25)",ENG004D,ENG,D,Chinese,Fri Oct 12 18:04:22 2018,Mouse
2,0,4,0,134,9,5,0,-477,437,40,137,0,500,200,8000,"[(512, 384), (512, 384), (512, 384), (512, 384), (512, 384), (512, 384), (512, 384), (512, 384), (512, 384), (512, 384), (512, 384), (512, 384), (512, 384), (512, 384), (512, 384), (512, 384), (512, 384), (512, 384), (512, 384), (512, 384), (512, 384), (512, 384), (512, 384), (512, 384), (512, 384), (512, 384), (512, 384), (512, 384), (512, 384), (512, 384), (512, 384), (512, 384), (512, 384), (512, 384), (512, 384), (512, 384), (512, 384), (512, 384), (512, 384), (512, 384), (512, 384), (512, 384), (512, 384), (505, 381), (482, 369), (437, 350), (374, 317), (236, 256)]",204.8803668591817,"[9, 6, 1, 4, 8, 5, 7, 2, 3]","(0, 0.25)",ENG004D,ENG,D,Chinese,Fri Oct 12 18:04:22 2018,Mouse
2,0,4,0,135,8,8,1,427,17,410,138,0,500,200,8000,"[(444, 378), (390, 372), (314, 357), (295, 353), (287, 350), (282, 347), (281, 346), (281, 346), (282, 345), (285, 343), (295, 340), (303, 339), (316, 337), (333, 336), (389, 335), (431, 335), (469, 335), (508, 335), (584, 337), (616, 339), (636, 340), (652, 343), (671, 345), (675, 346), (676, 346), (676, 346), (676, 346), (676, 346), (676, 346), (676, 346), (676, 346), (676, 346), (676, 346), (676, 346), (675, 346), (671, 346), (662, 351), (645, 358), (557, 381), (490, 388), (412, 390), (334, 392), (176, 386)]",179.65895772114115,"[9, 6, 1, 4, 8, 5, 7, 2, 3]","(0, 0.25)",ENG004D,ENG,D,Chinese,Fri Oct 12 18:04:22 2018,Mouse
2,0,4,1,1,5,4,0,-874,44,830,136,2,500,200,8000,"[(512, 384), (512, 384), (512, 384), (512, 384), (512, 385), (513, 385), (515, 384), (515, 381), (516, 379), (519, 375), (519, 373), (520, 370), (520, 369), (519, 364), (518, 364), (518, 363), (518, 362), (518, 362), (518, 362), (518, 362), (517, 362), (517, 362), (517, 362), (517, 362), (517, 362), (517, 362), (517, 362), (517, 362), (517, 362), (517, 361), (517, 361), (517, 361), (517, 361), (517, 361), (517, 361), (517, 361), (517, 361), (517, 361), (517, 361), (517, 361), (517, 361), (517, 361), (517, 361), (517, 361), (517, 361), (517, 361), (517, 361), (517, 361), (517, 361), (517, 361), (517, 361), (517, 361), (516, 361), (516, 361), (516, 361), (516, 361), (516, 361), (516, 361), (516, 361), (516, 361), (516, 361), (516, 361), (516, 361), (516, 361), (516, 361), (516, 361), (516, 361), (516, 361), (516, 361), (516, 361), (516, 361), (516, 361), (516, 361), (516, 361), (516, 361), (516, 361), (516, 361), (516, 361), (516, 361), (516, 361), (516, 361), (516, 361), (516, 361), (514, 364), (505, 379), (448, 460), (401, 508), (332, 560)]",135.6437457141754,"[9, 6, 1, 4, 8, 5, 7, 2, 3]","(0, 0.25)",ENG004D,ENG,D,Chinese,Fri Oct 12 18:04:22 2018,Mouse
2,0,4,1,2,3,3,1,389,329,60,138,4,500,200,8000,"[(512, 384), (512, 384), (512, 384), (512, 384), (512, 384), (512, 384), (512, 384), (512, 384), (512, 384), (512, 384), (512, 384), (512, 384), (512, 384), (512, 384), (512, 384), (512, 384), (512, 384), (512, 384), (512, 384), (512, 384), (512, 384), (512, 384), (512, 384), (512, 384), (512, 384), (512, 384), (512, 384), (512, 384), (512, 384), (512, 384), (512, 384), (512, 384), (512, 383), (519, 373), (571, 325), (613, 295), (654, 269), (697, 254), (774, 234)]",330.2080391906353,"[9, 6, 1, 4, 8, 5, 7, 2, 3]","(0, 0.25)",ENG004D,ENG,D,Chinese,Fri Oct 12 18:04:22 2018,Mouse
2,0,4,1,3,7,2,0,-929,229,700,135,1,500,200,8000,"[(512, 384), (512, 384), (512, 384), (512, 384), (512, 384), (512, 384), (512, 384), (512, 384), (512, 384), (512, 384), (512, 384), (512, 384), (512, 384), (512, 384), (512, 384), (512, 384), (512, 384), (512, 384), (512, 384), (512, 384), (512, 384), (512, 384), (512, 382), (512, 380), (512, 380), (512, 380), (512, 380), (512, 380), (512, 380), (512, 380), (512, 380), (512, 380), (509, 381), (508, 382), (506, 383), (506, 383), (504, 384), (504, 385), (504, 385), (504, 385), (504, 385), (504, 385), (504, 385), (504, 385), (504, 385), (504, 385), (504, 385), (504, 385), (504, 385), (504, 385), (504, 385), (504, 385), (504, 385), (504, 385), (504, 385), (504, 385), (504, 385), (504, 385), (504, 385), (504, 385), (504, 385), (504, 385), (503, 385), (503, 385), (502, 385), (502, 385), (502, 385), (502, 385), (502, 385), (502, 385), (502, 385), (502, 385), (502, 385), (503, 385), (504, 385), (505, 384), (509, 378), (511, 374), (514, 371), (515, 369), (520, 364), (525, 360), (530, 356), (537, 352), (546, 343), (550, 337), (557, 329), (566, 314), (595, 267), (610, 240), (623, 213), (633, 187), (641, 161)]",300.0483226460757,"[9, 6, 1, 4, 8, 5, 7, 2, 3]","(0, 0.25)",ENG004D,ENG,D,Chinese,Fri Oct 12 18:04:22 2018,Mouse
2,0,4,1,4,7,7,1,168,88,80,136,2,500,200,8000,"[(512, 384), (512, 384), (512, 384), (512, 384), (512, 384), (512, 384), (512, 384), (512, 384), (512, 376), (510, 372), (509, 366), (507, 357), (504, 315), (504, 268), (504, 218), (504, 171), (504, 101)]",268.3807625461258,"[9, 6, 1, 4, 8, 5, 7, 2, 3]","(0, 0.25)",ENG004D,ENG,D,Chinese,Fri Oct 12 18:04:22 2018,Mouse
2,0,4,1,5,3,2,0,-299,239,60,136,2,500,200,8000,"[(512, 384), (512, 384), (512, 384), (512, 384), (512, 384), (512, 384), (512, 384), (512, 384), (512, 384), (512, 384), (512, 384), (512, 384), (512, 384), (512, 384), (512, 384), (512, 384), (512, 384), (512, 384), (512, 384), (512, 384), (512, 384), (512, 384), (512, 384), (512, 383), (522, 354), (534, 328), (548, 294), (563, 251), (605, 178), (622, 150)]",295.17753542963476,"[9, 6, 1, 4, 8, 5, 7, 2, 3]","(0, 0.25)",ENG004D,ENG,D,Chinese,Fri Oct 12 18:04:22 2018,Mouse
2,0,4,1,6,8,3,0,-279,199,80,137,3,500,200,8000,"[(512, 384), (512, 384), (512, 384), (512, 384), (512, 384), (512, 384), (512, 384), (512, 384), (512, 384), (512, 384), (512, 384), (512, 384), (512, 384), (512, 384), (512, 384), (512, 384), (512, 384), (512, 384), (512, 384), (515, 384), (519, 384), (527, 384), (537, 384), (577, 381), (614, 380), (659, 376), (709, 374), (811, 366)]",356.5549135367598,"[9, 6, 1, 4, 8, 5, 7, 2, 3]","(0, 0.25)",ENG004D,ENG,D,Chinese,Fri Oct 12 18:04:22 2018,Mouse
2,0,4,1,7,8,3,0,-127,47,80,138,4,500,200,8000,"[(512, 384), (512, 384), (512, 384), (512, 384), (515, 382), (520, 379), (527, 374), (542, 368), (593, 350), (621, 340), (666, 324), (714, 304), (807, 271)]",339.0406195345771,"[9, 6, 1, 4, 8, 5, 7, 2, 3]","(0, 0.25)",ENG004D,ENG,D,Chinese,Fri Oct 12 18:04:22 2018,Mouse
2,0,4,1,8,8,2,0,-500,370,130,135,1,500,200,8000,"[(512, 384), (512, 384), (512, 384), (512, 384), (512, 384), (512, 384), (512, 384), (512, 384), (512, 384), (512, 384), (512, 384), (512, 384), (512, 384), (512, 384), (512, 384), (512, 384), (512, 384), (512, 384), (512, 384), (512, 384), (512, 384), (512, 384), (512, 384), (512, 384), (512, 384), (512, 384), (512, 384), (512, 384), (512, 384), (512, 384), (512, 384), (512, 384), (512, 384), (512, 384), (512, 384), (512, 384), (516, 382), (518, 379), (524, 375), (531, 369), (554, 344), (568, 322), (582, 302), (599, 272), (634, 227), (644, 212), (651, 202), (655, 195), (661, 184), (663, 178)]",306.24177800714233,"[9, 6, 1, 4, 8, 5, 7, 2, 3]","(0, 0.25)",ENG004D,ENG,D,Chinese,Fri Oct 12 18:04:22 2018,Mouse
2,0,4,1,9,1,1,1,268,208,60,138,4,500,200,8000,"[(512, 384), (512, 384), (512, 384), (512, 384), (512, 384), (512, 384), (512, 384), (512, 384), (512, 384), (512, 384), (512, 384), (512, 384), (512, 384), (512, 384), (512, 384), (512, 384), (512, 384), (512, 384), (512, 384), (512, 384), (512, 388), (512, 399), (509, 420), (492, 505), (473, 563), (448, 620), (423, 673)]",107.11665937955179,"[9, 6, 1, 4, 8, 5, 7, 2, 3]","(0, 0.25)",ENG004D,ENG,D,Chinese,Fri Oct 12 18:04:22 2018,Mouse
2,0,4,1,10,4,1,0,-178,38,140,137,3,500,200,8000,"[(512, 384), (512, 384), (512, 384), (511, 384), (510, 384), (509, 385), (508, 385), (508, 385), (508, 385), (508, 385), (507, 386), (507, 386), (505, 389), (502, 416), (500, 460), (495, 530), (489, 611), (460, 764)]",97.79207807821844,"[9, 6, 1, 4, 8, 5, 7, 2, 3]","(0, 0.25)",ENG004D,ENG,D,Chinese,Fri Oct 12 18:04:22 2018,Mouse
2,0,4,1,11,1,1,1,68,18,50,136,2,500,200,8000,"[(510, 443), (504, 497), (500, 537), (495, 566), (494, 603), (494, 620), (494, 635)]",94.10183868767085,"[9, 6, 1, 4, 8, 5, 7, 2, 3]","(0, 0.25)",ENG004D,ENG,D,Chinese,Fri Oct 12 18:04:22 2018,Mouse
2,0,4,1,12,7,7,1,69,19,50,137,3,500,200,8000,"[(512, 384), (512, 383), (522, 355), (530, 327), (542, 278), (550, 221), (556, 114)]",279.25572774455225,"[9, 6, 1, 4, 8, 5, 7, 2, 3]","(0, 0.25)",ENG004D,ENG,D,Chinese,Fri Oct 12 18:04:22 2018,Mouse
2,0,4,1,13,8,2,0,-259,29,230,136,2,500,200,8000,"[(512, 384), (512, 384), (511, 384), (511, 384), (510, 384), (510, 384), (510, 384), (509, 383), (509, 383), (509, 383), (509, 383), (509, 383), (509, 383), (509, 383), (509, 383), (509, 383), (509, 383), (509, 383), (509, 383), (509, 383), (509, 383), (510, 381), (515, 372), (532, 349), (588, 237), (622, 159)]",296.053495310491,"[9, 6, 1, 4, 8, 5, 7, 2, 3]","(0, 0.25)",ENG004D,ENG,D,Chinese,Fri Oct 12 18:04:22 2018,Mouse
2,0,4,1,14,5,2,0,-518,478,40,135,1,500,200,8000,"[(512, 384), (512, 384), (512, 384), (512, 384), (512, 384), (512, 384), (512, 384), (512, 384), (512, 384), (512, 384), (512, 384), (512, 384), (512, 384), (512, 384), (512, 384), (512, 384), (512, 384), (512, 384), (512, 384), (512, 384), (512, 384), (512, 384), (512, 384), (512, 384), (512, 384), (512, 384), (512, 384), (512, 384), (512, 384), (512, 384), (512, 384), (512, 384), (512, 384), (512, 384), (512, 384), (512, 384), (512, 384), (512, 384), (512, 384), (512, 384), (512, 384), (512, 384), (512, 384), (512, 384), (512, 384), (512, 384), (512, 384), (512, 382), (525, 358), (551, 314), (579, 270), (635, 164)]",299.2091588134517,"[9, 6, 1, 4, 8, 5, 7, 2, 3]","(0, 0.25)",ENG004D,ENG,D,Chinese,Fri Oct 12 18:04:22 2018,Mouse
2,0,4,1,15,1,1,1,367,38,329,135,1,500,200,8000,"[(512, 384), (512, 384), (512, 384), (512, 383), (510, 381), (509, 377), (507, 374), (507, 373), (506, 372), (506, 372), (506, 372), (506, 371), (506, 371), (506, 371), (506, 371), (506, 371), (506, 371), (506, 371), (506, 371), (506, 371), (506, 371), (506, 371), (506, 371), (506, 371), (506, 371), (506, 371), (506, 371), (506, 371), (506, 371), (506, 371), (505, 372), (504, 375), (502, 413), (500, 460), (498, 530), (493, 619), (468, 767)]",96.55355229897225,"[9, 6, 1, 4, 8, 5, 7, 2, 3]","(0, 0.25)",ENG004D,ENG,D,Chinese,Fri Oct 12 18:04:22 2018,Mouse
