NativeLangNumber,LanuageNumber,SessionNumber,Block,TrialNum,ConditionNumber,Response,Accuracy,RT,MovementOnsetTime,TimeInMotion,SignalContrast,SignalContrastNumber,StimDisplayTime,MaskTime,MaxResponseTime,MousePositionXY,MouseAngle,WheelOrder,NoiseMuSigma,ParticipantID,LanuageTested,SessionTested,NativeLanuage,Date,ResponseDevice
2,2,1,0,1,2,2,1,883,833,50,153,0,500,200,8000,"[(512, 384), (512, 384), (512, 384), (512, 384), (512, 384), (512, 384), (512, 384), (512, 384), (512, 384), (512, 384), (512, 384), (512, 384), (512, 384), (512, 384), (512, 384), (512, 384), (512, 384), (512, 384), (512, 384), (512, 384), (512, 384), (512, 384), (512, 384), (512, 384), (512, 384), (512, 384), (512, 384), (512, 384), (512, 384), (512, 384), (512, 384), (512, 384), (512, 384), (512, 384), (512, 384), (512, 384), (512, 384), (512, 384), (512, 384), (512, 384), (512, 384), (512, 384), (512, 384), (512, 384), (512, 384), (512, 384), (512, 384), (512, 384), (512, 384), (512, 384), (512, 384), (512, 384), (512, 384), (512, 384), (512, 384), (512, 384), (512, 384), (512, 384), (512, 384), (512, 384), (512, 384), (512, 384), (512, 384), (512, 384), (512, 384), (512, 384), (512, 384), (512, 384), (512, 384), (512, 384), (512, 384), (512, 384), (512, 384), (512, 384), (512, 384), (512, 384), (512, 384), (512, 384), (512, 384), (512, 384), (512, 384), (512, 384), (512, 384), (528, 379), (554, 361), (595, 338), (673, 297), (702, 276), (740, 253)]",330.119987398157,"[7, 1, 4, 3, 6, 8, 5, 9, 2]","(0, 0.25)",THI009A,THI,A,Chinese,Tue Oct  9 17:21:46 2018,Mouse
2,2,1,0,2,6,6,1,920,820,100,153,0,500,200,8000,"[(512, 384), (512, 384), (512, 384), (512, 384), (512, 384), (512, 384), (512, 384), (512, 384), (512, 384), (512, 384), (512, 384), (512, 384), (512, 384), (512, 384), (512, 384), (512, 384), (512, 384), (512, 384), (512, 384), (512, 384), (512, 384), (512, 384), (512, 384), (512, 384), (512, 384), (512, 384), (512, 384), (512, 384), (512, 384), (512, 384), (512, 384), (512, 384), (512, 384), (512, 384), (512, 384), (512, 384), (512, 384), (512, 384), (512, 384), (512, 384), (512, 384), (512, 384), (512, 384), (512, 384), (512, 384), (512, 384), (512, 384), (512, 384), (512, 384), (512, 384), (512, 384), (512, 384), (512, 384), (512, 384), (512, 384), (512, 384), (512, 384), (512, 384), (512, 384), (512, 384), (512, 384), (512, 384), (512, 384), (512, 384), (512, 384), (512, 384), (512, 384), (512, 384), (512, 384), (512, 384), (512, 384), (512, 384), (512, 384), (512, 384), (512, 384), (512, 384), (512, 384), (512, 384), (512, 384), (512, 384), (512, 384), (503, 384), (491, 385), (473, 389), (450, 392), (403, 398), (377, 398), (361, 398), (338, 398), (291, 398), (271, 398), (246, 398)]",176.98721249581666,"[7, 1, 4, 3, 6, 8, 5, 9, 2]","(0, 0.25)",THI009A,THI,A,Chinese,Tue Oct  9 17:21:46 2018,Mouse
2,2,1,0,3,6,6,1,590,500,90,152,0,500,200,8000,"[(512, 384), (512, 384), (512, 384), (512, 384), (512, 384), (512, 384), (512, 384), (512, 384), (512, 384), (512, 384), (512, 384), (512, 384), (512, 384), (512, 384), (512, 384), (512, 384), (512, 384), (512, 384), (512, 384), (512, 384), (512, 384), (512, 384), (512, 384), (512, 384), (512, 384), (512, 384), (512, 384), (512, 384), (512, 384), (512, 384), (512, 384), (512, 384), (512, 384), (512, 384), (512, 384), (512, 384), (512, 384), (512, 384), (512, 384), (512, 384), (512, 384), (512, 384), (512, 384), (512, 384), (512, 384), (512, 384), (512, 384), (512, 384), (512, 384), (510, 384), (503, 384), (491, 385), (467, 388), (402, 393), (371, 393), (340, 394), (313, 399), (265, 401), (251, 401)]",176.27335507676074,"[7, 1, 4, 3, 6, 8, 5, 9, 2]","(0, 0.25)",THI009A,THI,A,Chinese,Tue Oct  9 17:21:46 2018,Mouse
2,2,1,0,4,5,5,1,589,549,40,151,0,500,200,8000,"[(512, 384), (512, 384), (512, 384), (512, 384), (512, 384), (512, 384), (512, 384), (512, 384), (512, 384), (512, 384), (512, 384), (512, 384), (512, 384), (512, 384), (512, 384), (512, 384), (512, 384), (512, 384), (512, 384), (512, 384), (512, 384), (512, 384), (512, 384), (512, 384), (512, 384), (512, 384), (512, 384), (512, 384), (512, 384), (512, 384), (512, 384), (512, 384), (512, 384), (512, 384), (512, 384), (512, 384), (512, 384), (512, 384), (512, 384), (512, 384), (512, 384), (512, 384), (512, 384), (512, 384), (512, 384), (512, 384), (512, 384), (512, 384), (512, 384), (512, 384), (512, 384), (512, 384), (512, 384), (512, 384), (512, 319), (510, 287), (504, 242), (501, 207), (492, 127)]",265.55015293334407,"[7, 1, 4, 3, 6, 8, 5, 9, 2]","(0, 0.25)",THI009A,THI,A,Chinese,Tue Oct  9 17:21:46 2018,Mouse
2,2,1,0,5,4,666,0,-8000,208,0,150,0,500,200,8000,"[(512, 384), (512, 384), (512, 384), (512, 384), (512, 384), (512, 384), (512, 384), (512, 384), (512, 384), (512, 384), (512, 384), (512, 384), (512, 384), (512, 384), (512, 384), (512, 384), (512, 384), (512, 384), (512, 384), (512, 384), (512, 385), (512, 385), (512, 385), (512, 385), (512, 385), (512, 385), (512, 385), (512, 385), (512, 385), (512, 385), (512, 385), (512, 385), (512, 385), (512, 385), (512, 385), (512, 385), (512, 385), (512, 385), (512, 385), (512, 385), (512, 385), (512, 385), (512, 385), (512, 385), (512, 385), (512, 385), (512, 385), (512, 385), (512, 385), (512, 385), (512, 385), (512, 385), (512, 385), (512, 385), (512, 385), (512, 385), (512, 385), (512, 385), (512, 385), (512, 385), (512, 385), (512, 385), (512, 385), (512, 385), (512, 385), (512, 385), (512, 385), (512, 385), (512, 385), (512, 385), (512, 385), (512, 385), (512, 385), (512, 385), (512, 385), (512, 385), (512, 385), (512, 385), (512, 385), (512, 385), (512, 385), (512, 385), (512, 385), (512, 385), (512, 385), (512, 385), (512, 385), (512, 385), (512, 385), (512, 385), (512, 385), (512, 385), (512, 385), (512, 385), (512, 385), (512, 385), (512, 385), (512, 385), (512, 385), (512, 385), (512, 385), (512, 385), (512, 385), (512, 385), (512, 385), (512, 385), (512, 385), (512, 385), (512, 385), (512, 385), (512, 385), (512, 385), (512, 385), (512, 385), (512, 385), (512, 385), (512, 385), (512, 385), (512, 385), (512, 385), (512, 385), (512, 385), (512, 385), (512, 385), (512, 385), (512, 385), (512, 385), (512, 385), (512, 385), (512, 385), (512, 385), (512, 385), (512, 385), (512, 385), (512, 385), (512, 385), (512, 385), (512, 385), (512, 385), (512, 385), (512, 386), (512, 387), (512, 387), (512, 387), (512, 387), (512, 387), (512, 387), (512, 387), (512, 387), (512, 387), (512, 387), (512, 387), (512, 387), (512, 387), (512, 387), (512, 387), (512, 387), (512, 387), (512, 387), (512, 387), (512, 387), (512, 387), (512, 387), (512, 387), (512, 387), (512, 387), (512, 387), (512, 387), (512, 387), (512, 387), (512, 387), (512, 387), (512, 387), (512, 387), (512, 387), (512, 387), (512, 387), (512, 387), (512, 387), (512, 387), (512, 387), (512, 387), (512, 387), (512, 387), (512, 387), (512, 387), (512, 387), (512, 387), (512, 387), (512, 387), (512, 387), (512, 387), (512, 387), (512, 387), (512, 387), (512, 387), (512, 387), (512, 387), (512, 387), (512, 387), (512, 387), (512, 387), (512, 387), (512, 387), (512, 387), (512, 387), (512, 387), (512, 387), (512, 387), (512, 387), (512, 387), (512, 387), (512, 387), (512, 387), (512, 387), (512, 387), (512, 387), (512, 387), (512, 387), (512, 387), (512, 387), (512, 387), (512, 387), (512, 387), (512, 387), (512, 387), (512, 387), (512, 387), (512, 387), (512, 387), (512, 387), (512, 387), (512, 387), (512, 387), (512, 387), (512, 387), (512, 387), (512, 387), (512, 387), (512, 387), (512, 387), (512, 387), (512, 387), (512, 387), (512, 387), (512, 387), (512, 387), (512, 387), (512, 387), (512, 387), (512, 387), (512, 387), (512, 387), (512, 387), (512, 387), (512, 387), (512, 387), (512, 387), (512, 387), (512, 387), (512, 387), (512, 387), (512, 387), (512, 387), (512, 387), (512, 387), (512, 387), (512, 387), (512, 387), (512, 387), (512, 387), (512, 387), (512, 387), (512, 387), (512, 387), (512, 387), (512, 387), (512, 387), (512, 387), (512, 387), (512, 387), (512, 387), (512, 387), (512, 387), (512, 387), (512, 387), (512, 387), (512, 387), (512, 387), (512, 387), (512, 387), (512, 387), (512, 387), (512, 387), (512, 387), (512, 387), (512, 387), (512, 387), (512, 387), (512, 387), (512, 387), (512, 387), (512, 387), (512, 387), (512, 387), (512, 387), (512, 387), (512, 387), (512, 387), (512, 387), (512, 387), (512, 387), (512, 387), (512, 387), (512, 387), (512, 387), (512, 387), (512, 387), (512, 387), (512, 387), (512, 387), (512, 387), (512, 387), (512, 387), (512, 387), (512, 387), (512, 387), (512, 387), (512, 387), (512, 387), (512, 387), (512, 387), (512, 387), (512, 387), (512, 387), (512, 387), (512, 387), (512, 387), (512, 387), (512, 387), (512, 387), (512, 387), (512, 387), (512, 387), (512, 387), (512, 387), (512, 387), (512, 387), (512, 387), (512, 387), (512, 387), (512, 387), (512, 387), (512, 387), (512, 387), (512, 387), (512, 387), (512, 387), (512, 387), (512, 387), (512, 387), (512, 387), (512, 387), (512, 387), (512, 387), (512, 387), (512, 387), (512, 387), (512, 387), (512, 387), (512, 387), (512, 387), (512, 387), (512, 387), (512, 387), (512, 387), (512, 387), (512, 387), (512, 387), (512, 387), (512, 387), (512, 387), (512, 387), (512, 387), (512, 387), (512, 387), (512, 387), (512, 387), (512, 387), (512, 387), (512, 387), (512, 387), (512, 387), (512, 387), (512, 387), (512, 387), (512, 387), (512, 387), (512, 387), (512, 387), (512, 387), (512, 387), (512, 387), (512, 387), (512, 387), (512, 387), (512, 387), (512, 387), (512, 387), (512, 387), (512, 387), (512, 387), (512, 387), (512, 387), (512, 387), (512, 387), (512, 387), (512, 387), (512, 387), (512, 387), (512, 387), (512, 387), (512, 387), (512, 387), (512, 387), (512, 387), (512, 387), (512, 387), (512, 387), (512, 387), (512, 387), (512, 387), (512, 387), (512, 387), (512, 387), (512, 387), (512, 387), (512, 387), (512, 387), (512, 387), (512, 387), (512, 387), (512, 387), (512, 387), (512, 387), (512, 387), (512, 387), (512, 387), (512, 387), (512, 387), (512, 387), (512, 387), (512, 387), (512, 387), (512, 387), (512, 387), (512, 387), (512, 387), (512, 387), (512, 387), (512, 387), (512, 387), (512, 387), (512, 387), (512, 387), (512, 387), (512, 387), (512, 387), (512, 387), (512, 387), (512, 387), (512, 387), (512, 387), (512, 387), (512, 387), (512, 387), (512, 387), (512, 387), (512, 387), (512, 387), (512, 387), (512, 387), (512, 387), (512, 387), (512, 387), (512, 387), (512, 387), (512, 387), (512, 387), (512, 387), (512, 387), (512, 387), (512, 387), (512, 387), (512, 387), (512, 387), (512, 387), (512, 387), (512, 387), (512, 387), (512, 387), (512, 387), (512, 387), (512, 387), (512, 387), (512, 387), (512, 387), (512, 387), (512, 387), (512, 387), (512, 387), (512, 387), (512, 387), (512, 387), (512, 387), (512, 387), (512, 387), (512, 387), (512, 387), (512, 387), (512, 387), (512, 387), (512, 387), (512, 387), (512, 387), (512, 387), (512, 387), (512, 387), (512, 387), (512, 387), (512, 387), (512, 387), (512, 387), (512, 387), (512, 387), (512, 387), (512, 387), (512, 387), (512, 387), (512, 387), (512, 387), (512, 387), (512, 387), (512, 387), (512, 387), (512, 387), (512, 387), (512, 387), (512, 387), (512, 387), (512, 387), (512, 387), (512, 387), (512, 387), (512, 387), (512, 387), (512, 387), (512, 387), (512, 387), (512, 387), (512, 387), (512, 387), (512, 387), (512, 387), (512, 387), (512, 387), (512, 387), (512, 387), (512, 387), (512, 387), (512, 387), (512, 387), (512, 387), (512, 387), (512, 387), (512, 387), (512, 387), (512, 387), (512, 387), (512, 387), (512, 387), (512, 387), (512, 387), (512, 387), (512, 387), (512, 387), (512, 387), (512, 387), (512, 387), (512, 387), (512, 387), (512, 387), (512, 387), (512, 387), (512, 387), (512, 387), (512, 387), (512, 387), (512, 387), (512, 387), (512, 387), (512, 387), (512, 387), (512, 387), (512, 387), (512, 387), (512, 387), (512, 387), (512, 387), (512, 387), (512, 387), (512, 387), (512, 387), (512, 387), (512, 387), (512, 387), (512, 387), (512, 387), (512, 387), (512, 387), (512, 387), (512, 387), (512, 387), (512, 387), (512, 387), (512, 387), (512, 387), (512, 387), (512, 387), (512, 387), (512, 387), (512, 387), (512, 387), (512, 387), (512, 387), (512, 387), (512, 387), (512, 387), (512, 387), (512, 387), (512, 387), (512, 387), (512, 387), (512, 387), (512, 387), (512, 387), (512, 387), (512, 387), (512, 387), (512, 387), (512, 387), (512, 387), (512, 387), (512, 387), (512, 387), (512, 387), (512, 387), (512, 387), (512, 387), (512, 387), (512, 387), (512, 387), (512, 387), (512, 387), (512, 387), (512, 387), (512, 387), (512, 387), (512, 387), (512, 387), (512, 387), (512, 387), (512, 387), (512, 387), (512, 387), (512, 387), (512, 387), (512, 387), (512, 387), (512, 387), (512, 387), (512, 387), (512, 387), (512, 387), (512, 387), (512, 387), (512, 387), (512, 387), (512, 387), (512, 387), (512, 387), (512, 387), (512, 387), (512, 387), (512, 387), (512, 387), (512, 387), (512, 387), (512, 387), (512, 387), (512, 387), (512, 387), (512, 387), (512, 387), (512, 387), (512, 387), (512, 387), (512, 387), (512, 387), (512, 387), (512, 387), (512, 387), (512, 387), (512, 387), (512, 387), (512, 387), (512, 387), (512, 387), (512, 387), (512, 387), (512, 387), (512, 387), (512, 387), (512, 387), (512, 387), (512, 387), (512, 387), (512, 387), (512, 387), (512, 387), (512, 387), (512, 387), (512, 387), (512, 387), (512, 387), (512, 387), (512, 387), (512, 387), (512, 387), (512, 387), (512, 387), (512, 387), (512, 387), (512, 387), (512, 387), (512, 387), (512, 387), (512, 387), (512, 387), (512, 387), (512, 387), (512, 387), (512, 387), (512, 387), (512, 387), (512, 387), (512, 387), (512, 387), (512, 387), (512, 387), (512, 387), (512, 387), (512, 387), (512, 387), (512, 387), (512, 387), (512, 387), (512, 387), (512, 387), (512, 387), (512, 387), (512, 387), (512, 387), (512, 387), (512, 387), (512, 387), (512, 387), (512, 387), (512, 387), (512, 387), (512, 387), (512, 387), (512, 387), (512, 387), (512, 387), (512, 387), (512, 387), (512, 387), (512, 387), (512, 387), (512, 387), (512, 387), (512, 387), (512, 387), (512, 387), (512, 387), (512, 387), (512, 387), (512, 387), (512, 387)]",666,"[7, 1, 4, 3, 6, 8, 5, 9, 2]","(0, 0.25)",THI009A,THI,A,Chinese,Tue Oct  9 17:21:46 2018,Mouse
2,2,1,0,6,5,5,1,678,8000,270,151,0,500,200,8000,"[(512, 384), (512, 384), (512, 384), (512, 384), (512, 384), (512, 384), (512, 384), (512, 384), (512, 384), (512, 384), (512, 384), (512, 384), (512, 384), (512, 384), (512, 384), (512, 384), (512, 384), (512, 384), (512, 384), (512, 384), (512, 384), (512, 384), (512, 384), (512, 384), (512, 384), (512, 384), (512, 384), (512, 384), (512, 384), (512, 384), (512, 384), (512, 384), (512, 384), (512, 384), (512, 384), (512, 384), (512, 384), (512, 384), (512, 384), (512, 384), (512, 385), (512, 385), (511, 384), (511, 384), (511, 384), (511, 384), (511, 384), (511, 384), (511, 384), (511, 384), (511, 384), (511, 384), (511, 384), (511, 384), (511, 384), (511, 384), (511, 384), (511, 384), (511, 384), (511, 384), (509, 383), (507, 378), (498, 357), (493, 344), (487, 322), (476, 281), (462, 181), (452, 135)]",256.4520610119995,"[7, 1, 4, 3, 6, 8, 5, 9, 2]","(0, 0.25)",THI009A,THI,A,Chinese,Tue Oct  9 17:21:46 2018,Mouse
2,2,1,0,7,5,5,1,340,408,70,151,0,500,200,8000,"[(512, 384), (512, 384), (512, 384), (512, 384), (512, 384), (512, 384), (512, 384), (512, 384), (512, 384), (512, 384), (512, 384), (512, 384), (512, 384), (512, 384), (512, 384), (512, 384), (512, 384), (512, 384), (512, 384), (512, 384), (512, 384), (512, 384), (512, 384), (512, 384), (512, 384), (512, 384), (513, 386), (513, 377), (511, 358), (508, 331), (501, 254), (493, 205), (487, 157), (480, 111)]",263.3145184636828,"[7, 1, 4, 3, 6, 8, 5, 9, 2]","(0, 0.25)",THI009A,THI,A,Chinese,Tue Oct  9 17:21:46 2018,Mouse
2,2,1,0,8,7,2,0,-7250,270,4701,150,0,500,200,8000,"[(512, 384), (512, 384), (512, 384), (512, 384), (512, 384), (512, 384), (512, 384), (512, 384), (512, 384), (512, 384), (512, 384), (512, 384), (512, 384), (512, 384), (512, 384), (512, 384), (512, 384), (512, 384), (512, 384), (512, 384), (512, 384), (512, 384), (512, 384), (512, 384), (512, 384), (512, 384), (512, 384), (512, 384), (512, 384), (512, 384), (512, 384), (512, 384), (512, 384), (512, 384), (512, 384), (512, 384), (512, 384), (512, 384), (512, 384), (512, 384), (512, 384), (512, 384), (512, 384), (512, 384), (512, 384), (512, 384), (512, 384), (512, 384), (512, 384), (512, 384), (512, 384), (512, 384), (512, 384), (512, 384), (512, 384), (512, 384), (512, 384), (512, 384), (512, 384), (512, 384), (512, 384), (512, 384), (512, 384), (512, 384), (512, 384), (512, 384), (512, 384), (512, 384), (512, 384), (512, 384), (512, 384), (512, 384), (512, 384), (512, 384), (512, 384), (512, 384), (512, 384), (512, 384), (512, 384), (512, 384), (512, 384), (512, 384), (512, 384), (512, 384), (512, 384), (512, 384), (512, 384), (512, 384), (512, 384), (512, 384), (512, 384), (512, 384), (512, 384), (512, 384), (512, 384), (512, 384), (512, 384), (512, 384), (512, 384), (512, 384), (512, 384), (512, 384), (512, 384), (512, 384), (512, 384), (512, 384), (512, 384), (512, 384), (512, 384), (512, 384), (512, 384), (512, 384), (512, 384), (512, 384), (512, 384), (512, 384), (512, 384), (512, 384), (512, 384), (512, 384), (512, 384), (512, 384), (512, 384), (512, 384), (512, 384), (512, 384), (512, 384), (512, 384), (512, 384), (512, 384), (512, 384), (512, 384), (512, 384), (512, 384), (512, 384), (512, 384), (512, 384), (512, 384), (512, 384), (512, 384), (512, 384), (512, 384), (512, 384), (512, 384), (512, 384), (512, 384), (512, 384), (512, 384), (512, 384), (512, 384), (512, 384), (512, 384), (512, 384), (512, 384), (512, 384), (512, 384), (512, 384), (512, 384), (512, 384), (512, 384), (512, 384), (512, 384), (512, 384), (512, 384), (512, 384), (512, 384), (512, 384), (512, 384), (512, 384), (512, 384), (512, 384), (512, 384), (512, 384), (512, 384), (512, 384), (512, 384), (512, 384), (512, 384), (512, 384), (512, 384), (512, 384), (512, 384), (512, 384), (512, 384), (512, 384), (512, 384), (512, 384), (512, 384), (512, 384), (512, 384), (512, 384), (512, 384), (512, 384), (512, 384), (512, 384), (512, 384), (512, 384), (512, 384), (512, 384), (512, 384), (512, 384), (512, 384), (512, 384), (512, 384), (512, 384), (512, 384), (512, 384), (512, 384), (512, 384), (512, 384), (512, 384), (512, 384), (512, 384), (512, 384), (512, 384), (512, 384), (512, 384), (512, 384), (512, 384), (512, 384), (512, 384), (512, 384), (512, 384), (512, 384), (512, 384), (512, 384), (512, 384), (512, 384), (512, 384), (512, 384), (512, 384), (512, 384), (512, 384), (512, 384), (512, 384), (512, 384), (512, 384), (512, 384), (512, 384), (512, 384), (512, 384), (512, 384), (512, 384), (512, 384), (512, 384), (512, 384), (512, 384), (512, 384), (512, 384), (512, 384), (512, 384), (512, 384), (512, 384), (512, 384), (515, 387), (536, 396), (580, 416), (595, 422), (605, 425), (613, 430), (622, 433), (622, 433), (622, 433), (622, 433), (622, 433), (622, 433), (622, 433), (622, 433), (622, 433), (622, 433), (622, 433), (622, 433), (622, 433), (622, 433), (622, 433), (622, 433), (622, 433), (622, 433), (622, 433), (622, 433), (622, 433), (622, 433), (622, 433), (622, 433), (622, 433), (622, 433), (622, 433), (622, 433), (622, 433), (622, 433), (622, 433), (622, 433), (622, 433), (622, 433), (622, 433), (622, 433), (622, 433), (622, 433), (622, 433), (622, 433), (621, 433), (618, 433), (616, 432), (614, 431), (605, 428), (604, 426), (600, 423), (593, 419), (583, 413), (581, 413), (579, 412), (578, 411), (578, 411), (578, 411), (578, 411), (578, 410), (578, 410), (578, 410), (578, 410), (578, 410), (578, 410), (578, 410), (578, 410), (578, 410), (578, 410), (578, 410), (578, 410), (577, 410), (570, 406), (562, 401), (555, 395), (550, 390), (537, 381), (529, 379), (520, 375), (512, 373), (498, 367), (497, 366), (495, 364), (495, 364), (495, 363), (494, 362), (494, 362), (494, 362), (494, 361), (494, 361), (494, 360), (494, 360), (494, 360), (494, 360), (494, 360), (494, 360), (494, 360), (494, 360), (494, 360), (494, 360), (494, 360), (496, 358), (503, 355), (516, 351), (560, 336), (591, 326), (617, 318), (639, 312), (668, 302), (679, 299), (684, 297), (686, 295), (686, 295), (686, 295), (686, 295), (686, 295), (686, 295), (686, 295), (686, 295), (686, 295), (686, 295), (686, 295), (686, 295), (686, 295), (686, 295), (686, 295), (686, 295), (686, 295), (686, 295), (686, 295), (686, 295), (686, 295), (686, 295), (686, 295), (686, 295), (686, 295), (686, 295), (686, 295), (686, 295), (686, 295), (686, 295), (686, 295), (686, 295), (685, 295), (685, 295), (683, 295), (679, 295), (673, 296), (654, 297), (640, 299), (621, 301), (596, 301), (537, 301), (512, 301), (492, 301), (476, 301), (464, 301), (461, 301), (461, 301), (461, 301), (461, 301), (461, 301), (461, 301), (461, 301), (461, 301), (461, 301), (461, 301), (461, 301), (461, 301), (461, 301), (461, 301), (461, 301), (461, 301), (461, 301), (461, 301), (461, 301), (461, 301), (461, 301), (461, 301), (461, 301), (461, 301), (461, 301), (461, 301), (461, 301), (461, 301), (461, 301), (461, 301), (461, 301), (461, 301), (461, 301), (461, 301), (461, 301), (461, 301), (461, 301), (461, 301), (461, 301), (466, 297), (469, 295), (473, 294), (477, 291), (484, 291), (485, 291), (486, 291), (486, 291), (486, 291), (486, 291), (486, 291), (486, 291), (486, 291), (486, 291), (487, 291), (487, 291), (487, 294), (487, 294), (487, 294), (487, 294), (487, 294), (487, 295), (487, 295), (487, 295), (487, 295), (487, 296), (487, 297), (488, 297), (488, 299), (488, 299), (489, 299), (489, 300), (489, 300), (489, 300), (489, 300), (489, 300), (489, 300), (489, 300), (489, 300), (489, 300), (489, 300), (489, 300), (489, 300), (489, 300), (489, 300), (489, 300), (489, 300), (489, 300), (489, 300), (489, 300), (489, 300), (489, 300), (489, 300), (489, 300), (489, 300), (489, 300), (489, 300), (489, 300), (489, 300), (489, 300), (489, 300), (489, 300), (489, 300), (489, 300), (489, 300), (489, 300), (489, 300), (489, 300), (489, 300), (489, 300), (489, 300), (489, 300), (489, 300), (489, 300), (489, 300), (489, 300), (489, 300), (489, 300), (489, 300), (489, 300), (489, 300), (489, 300), (489, 300), (489, 300), (489, 300), (489, 300), (489, 300), (489, 300), (489, 300), (489, 300), (489, 300), (489, 300), (489, 300), (489, 300), (489, 300), (489, 300), (489, 300), (489, 300), (489, 300), (489, 300), (489, 300), (489, 300), (489, 300), (489, 300), (489, 300), (489, 300), (489, 300), (489, 300), (489, 300), (489, 300), (489, 300), (489, 300), (489, 300), (489, 300), (489, 300), (489, 300), (489, 300), (489, 300), (489, 300), (489, 300), (489, 300), (489, 300), (489, 300), (489, 300), (489, 300), (489, 300), (489, 300), (489, 300), (489, 300), (489, 300), (489, 300), (489, 300), (489, 300), (489, 300), (489, 300), (489, 300), (489, 300), (489, 300), (489, 300), (489, 300), (489, 300), (489, 300), (489, 300), (489, 300), (489, 300), (489, 300), (489, 300), (489, 300), (489, 300), (489, 300), (489, 300), (489, 300), (489, 300), (489, 300), (489, 300), (489, 300), (489, 300), (489, 300), (489, 300), (489, 300), (489, 300), (489, 300), (489, 300), (489, 300), (489, 300), (489, 300), (489, 300), (489, 300), (489, 300), (489, 300), (489, 300), (489, 300), (489, 300), (489, 300), (489, 300), (489, 300), (489, 300), (489, 300), (489, 300), (489, 300), (489, 300), (489, 300), (489, 300), (489, 300), (489, 300), (489, 300), (489, 300), (489, 300), (489, 300), (489, 300), (489, 300), (489, 300), (489, 300), (489, 300), (489, 300), (489, 300), (489, 300), (489, 300), (489, 300), (489, 300), (489, 300), (489, 300), (489, 300), (489, 300), (489, 300), (489, 300), (489, 300), (489, 300), (489, 300), (489, 300), (489, 300), (489, 300), (489, 300), (489, 300), (489, 300), (489, 300), (489, 300), (489, 300), (489, 300), (489, 300), (489, 300), (489, 300), (489, 300), (489, 300), (489, 300), (489, 300), (489, 300), (489, 300), (489, 300), (489, 300), (489, 300), (489, 300), (489, 300), (489, 300), (489, 300), (489, 300), (489, 300), (489, 300), (489, 300), (489, 300), (489, 300), (489, 300), (489, 300), (489, 300), (489, 300), (489, 300), (489, 300), (489, 300), (489, 300), (489, 300), (489, 300), (489, 300), (489, 300), (489, 300), (489, 300), (489, 300), (489, 300), (489, 300), (489, 300), (489, 300), (489, 300), (489, 300), (489, 300), (489, 300), (489, 300), (489, 300), (489, 300), (489, 300), (503, 301), (539, 301), (597, 301), (658, 301), (780, 285)]",339.725619596277,"[7, 1, 4, 3, 6, 8, 5, 9, 2]","(0, 0.25)",THI009A,THI,A,Chinese,Tue Oct  9 17:21:46 2018,Mouse
2,2,1,0,9,2,2,1,759,2549,40,151,0,500,200,8000,"[(512, 384), (512, 384), (512, 384), (512, 384), (512, 384), (512, 384), (512, 384), (512, 384), (512, 384), (512, 384), (512, 384), (512, 384), (512, 384), (512, 384), (512, 384), (512, 384), (512, 384), (512, 384), (512, 384), (512, 384), (512, 384), (512, 384), (512, 384), (512, 384), (512, 384), (512, 384), (512, 384), (512, 384), (512, 384), (512, 384), (512, 384), (512, 384), (512, 384), (512, 384), (512, 384), (512, 384), (512, 384), (512, 384), (512, 384), (512, 384), (512, 384), (512, 384), (512, 384), (512, 384), (512, 384), (512, 384), (512, 384), (512, 384), (512, 384), (512, 384), (512, 384), (512, 384), (512, 384), (512, 384), (512, 384), (512, 384), (512, 384), (512, 384), (512, 384), (512, 384), (512, 384), (512, 384), (512, 384), (512, 384), (512, 384), (512, 384), (512, 384), (512, 384), (512, 384), (512, 384), (512, 384), (521, 384), (559, 374), (620, 357), (700, 335), (866, 281)]",343.7770931791263,"[7, 1, 4, 3, 6, 8, 5, 9, 2]","(0, 0.25)",THI009A,THI,A,Chinese,Tue Oct  9 17:21:46 2018,Mouse
2,2,1,0,10,7,7,1,731,719,30,151,0,500,200,8000,"[(512, 384), (512, 384), (512, 384), (512, 384), (512, 384), (512, 384), (512, 384), (512, 384), (512, 384), (512, 384), (512, 384), (512, 384), (512, 384), (512, 384), (512, 384), (512, 384), (512, 384), (512, 384), (512, 384), (512, 384), (512, 384), (512, 384), (512, 384), (512, 384), (512, 384), (512, 384), (512, 384), (512, 384), (512, 384), (512, 384), (512, 384), (512, 384), (512, 384), (512, 384), (512, 384), (512, 384), (512, 384), (512, 384), (512, 384), (512, 384), (512, 384), (512, 384), (512, 384), (512, 384), (512, 384), (512, 384), (512, 384), (512, 384), (512, 384), (512, 384), (512, 384), (512, 384), (512, 384), (512, 384), (512, 384), (512, 384), (512, 384), (512, 384), (512, 384), (512, 384), (512, 384), (512, 384), (512, 384), (512, 384), (512, 384), (512, 384), (512, 384), (512, 384), (512, 384), (512, 384), (528, 395), (577, 422), (698, 473), (754, 496)]",24.835167555264906,"[7, 1, 4, 3, 6, 8, 5, 9, 2]","(0, 0.25)",THI009A,THI,A,Chinese,Tue Oct  9 17:21:46 2018,Mouse
2,2,1,0,11,3,3,1,960,701,60,150,0,500,200,8000,"[(512, 384), (512, 384), (512, 384), (512, 384), (512, 384), (512, 384), (512, 384), (512, 384), (512, 384), (512, 384), (512, 384), (512, 384), (512, 384), (512, 384), (512, 384), (512, 384), (512, 384), (512, 384), (512, 384), (512, 384), (512, 384), (512, 384), (512, 384), (512, 384), (512, 384), (512, 384), (512, 384), (512, 384), (512, 384), (512, 384), (512, 384), (512, 384), (512, 384), (512, 384), (512, 384), (512, 384), (512, 384), (512, 384), (512, 384), (512, 384), (512, 384), (512, 384), (512, 384), (512, 384), (512, 384), (512, 384), (512, 384), (512, 384), (512, 384), (512, 384), (512, 384), (512, 384), (512, 384), (512, 384), (512, 384), (512, 384), (512, 384), (512, 384), (512, 384), (512, 384), (512, 384), (512, 384), (512, 384), (512, 384), (512, 384), (512, 384), (512, 384), (512, 384), (512, 384), (512, 384), (512, 384), (512, 384), (512, 384), (512, 384), (512, 384), (512, 384), (512, 384), (512, 384), (512, 384), (512, 384), (512, 384), (512, 384), (512, 384), (512, 384), (512, 384), (512, 384), (512, 384), (512, 384), (512, 384), (509, 384), (479, 401), (455, 421), (434, 443), (398, 467), (328, 519), (296, 547)]",142.9607139946962,"[7, 1, 4, 3, 6, 8, 5, 9, 2]","(0, 0.25)",THI009A,THI,A,Chinese,Tue Oct  9 17:21:46 2018,Mouse
2,2,1,0,12,7,2,0,-1149,900,280,149,0,500,200,8000,"[(512, 384), (512, 384), (512, 384), (512, 384), (512, 384), (512, 384), (512, 384), (512, 384), (512, 384), (512, 384), (512, 384), (512, 384), (512, 384), (512, 384), (512, 384), (512, 384), (512, 384), (512, 384), (512, 384), (512, 384), (512, 384), (512, 384), (512, 384), (512, 384), (512, 384), (512, 384), (512, 384), (512, 384), (512, 384), (512, 384), (512, 384), (512, 384), (512, 384), (512, 384), (512, 384), (512, 384), (512, 384), (512, 384), (512, 384), (512, 384), (512, 384), (512, 384), (512, 384), (512, 384), (512, 384), (512, 384), (512, 384), (512, 384), (512, 384), (512, 384), (512, 384), (512, 384), (512, 384), (512, 384), (512, 384), (512, 384), (512, 384), (512, 384), (512, 384), (512, 384), (512, 384), (512, 384), (512, 384), (512, 384), (512, 384), (512, 384), (512, 384), (512, 384), (512, 384), (512, 384), (512, 384), (512, 384), (512, 384), (512, 384), (512, 384), (512, 384), (512, 384), (512, 384), (512, 384), (512, 384), (512, 384), (512, 384), (512, 384), (512, 384), (512, 384), (512, 384), (531, 371), (553, 361), (567, 352), (577, 348), (586, 341), (589, 340), (590, 339), (590, 339), (590, 339), (590, 339), (590, 339), (590, 339), (590, 339), (590, 339), (590, 339), (590, 339), (590, 339), (590, 339), (590, 339), (590, 339), (590, 339), (590, 339), (590, 339), (590, 339), (606, 328), (625, 320), (654, 306), (702, 288), (813, 251)]",336.1612598168283,"[7, 1, 4, 3, 6, 8, 5, 9, 2]","(0, 0.25)",THI009A,THI,A,Chinese,Tue Oct  9 17:21:46 2018,Mouse
2,2,1,0,13,3,3,1,1900,869,50,150,0,500,200,8000,"[(512, 384), (512, 384), (512, 384), (512, 384), (512, 384), (512, 384), (512, 384), (512, 384), (512, 384), (512, 384), (512, 384), (512, 384), (512, 384), (512, 384), (512, 384), (512, 384), (512, 384), (512, 384), (512, 384), (512, 384), (512, 384), (512, 384), (512, 384), (512, 384), (512, 384), (512, 384), (512, 384), (512, 384), (512, 384), (512, 384), (512, 384), (512, 384), (512, 384), (512, 384), (512, 384), (512, 384), (512, 384), (512, 384), (512, 384), (512, 384), (512, 384), (512, 384), (512, 384), (512, 384), (512, 384), (512, 384), (512, 384), (512, 384), (512, 384), (512, 384), (512, 384), (512, 384), (512, 384), (512, 384), (512, 384), (512, 384), (512, 384), (512, 384), (512, 384), (512, 384), (512, 384), (512, 384), (512, 384), (512, 384), (512, 384), (512, 384), (512, 384), (512, 384), (512, 384), (512, 384), (512, 384), (512, 384), (512, 384), (512, 384), (512, 384), (512, 384), (512, 384), (512, 384), (512, 384), (512, 384), (512, 384), (512, 384), (512, 384), (512, 384), (512, 384), (512, 384), (512, 384), (512, 384), (512, 384), (512, 384), (512, 384), (512, 384), (512, 384), (512, 384), (512, 384), (512, 384), (512, 384), (512, 384), (512, 384), (512, 384), (512, 384), (512, 384), (512, 384), (512, 384), (512, 384), (512, 384), (512, 384), (512, 384), (512, 384), (512, 384), (512, 384), (512, 384), (512, 384), (512, 384), (512, 384), (512, 384), (512, 384), (512, 384), (512, 384), (512, 384), (512, 384), (512, 384), (512, 384), (512, 384), (512, 384), (512, 384), (512, 384), (512, 384), (512, 384), (512, 384), (512, 384), (512, 384), (512, 384), (512, 384), (512, 384), (512, 384), (512, 384), (512, 384), (512, 384), (512, 384), (512, 384), (512, 384), (512, 384), (512, 384), (512, 384), (512, 384), (512, 384), (512, 384), (512, 384), (512, 384), (512, 384), (512, 384), (512, 384), (512, 384), (512, 384), (512, 384), (512, 384), (512, 384), (512, 384), (512, 384), (512, 384), (512, 384), (512, 384), (512, 384), (512, 384), (512, 384), (512, 384), (512, 384), (512, 384), (512, 384), (512, 384), (512, 384), (512, 384), (512, 384), (512, 384), (512, 384), (512, 384), (512, 384), (512, 384), (512, 384), (512, 384), (512, 384), (512, 384), (512, 384), (509, 388), (480, 401), (447, 420), (349, 475), (306, 499), (259, 527)]",150.52411099675425,"[7, 1, 4, 3, 6, 8, 5, 9, 2]","(0, 0.25)",THI009A,THI,A,Chinese,Tue Oct  9 17:21:46 2018,Mouse
2,2,1,0,14,8,8,1,620,1850,70,150,0,500,200,8000,"[(512, 384), (512, 384), (512, 384), (512, 384), (512, 384), (512, 384), (512, 384), (512, 384), (512, 384), (512, 384), (512, 384), (512, 384), (512, 384), (512, 384), (512, 384), (512, 384), (512, 384), (512, 384), (512, 384), (512, 384), (512, 384), (512, 384), (512, 384), (512, 384), (512, 384), (512, 384), (512, 384), (512, 384), (512, 384), (512, 384), (512, 384), (512, 384), (512, 384), (512, 384), (512, 384), (512, 384), (512, 384), (512, 384), (512, 384), (512, 384), (512, 384), (512, 384), (512, 384), (512, 384), (512, 384), (512, 384), (512, 384), (512, 384), (512, 384), (512, 384), (512, 384), (512, 384), (512, 384), (512, 384), (511, 380), (495, 362), (479, 339), (442, 302), (424, 284), (401, 267), (363, 244), (299, 202)]",220.51256722152417,"[7, 1, 4, 3, 6, 8, 5, 9, 2]","(0, 0.25)",THI009A,THI,A,Chinese,Tue Oct  9 17:21:46 2018,Mouse
2,2,1,0,15,6,6,1,2419,550,50,149,0,500,200,8000,"[(512, 384), (512, 384), (512, 384), (512, 384), (512, 384), (512, 384), (512, 384), (512, 384), (512, 384), (512, 384), (512, 384), (512, 384), (512, 384), (512, 384), (512, 384), (512, 384), (512, 384), (512, 384), (512, 384), (512, 384), (512, 384), (512, 384), (512, 384), (512, 384), (512, 384), (512, 384), (512, 384), (512, 384), (512, 384), (512, 384), (512, 384), (512, 384), (512, 384), (512, 384), (512, 384), (512, 384), (512, 384), (512, 384), (512, 384), (512, 384), (512, 384), (512, 384), (512, 384), (512, 384), (512, 384), (512, 384), (512, 384), (512, 384), (512, 384), (512, 384), (512, 384), (512, 384), (512, 384), (512, 384), (512, 384), (512, 384), (512, 384), (512, 384), (512, 384), (512, 384), (512, 384), (512, 384), (512, 384), (512, 384), (512, 384), (512, 384), (512, 384), (512, 384), (512, 384), (512, 384), (512, 384), (512, 384), (512, 384), (512, 384), (512, 384), (512, 384), (512, 384), (512, 384), (512, 384), (512, 384), (512, 384), (512, 384), (512, 384), (512, 384), (512, 384), (512, 384), (512, 384), (512, 384), (512, 384), (512, 384), (512, 384), (512, 384), (512, 384), (512, 384), (512, 384), (512, 384), (512, 384), (512, 384), (512, 384), (512, 384), (512, 384), (512, 384), (512, 384), (512, 384), (512, 384), (512, 384), (512, 384), (512, 384), (512, 384), (512, 384), (512, 384), (512, 384), (512, 384), (512, 384), (512, 384), (512, 384), (512, 384), (512, 384), (512, 384), (512, 384), (512, 384), (512, 384), (512, 384), (512, 384), (512, 384), (512, 384), (512, 384), (512, 384), (512, 384), (512, 384), (512, 384), (512, 384), (512, 384), (512, 384), (512, 384), (512, 384), (512, 384), (512, 384), (512, 384), (512, 384), (512, 384), (512, 384), (512, 384), (512, 384), (512, 384), (512, 384), (512, 384), (512, 384), (512, 384), (512, 384), (512, 384), (512, 384), (512, 384), (512, 384), (512, 384), (512, 384), (512, 384), (512, 384), (512, 384), (512, 384), (512, 384), (512, 384), (512, 384), (512, 384), (512, 384), (512, 384), (512, 384), (512, 384), (512, 384), (512, 384), (512, 384), (512, 384), (512, 384), (512, 384), (512, 384), (512, 384), (512, 384), (512, 384), (512, 384), (512, 384), (512, 384), (512, 384), (512, 384), (512, 384), (512, 384), (512, 384), (512, 384), (512, 384), (512, 384), (512, 384), (512, 384), (512, 384), (512, 384), (512, 384), (512, 384), (512, 384), (512, 384), (512, 384), (512, 384), (512, 384), (512, 384), (512, 384), (512, 384), (512, 384), (512, 384), (512, 384), (512, 384), (512, 384), (512, 384), (512, 384), (512, 384), (512, 384), (512, 384), (512, 384), (512, 384), (512, 384), (512, 384), (512, 384), (512, 384), (512, 384), (512, 384), (512, 384), (512, 384), (512, 384), (512, 384), (512, 384), (512, 384), (512, 384), (512, 384), (512, 384), (512, 384), (512, 384), (512, 384), (512, 384), (512, 384), (512, 384), (509, 384), (489, 388), (458, 397), (363, 416), (317, 424), (260, 434)]",168.77754193055517,"[7, 1, 4, 3, 6, 8, 5, 9, 2]","(0, 0.25)",THI009A,THI,A,Chinese,Tue Oct  9 17:21:46 2018,Mouse
2,2,1,0,16,4,4,1,1670,2369,1610,148,0,500,200,8000,"[(512, 384), (512, 384), (512, 384), (512, 384), (512, 384), (514, 383), (515, 383), (515, 383), (515, 383), (515, 383), (515, 382), (515, 382), (515, 382), (515, 382), (515, 382), (515, 382), (515, 382), (515, 382), (515, 381), (515, 381), (515, 381), (515, 381), (515, 381), (515, 381), (515, 381), (515, 381), (515, 381), (515, 381), (515, 381), (515, 381), (515, 381), (515, 381), (515, 381), (515, 381), (515, 381), (515, 381), (515, 381), (515, 381), (515, 381), (515, 381), (515, 381), (515, 381), (515, 381), (515, 381), (515, 381), (515, 381), (515, 381), (515, 381), (515, 381), (515, 381), (515, 381), (515, 381), (515, 381), (515, 381), (515, 381), (515, 381), (515, 381), (515, 381), (515, 381), (515, 381), (515, 381), (515, 381), (515, 381), (515, 381), (515, 381), (515, 381), (515, 381), (515, 381), (515, 381), (515, 381), (515, 381), (515, 381), (515, 381), (515, 381), (515, 381), (515, 381), (515, 381), (515, 381), (515, 381), (515, 381), (515, 381), (515, 381), (515, 381), (515, 381), (515, 381), (515, 381), (515, 381), (515, 381), (515, 381), (515, 381), (515, 381), (515, 381), (515, 381), (515, 381), (515, 381), (515, 381), (515, 381), (515, 381), (515, 381), (515, 381), (515, 381), (515, 381), (515, 381), (515, 381), (515, 381), (515, 381), (515, 381), (515, 381), (515, 381), (515, 381), (515, 381), (515, 381), (515, 381), (515, 381), (515, 381), (515, 381), (515, 381), (515, 381), (515, 381), (515, 381), (515, 381), (515, 381), (515, 381), (515, 381), (515, 381), (515, 381), (515, 381), (515, 381), (515, 381), (515, 381), (515, 381), (515, 381), (515, 381), (515, 381), (515, 381), (515, 381), (515, 381), (515, 381), (515, 381), (515, 381), (515, 381), (515, 381), (515, 381), (515, 381), (515, 381), (515, 381), (515, 381), (515, 381), (515, 381), (515, 381), (515, 381), (515, 381), (515, 381), (515, 381), (515, 381), (515, 381), (515, 381), (515, 381), (515, 381), (515, 381), (515, 381), (515, 401), (512, 435), (505, 476), (497, 519), (476, 618), (468, 664)]",98.930590100419,"[7, 1, 4, 3, 6, 8, 5, 9, 2]","(0, 0.25)",THI009A,THI,A,Chinese,Tue Oct  9 17:21:46 2018,Mouse
2,2,1,0,17,8,8,1,588,60,60,147,0,500,200,8000,"[(512, 384), (512, 384), (512, 384), (512, 384), (512, 384), (512, 384), (512, 384), (512, 384), (512, 384), (512, 384), (512, 384), (512, 384), (512, 384), (512, 384), (512, 384), (512, 384), (512, 384), (512, 384), (512, 384), (512, 384), (512, 384), (512, 384), (512, 384), (512, 384), (512, 384), (512, 384), (512, 384), (512, 384), (512, 384), (512, 384), (512, 384), (512, 384), (512, 384), (512, 384), (512, 384), (512, 384), (512, 384), (512, 384), (512, 384), (512, 384), (512, 384), (512, 384), (512, 384), (512, 384), (512, 384), (512, 384), (512, 384), (512, 384), (512, 384), (512, 384), (512, 384), (512, 384), (506, 381), (499, 372), (471, 340), (443, 311), (409, 280), (370, 257), (272, 200)]",217.4761795613614,"[7, 1, 4, 3, 6, 8, 5, 9, 2]","(0, 0.25)",THI009A,THI,A,Chinese,Tue Oct  9 17:21:46 2018,Mouse
2,2,1,0,18,7,7,1,2221,528,390,146,0,500,200,8000,"[(512, 384), (512, 384), (512, 384), (512, 384), (512, 384), (512, 384), (512, 384), (512, 384), (512, 384), (512, 384), (512, 384), (512, 384), (512, 384), (512, 384), (512, 384), (512, 384), (512, 384), (512, 384), (512, 384), (512, 384), (512, 384), (512, 384), (512, 384), (512, 384), (512, 384), (512, 384), (512, 384), (512, 384), (512, 384), (512, 384), (512, 384), (512, 384), (512, 384), (512, 384), (512, 384), (512, 384), (512, 384), (512, 384), (512, 384), (512, 384), (512, 384), (512, 384), (512, 384), (512, 384), (512, 384), (512, 384), (512, 384), (512, 384), (512, 384), (512, 384), (512, 384), (512, 384), (512, 384), (512, 384), (512, 384), (512, 384), (512, 384), (512, 384), (512, 384), (512, 384), (512, 384), (512, 384), (512, 384), (512, 384), (512, 384), (512, 384), (512, 384), (512, 384), (512, 384), (512, 384), (512, 384), (512, 384), (512, 384), (512, 384), (512, 384), (512, 384), (512, 384), (512, 384), (512, 384), (512, 384), (512, 384), (512, 384), (512, 384), (512, 384), (512, 384), (512, 384), (512, 384), (512, 384), (512, 384), (512, 384), (512, 384), (512, 384), (512, 384), (512, 384), (512, 384), (512, 384), (512, 384), (512, 384), (512, 384), (512, 384), (512, 384), (512, 384), (512, 384), (512, 384), (512, 384), (512, 384), (512, 384), (512, 384), (512, 384), (512, 384), (512, 384), (512, 384), (512, 384), (512, 384), (512, 384), (512, 384), (512, 384), (512, 384), (512, 384), (512, 384), (512, 384), (512, 384), (512, 384), (512, 384), (512, 384), (512, 384), (512, 384), (512, 384), (512, 384), (512, 384), (512, 384), (512, 384), (512, 384), (512, 384), (512, 384), (512, 384), (512, 384), (512, 384), (512, 384), (512, 384), (512, 384), (512, 384), (512, 384), (512, 384), (512, 384), (512, 384), (512, 384), (512, 384), (512, 384), (512, 384), (512, 384), (512, 384), (512, 384), (512, 384), (512, 384), (512, 384), (512, 384), (512, 384), (512, 384), (512, 384), (512, 384), (512, 384), (512, 384), (512, 384), (512, 384), (512, 384), (512, 384), (512, 384), (512, 384), (512, 384), (512, 384), (512, 384), (512, 384), (512, 384), (512, 384), (512, 384), (512, 384), (512, 384), (512, 384), (512, 384), (512, 384), (512, 384), (515, 384), (524, 384), (527, 384), (529, 384), (531, 384), (533, 384), (535, 384), (535, 384), (535, 384), (538, 385), (538, 385), (540, 386), (542, 388), (544, 391), (548, 394), (550, 396), (554, 399), (562, 406), (570, 411), (575, 414), (579, 416), (591, 420), (600, 423), (605, 424), (610, 425), (622, 430), (625, 431), (630, 434), (632, 435), (639, 439), (643, 441), (649, 444), (655, 449), (677, 461), (687, 465), (697, 469), (707, 474), (724, 480), (734, 485), (744, 488)]",24.145541960421653,"[7, 1, 4, 3, 6, 8, 5, 9, 2]","(0, 0.25)",THI009A,THI,A,Chinese,Tue Oct  9 17:21:46 2018,Mouse
2,2,1,0,19,9,9,1,1359,1831,70,145,0,500,200,8000,"[(512, 384), (512, 384), (512, 384), (512, 384), (512, 384), (512, 384), (512, 384), (512, 384), (512, 384), (512, 384), (512, 384), (512, 384), (512, 384), (512, 384), (512, 384), (512, 384), (512, 384), (512, 384), (512, 384), (512, 384), (512, 384), (512, 384), (512, 384), (512, 384), (512, 384), (512, 384), (512, 384), (512, 384), (512, 384), (512, 384), (512, 384), (512, 384), (512, 384), (512, 384), (512, 384), (512, 384), (512, 384), (512, 384), (512, 384), (512, 384), (512, 384), (512, 384), (512, 384), (512, 384), (512, 384), (512, 384), (512, 384), (512, 384), (512, 384), (512, 384), (512, 384), (512, 384), (512, 384), (512, 384), (512, 384), (512, 384), (512, 384), (512, 384), (512, 384), (512, 384), (512, 384), (512, 384), (512, 384), (512, 384), (512, 384), (512, 384), (512, 384), (512, 384), (512, 384), (512, 384), (512, 384), (512, 384), (512, 384), (512, 384), (512, 384), (512, 384), (512, 384), (512, 384), (512, 384), (512, 384), (512, 384), (512, 384), (512, 384), (512, 384), (512, 384), (512, 384), (512, 384), (512, 384), (512, 384), (512, 384), (512, 384), (512, 384), (512, 384), (512, 384), (512, 384), (512, 384), (512, 384), (512, 384), (512, 384), (512, 384), (512, 384), (512, 384), (512, 384), (512, 384), (512, 384), (512, 384), (512, 384), (512, 384), (512, 384), (512, 384), (512, 384), (512, 384), (512, 384), (512, 384), (512, 384), (512, 384), (512, 384), (512, 384), (512, 384), (512, 384), (512, 384), (512, 384), (512, 384), (512, 384), (512, 384), (512, 384), (512, 384), (512, 384), (511, 373), (526, 340), (540, 321), (551, 297), (572, 266), (613, 210), (632, 172), (651, 142)]",299.8722050418296,"[7, 1, 4, 3, 6, 8, 5, 9, 2]","(0, 0.25)",THI009A,THI,A,Chinese,Tue Oct  9 17:21:46 2018,Mouse
2,2,1,0,20,9,9,1,340,1289,60,144,0,500,200,8000,"[(512, 384), (512, 384), (512, 384), (512, 384), (512, 384), (512, 384), (512, 384), (512, 384), (512, 384), (512, 384), (512, 384), (512, 384), (512, 384), (512, 384), (512, 384), (512, 384), (512, 384), (512, 384), (512, 384), (512, 384), (512, 384), (512, 384), (512, 384), (512, 384), (512, 384), (512, 384), (512, 384), (512, 385), (522, 373), (580, 323), (615, 294), (641, 271), (669, 248), (719, 205)]",319.14890369773434,"[7, 1, 4, 3, 6, 8, 5, 9, 2]","(0, 0.25)",THI009A,THI,A,Chinese,Tue Oct  9 17:21:46 2018,Mouse
2,2,1,0,21,6,6,1,3398,280,2609,143,0,500,200,8000,"[(512, 384), (512, 384), (512, 384), (512, 384), (512, 384), (512, 384), (512, 384), (512, 384), (512, 384), (512, 384), (512, 384), (512, 384), (512, 384), (512, 384), (512, 384), (512, 384), (512, 384), (512, 384), (512, 384), (512, 384), (512, 384), (512, 384), (512, 384), (512, 384), (512, 384), (512, 384), (512, 384), (512, 384), (512, 384), (512, 384), (512, 384), (512, 384), (512, 384), (512, 384), (512, 384), (512, 384), (512, 384), (512, 384), (512, 384), (512, 384), (512, 384), (512, 384), (512, 384), (512, 384), (512, 384), (512, 384), (512, 384), (512, 384), (512, 384), (512, 384), (512, 384), (512, 384), (512, 384), (512, 384), (512, 384), (512, 384), (512, 384), (512, 384), (512, 384), (512, 384), (512, 384), (512, 384), (512, 384), (512, 384), (512, 384), (512, 384), (512, 384), (512, 384), (512, 384), (512, 384), (512, 384), (512, 384), (512, 384), (512, 384), (512, 384), (512, 384), (512, 384), (512, 384), (510, 384), (510, 384), (510, 384), (510, 384), (510, 384), (510, 384), (510, 384), (510, 384), (510, 384), (510, 384), (510, 384), (510, 384), (510, 384), (510, 384), (510, 384), (510, 384), (510, 384), (510, 384), (510, 384), (510, 384), (510, 384), (510, 384), (510, 384), (510, 384), (510, 384), (510, 384), (510, 384), (510, 384), (510, 384), (510, 384), (510, 384), (510, 384), (510, 384), (510, 384), (510, 384), (510, 384), (510, 384), (510, 384), (510, 384), (510, 384), (510, 384), (510, 384), (510, 384), (510, 384), (510, 384), (510, 384), (510, 384), (510, 384), (510, 384), (510, 384), (510, 384), (510, 384), (510, 384), (510, 384), (510, 384), (510, 384), (510, 384), (510, 384), (510, 384), (510, 384), (510, 384), (510, 384), (510, 384), (510, 384), (510, 384), (510, 384), (510, 384), (510, 384), (510, 384), (510, 384), (510, 384), (510, 384), (510, 384), (510, 384), (510, 384), (510, 384), (510, 384), (510, 384), (510, 384), (510, 384), (510, 384), (510, 384), (510, 384), (510, 384), (510, 384), (510, 384), (510, 384), (510, 384), (510, 384), (510, 384), (510, 384), (510, 384), (510, 384), (510, 384), (510, 384), (510, 384), (510, 384), (510, 384), (510, 384), (510, 384), (510, 384), (510, 384), (510, 384), (510, 384), (510, 384), (510, 384), (510, 384), (510, 384), (510, 384), (510, 384), (510, 384), (510, 384), (510, 384), (510, 384), (510, 384), (510, 384), (510, 384), (510, 384), (510, 384), (510, 384), (510, 384), (510, 384), (510, 384), (510, 384), (510, 384), (510, 384), (510, 384), (510, 384), (510, 384), (510, 384), (510, 384), (510, 384), (510, 384), (510, 384), (510, 384), (510, 384), (510, 384), (510, 384), (510, 384), (510, 384), (510, 384), (510, 384), (510, 384), (510, 384), (510, 384), (510, 384), (510, 384), (510, 384), (510, 384), (510, 384), (510, 384), (510, 384), (510, 384), (510, 384), (510, 384), (510, 384), (510, 384), (510, 384), (510, 384), (510, 384), (510, 384), (510, 384), (510, 384), (510, 384), (510, 384), (510, 384), (510, 384), (510, 384), (510, 384), (510, 384), (510, 384), (510, 384), (510, 384), (510, 384), (510, 384), (510, 384), (510, 384), (510, 384), (510, 384), (510, 384), (510, 384), (510, 384), (510, 384), (510, 384), (510, 384), (510, 384), (510, 384), (510, 384), (510, 384), (510, 384), (510, 384), (510, 384), (510, 384), (510, 384), (510, 384), (510, 384), (510, 384), (510, 384), (510, 384), (510, 384), (510, 384), (510, 384), (510, 384), (510, 384), (510, 384), (510, 384), (510, 384), (510, 384), (510, 384), (510, 384), (510, 384), (510, 384), (510, 384), (510, 384), (510, 384), (510, 384), (510, 384), (510, 384), (510, 384), (510, 384), (510, 384), (510, 384), (510, 384), (510, 384), (510, 384), (510, 384), (510, 384), (510, 384), (510, 384), (510, 384), (510, 384), (510, 384), (510, 384), (510, 384), (510, 384), (510, 384), (510, 384), (510, 384), (510, 384), (510, 384), (510, 384), (510, 384), (510, 384), (510, 384), (510, 384), (510, 384), (510, 384), (510, 384), (510, 383), (507, 383), (507, 383), (507, 383), (507, 384), (507, 384), (505, 384), (501, 384), (489, 387), (449, 391), (413, 391), (371, 391), (321, 391), (208, 391)]",178.68092238449145,"[7, 1, 4, 3, 6, 8, 5, 9, 2]","(0, 0.25)",THI009A,THI,A,Chinese,Tue Oct  9 17:21:46 2018,Mouse
2,2,1,0,22,2,2,1,1180,789,70,142,0,500,200,8000,"[(512, 384), (512, 384), (512, 384), (512, 384), (512, 384), (512, 384), (512, 384), (512, 384), (512, 384), (512, 384), (512, 384), (512, 384), (512, 384), (512, 384), (512, 384), (512, 384), (512, 384), (512, 384), (512, 384), (512, 384), (512, 384), (512, 384), (512, 384), (512, 384), (512, 384), (512, 384), (512, 384), (512, 384), (512, 384), (512, 384), (512, 384), (512, 384), (512, 384), (512, 384), (512, 384), (512, 384), (512, 384), (512, 384), (512, 384), (512, 384), (512, 384), (512, 384), (512, 384), (512, 384), (512, 384), (512, 384), (512, 384), (512, 384), (512, 384), (512, 384), (512, 384), (512, 384), (512, 384), (512, 384), (512, 384), (512, 384), (512, 384), (512, 384), (512, 384), (512, 384), (512, 384), (512, 384), (512, 384), (512, 384), (512, 384), (512, 384), (512, 384), (512, 384), (512, 384), (512, 384), (512, 384), (512, 384), (512, 384), (512, 384), (512, 384), (512, 384), (512, 384), (512, 384), (512, 384), (512, 384), (512, 384), (512, 384), (512, 384), (512, 384), (512, 384), (512, 384), (512, 384), (512, 384), (512, 384), (512, 384), (512, 384), (512, 384), (512, 384), (512, 384), (512, 384), (512, 384), (512, 384), (512, 384), (512, 384), (512, 384), (512, 384), (512, 384), (512, 384), (512, 384), (512, 384), (512, 384), (512, 384), (512, 384), (512, 384), (512, 384), (514, 384), (541, 377), (572, 365), (614, 352), (653, 339), (710, 310), (742, 294), (780, 271)]",337.13767882338396,"[7, 1, 4, 3, 6, 8, 5, 9, 2]","(0, 0.25)",THI009A,THI,A,Chinese,Tue Oct  9 17:21:46 2018,Mouse
2,2,1,0,23,4,4,1,721,1110,60,141,0,500,200,8000,"[(512, 384), (512, 384), (512, 384), (512, 384), (512, 384), (512, 384), (512, 384), (512, 384), (512, 384), (512, 384), (512, 384), (512, 384), (512, 384), (512, 384), (512, 384), (512, 384), (512, 384), (512, 384), (512, 384), (512, 384), (512, 384), (512, 384), (512, 384), (512, 384), (512, 384), (512, 384), (512, 384), (512, 384), (512, 384), (512, 384), (512, 384), (512, 384), (512, 384), (512, 384), (512, 384), (512, 384), (512, 384), (512, 384), (512, 384), (512, 384), (512, 384), (512, 384), (512, 384), (512, 384), (512, 384), (512, 384), (512, 384), (512, 384), (512, 384), (512, 384), (512, 384), (512, 384), (512, 384), (512, 384), (512, 384), (512, 384), (512, 384), (512, 384), (512, 384), (512, 384), (512, 384), (512, 384), (512, 384), (512, 384), (512, 384), (512, 384), (512, 388), (509, 415), (505, 455), (500, 495), (500, 584), (494, 624), (494, 666)]",93.65222278030635,"[7, 1, 4, 3, 6, 8, 5, 9, 2]","(0, 0.25)",THI009A,THI,A,Chinese,Tue Oct  9 17:21:46 2018,Mouse
2,2,1,0,24,9,9,1,1100,661,40,140,0,500,200,8000,"[(512, 384), (512, 384), (512, 384), (512, 384), (512, 384), (512, 384), (512, 384), (512, 384), (512, 384), (512, 384), (512, 384), (512, 384), (512, 384), (512, 384), (512, 384), (512, 384), (512, 384), (512, 384), (512, 384), (512, 384), (512, 384), (512, 384), (512, 384), (512, 384), (512, 384), (512, 384), (512, 384), (512, 384), (512, 384), (512, 384), (512, 384), (512, 384), (512, 384), (512, 384), (512, 384), (512, 384), (512, 384), (512, 384), (512, 384), (512, 384), (512, 384), (512, 384), (512, 384), (512, 384), (512, 384), (512, 384), (512, 384), (512, 384), (512, 384), (512, 384), (512, 384), (512, 384), (512, 384), (512, 384), (512, 384), (512, 384), (512, 384), (512, 384), (512, 384), (512, 384), (512, 384), (512, 384), (512, 384), (512, 384), (512, 384), (512, 384), (512, 384), (512, 384), (512, 384), (512, 384), (512, 384), (512, 384), (512, 384), (512, 384), (512, 384), (512, 384), (512, 384), (512, 384), (512, 384), (512, 384), (512, 384), (512, 384), (512, 384), (512, 384), (512, 384), (512, 384), (512, 384), (512, 384), (512, 384), (512, 384), (512, 384), (512, 384), (512, 384), (512, 384), (512, 384), (512, 384), (512, 384), (512, 384), (512, 384), (512, 384), (512, 384), (512, 384), (512, 384), (512, 384), (512, 384), (513, 379), (527, 346), (547, 298), (567, 252), (625, 146)]",295.3978962560382,"[7, 1, 4, 3, 6, 8, 5, 9, 2]","(0, 0.25)",THI009A,THI,A,Chinese,Tue Oct  9 17:21:46 2018,Mouse
2,2,1,0,25,7,7,1,1400,1060,30,139,0,500,200,8000,"[(512, 384), (512, 384), (512, 384), (512, 384), (512, 384), (512, 384), (512, 384), (512, 384), (512, 384), (512, 384), (512, 384), (512, 384), (512, 384), (512, 384), (512, 384), (512, 384), (512, 384), (512, 384), (512, 384), (512, 384), (512, 384), (512, 384), (512, 384), (512, 384), (512, 384), (512, 384), (512, 384), (512, 384), (512, 384), (512, 384), (512, 384), (512, 384), (512, 384), (512, 384), (512, 384), (512, 384), (512, 384), (512, 384), (512, 384), (512, 384), (512, 384), (512, 384), (512, 384), (512, 384), (512, 384), (512, 384), (512, 384), (512, 384), (512, 384), (512, 384), (512, 384), (512, 384), (512, 384), (512, 384), (512, 384), (512, 384), (512, 384), (512, 384), (512, 384), (512, 384), (512, 384), (512, 384), (512, 384), (512, 384), (512, 384), (512, 384), (512, 384), (512, 384), (512, 384), (512, 384), (512, 384), (512, 384), (512, 384), (512, 384), (512, 384), (512, 384), (512, 384), (512, 384), (512, 384), (512, 384), (512, 384), (512, 384), (512, 384), (512, 384), (512, 384), (512, 384), (512, 384), (512, 384), (512, 384), (512, 384), (512, 384), (512, 384), (512, 384), (512, 384), (512, 384), (512, 384), (512, 384), (512, 384), (512, 384), (512, 384), (512, 384), (512, 384), (512, 384), (512, 384), (512, 384), (512, 384), (512, 384), (512, 384), (512, 384), (512, 384), (512, 384), (512, 384), (512, 384), (512, 384), (512, 384), (512, 384), (512, 384), (512, 384), (512, 384), (512, 384), (512, 384), (512, 384), (512, 384), (512, 384), (512, 384), (512, 384), (512, 384), (512, 384), (512, 384), (512, 384), (512, 384), (512, 384), (512, 384), (512, 384), (512, 384), (512, 384), (516, 387), (557, 405), (624, 429), (760, 493)]",23.72626333607261,"[7, 1, 4, 3, 6, 8, 5, 9, 2]","(0, 0.25)",THI009A,THI,A,Chinese,Tue Oct  9 17:21:46 2018,Mouse
2,2,1,0,26,8,8,1,460,1370,40,138,0,500,200,8000,"[(512, 384), (512, 384), (512, 384), (512, 384), (512, 384), (512, 384), (512, 384), (512, 384), (512, 384), (512, 384), (512, 384), (512, 384), (512, 384), (512, 384), (512, 384), (512, 384), (512, 384), (512, 384), (512, 384), (512, 384), (512, 384), (512, 384), (512, 384), (512, 384), (512, 384), (512, 384), (512, 384), (512, 384), (512, 384), (512, 384), (512, 384), (512, 384), (512, 384), (512, 384), (512, 384), (512, 384), (512, 384), (512, 384), (512, 384), (512, 384), (512, 384), (512, 383), (497, 361), (420, 268), (378, 215), (341, 172)]",231.11022138878462,"[7, 1, 4, 3, 6, 8, 5, 9, 2]","(0, 0.25)",THI009A,THI,A,Chinese,Tue Oct  9 17:21:46 2018,Mouse
2,2,1,0,27,2,4,0,-1459,420,50,137,0,500,200,8000,"[(512, 384), (512, 384), (512, 384), (512, 384), (512, 384), (512, 384), (512, 384), (512, 384), (512, 384), (512, 384), (512, 384), (512, 384), (512, 384), (512, 384), (512, 384), (512, 384), (512, 384), (512, 384), (512, 384), (512, 384), (512, 384), (512, 384), (512, 384), (512, 384), (512, 384), (512, 384), (512, 384), (512, 384), (512, 384), (512, 384), (512, 384), (512, 384), (512, 384), (512, 384), (512, 384), (512, 384), (512, 384), (512, 384), (512, 384), (512, 384), (512, 384), (512, 384), (512, 384), (512, 384), (512, 384), (512, 384), (512, 384), (512, 384), (512, 384), (512, 384), (512, 384), (512, 384), (512, 384), (512, 384), (512, 384), (512, 384), (512, 384), (512, 384), (512, 384), (512, 384), (512, 384), (512, 384), (512, 384), (512, 384), (512, 384), (512, 384), (512, 384), (512, 384), (512, 384), (512, 384), (512, 384), (512, 384), (512, 384), (512, 384), (512, 384), (512, 384), (512, 384), (512, 384), (512, 384), (512, 384), (512, 384), (512, 384), (512, 384), (512, 384), (512, 384), (512, 384), (512, 384), (512, 384), (512, 384), (512, 384), (512, 384), (512, 384), (512, 384), (512, 384), (512, 384), (512, 384), (512, 384), (512, 384), (512, 384), (512, 384), (512, 384), (512, 384), (512, 384), (512, 384), (512, 384), (512, 384), (512, 384), (512, 384), (512, 384), (512, 384), (512, 384), (512, 384), (512, 384), (512, 384), (512, 384), (512, 384), (512, 384), (512, 384), (512, 384), (512, 384), (512, 384), (512, 384), (512, 384), (512, 384), (512, 384), (512, 384), (512, 384), (512, 384), (512, 384), (512, 384), (512, 384), (512, 384), (512, 384), (512, 384), (512, 384), (512, 384), (512, 384), (512, 384), (512, 384), (512, 384), (513, 396), (513, 427), (511, 511), (509, 561), (503, 613), (503, 662)]",91.85425171484778,"[7, 1, 4, 3, 6, 8, 5, 9, 2]","(0, 0.25)",THI009A,THI,A,Chinese,Tue Oct  9 17:21:46 2018,Mouse
2,2,1,0,28,6,6,1,851,1409,50,138,0,500,200,8000,"[(512, 384), (512, 384), (512, 384), (512, 384), (512, 384), (512, 384), (512, 384), (512, 384), (512, 384), (512, 384), (512, 384), (512, 384), (512, 384), (512, 384), (512, 384), (512, 384), (512, 384), (512, 384), (512, 384), (512, 384), (512, 384), (512, 384), (512, 384), (512, 384), (512, 384), (512, 384), (512, 384), (512, 384), (512, 384), (512, 384), (512, 384), (512, 384), (512, 384), (512, 384), (512, 384), (512, 384), (512, 384), (512, 384), (512, 384), (512, 384), (512, 384), (512, 384), (512, 384), (512, 384), (512, 384), (512, 384), (512, 384), (512, 384), (512, 384), (512, 384), (512, 384), (512, 384), (512, 384), (512, 384), (512, 384), (512, 384), (512, 384), (512, 384), (512, 384), (512, 384), (512, 384), (512, 384), (512, 384), (512, 384), (512, 384), (512, 384), (512, 384), (512, 384), (512, 384), (512, 384), (512, 384), (512, 384), (512, 384), (512, 384), (512, 384), (512, 384), (512, 384), (512, 384), (512, 384), (507, 383), (480, 383), (433, 383), (383, 383), (284, 375), (237, 375)]",181.8744655626045,"[7, 1, 4, 3, 6, 8, 5, 9, 2]","(0, 0.25)",THI009A,THI,A,Chinese,Tue Oct  9 17:21:46 2018,Mouse
2,2,1,0,29,9,5,0,-490,801,70,138,0,500,200,8000,"[(512, 384), (512, 384), (512, 384), (512, 384), (512, 384), (512, 384), (512, 384), (512, 384), (512, 384), (512, 384), (512, 384), (512, 384), (512, 384), (512, 384), (512, 384), (512, 384), (512, 384), (512, 384), (512, 384), (512, 384), (512, 384), (512, 384), (512, 384), (512, 384), (512, 384), (512, 384), (512, 384), (512, 384), (512, 384), (512, 384), (512, 384), (512, 384), (512, 384), (512, 384), (512, 384), (512, 384), (512, 384), (512, 384), (512, 384), (512, 384), (512, 384), (512, 374), (492, 324), (479, 297), (471, 279), (460, 255), (429, 201), (412, 176), (390, 152)]",242.26182037161277,"[7, 1, 4, 3, 6, 8, 5, 9, 2]","(0, 0.25)",THI009A,THI,A,Chinese,Tue Oct  9 17:21:46 2018,Mouse
2,2,1,0,30,2,2,1,900,420,40,139,0,500,200,8000,"[(512, 384), (512, 384), (512, 384), (512, 384), (512, 384), (512, 384), (512, 384), (512, 384), (512, 384), (512, 384), (512, 384), (512, 384), (512, 384), (512, 384), (512, 384), (512, 384), (512, 384), (512, 384), (512, 384), (512, 384), (512, 384), (512, 384), (512, 384), (512, 384), (512, 384), (512, 384), (512, 384), (512, 384), (512, 384), (512, 384), (512, 384), (512, 384), (512, 384), (512, 384), (512, 384), (512, 384), (512, 384), (512, 384), (512, 384), (512, 384), (512, 384), (512, 384), (512, 384), (512, 384), (512, 384), (512, 384), (512, 384), (512, 384), (512, 384), (512, 384), (512, 384), (512, 384), (512, 384), (512, 384), (512, 384), (512, 384), (512, 384), (512, 384), (512, 384), (512, 384), (512, 384), (512, 384), (512, 384), (512, 384), (512, 384), (512, 384), (512, 384), (512, 384), (512, 384), (512, 384), (512, 384), (512, 384), (512, 384), (512, 384), (512, 384), (512, 384), (512, 384), (512, 384), (512, 384), (512, 384), (512, 384), (512, 384), (512, 384), (512, 384), (512, 384), (548, 359), (590, 329), (636, 301), (683, 272), (811, 205)]",329.0926369334888,"[7, 1, 4, 3, 6, 8, 5, 9, 2]","(0, 0.25)",THI009A,THI,A,Chinese,Tue Oct  9 17:21:46 2018,Mouse
2,2,1,0,31,6,6,1,639,860,70,139,0,500,200,8000,"[(512, 384), (512, 384), (512, 384), (512, 384), (512, 384), (512, 384), (512, 384), (512, 384), (512, 384), (512, 384), (512, 384), (512, 384), (512, 384), (512, 384), (512, 384), (512, 384), (512, 384), (512, 384), (512, 384), (512, 384), (512, 384), (512, 384), (512, 384), (512, 384), (512, 384), (512, 384), (512, 384), (512, 384), (512, 384), (512, 384), (512, 384), (512, 384), (512, 384), (512, 384), (512, 384), (512, 384), (512, 384), (512, 384), (512, 384), (512, 384), (512, 384), (512, 384), (512, 384), (512, 384), (512, 384), (512, 384), (512, 384), (512, 384), (512, 384), (512, 384), (512, 384), (512, 384), (512, 384), (512, 384), (512, 384), (512, 384), (511, 385), (511, 385), (506, 385), (465, 402), (434, 409), (386, 412), (338, 420), (249, 432)]",169.65681577883367,"[7, 1, 4, 3, 6, 8, 5, 9, 2]","(0, 0.25)",THI009A,THI,A,Chinese,Tue Oct  9 17:21:46 2018,Mouse
2,2,1,0,32,7,7,1,529,569,40,138,0,500,200,8000,"[(512, 384), (512, 384), (512, 384), (512, 384), (512, 384), (512, 384), (512, 384), (512, 384), (512, 384), (512, 384), (512, 384), (512, 384), (512, 384), (512, 384), (512, 384), (512, 384), (512, 384), (512, 384), (512, 384), (512, 384), (512, 384), (512, 384), (512, 384), (512, 384), (512, 384), (512, 384), (512, 384), (512, 384), (512, 384), (512, 384), (512, 384), (512, 384), (512, 384), (512, 384), (512, 384), (512, 384), (512, 384), (512, 384), (512, 384), (512, 384), (512, 384), (512, 384), (512, 384), (512, 384), (512, 384), (512, 384), (512, 384), (512, 384), (569, 409), (610, 430), (658, 453), (696, 469), (773, 503)]",24.510077981889356,"[7, 1, 4, 3, 6, 8, 5, 9, 2]","(0, 0.25)",THI009A,THI,A,Chinese,Tue Oct  9 17:21:46 2018,Mouse
2,2,1,0,33,3,4,0,-1260,489,50,137,0,500,200,8000,"[(512, 384), (512, 384), (512, 384), (512, 384), (512, 384), (512, 384), (512, 384), (512, 384), (512, 384), (512, 384), (512, 384), (512, 384), (512, 384), (512, 384), (512, 384), (512, 384), (512, 384), (512, 384), (512, 384), (512, 384), (512, 384), (512, 384), (512, 384), (512, 384), (512, 384), (512, 384), (512, 384), (512, 384), (512, 384), (512, 384), (512, 384), (512, 384), (512, 384), (512, 384), (512, 384), (512, 384), (512, 384), (512, 384), (512, 384), (512, 384), (512, 384), (512, 384), (512, 384), (512, 384), (512, 384), (512, 384), (512, 384), (512, 384), (512, 384), (512, 384), (512, 384), (512, 384), (512, 384), (512, 384), (512, 384), (512, 384), (512, 384), (512, 384), (512, 384), (512, 384), (512, 384), (512, 384), (512, 384), (512, 384), (512, 384), (512, 384), (512, 384), (512, 384), (512, 384), (512, 384), (512, 384), (512, 384), (512, 384), (512, 384), (512, 384), (512, 384), (512, 384), (512, 384), (512, 384), (512, 384), (512, 384), (512, 384), (512, 384), (512, 384), (512, 384), (512, 384), (512, 384), (512, 384), (512, 384), (512, 384), (512, 384), (512, 384), (512, 384), (512, 384), (512, 384), (512, 384), (512, 384), (512, 384), (512, 384), (512, 384), (512, 384), (512, 384), (512, 384), (512, 384), (512, 384), (512, 384), (512, 384), (512, 384), (512, 384), (512, 384), (512, 384), (512, 384), (512, 384), (512, 384), (512, 384), (512, 384), (512, 384), (512, 384), (512, 384), (512, 384), (509, 388), (496, 409), (483, 438), (437, 528), (406, 577), (377, 627)]",119.05460409907714,"[7, 1, 4, 3, 6, 8, 5, 9, 2]","(0, 0.25)",THI009A,THI,A,Chinese,Tue Oct  9 17:21:46 2018,Mouse
2,2,1,0,34,8,8,1,291,1210,170,138,0,500,200,8000,"[(512, 384), (512, 384), (512, 384), (512, 384), (512, 384), (512, 384), (512, 384), (512, 384), (512, 384), (512, 384), (512, 384), (512, 384), (512, 385), (512, 385), (511, 385), (510, 382), (507, 381), (504, 380), (500, 378), (498, 377), (497, 377), (496, 377), (494, 375), (491, 374), (484, 372), (475, 367), (432, 344), (432, 344), (309, 291), (247, 266)]",204.00259801913808,"[7, 1, 4, 3, 6, 8, 5, 9, 2]","(0, 0.25)",THI009A,THI,A,Chinese,Tue Oct  9 17:21:46 2018,Mouse
2,2,1,0,35,6,7,0,-720,121,60,138,0,500,200,8000,"[(512, 384), (512, 384), (512, 384), (512, 384), (512, 384), (512, 384), (512, 384), (512, 384), (512, 384), (512, 384), (512, 384), (512, 384), (512, 384), (512, 384), (512, 384), (512, 384), (512, 384), (512, 384), (512, 384), (512, 384), (512, 384), (512, 384), (512, 384), (512, 384), (512, 384), (512, 384), (512, 384), (512, 384), (512, 384), (512, 384), (512, 384), (512, 384), (512, 384), (512, 384), (512, 384), (512, 384), (512, 384), (512, 384), (512, 384), (512, 384), (512, 384), (512, 384), (512, 384), (512, 384), (512, 384), (512, 384), (512, 384), (512, 384), (512, 384), (512, 384), (512, 384), (512, 384), (512, 384), (512, 384), (512, 384), (512, 384), (512, 384), (512, 384), (512, 384), (512, 384), (512, 384), (512, 384), (512, 384), (512, 384), (512, 384), (513, 386), (532, 398), (566, 410), (656, 446), (702, 465), (741, 480), (781, 498)]",22.966833568345475,"[7, 1, 4, 3, 6, 8, 5, 9, 2]","(0, 0.25)",THI009A,THI,A,Chinese,Tue Oct  9 17:21:46 2018,Mouse
2,2,1,0,36,3,9,0,-2720,660,30,139,0,500,200,8000,"[(512, 384), (512, 384), (512, 384), (512, 384), (512, 384), (512, 384), (512, 384), (512, 384), (512, 384), (512, 384), (512, 384), (512, 384), (512, 384), (512, 384), (512, 384), (512, 384), (512, 384), (512, 384), (512, 384), (512, 384), (512, 384), (512, 384), (512, 384), (512, 384), (512, 384), (512, 384), (512, 384), (512, 384), (512, 384), (512, 384), (512, 384), (512, 384), (512, 384), (512, 384), (512, 384), (512, 384), (512, 384), (512, 384), (512, 384), (512, 384), (512, 384), (512, 384), (512, 384), (512, 384), (512, 384), (512, 384), (512, 384), (512, 384), (512, 384), (512, 384), (512, 384), (512, 384), (512, 384), (512, 384), (512, 384), (512, 384), (512, 384), (512, 384), (512, 384), (512, 384), (512, 384), (512, 384), (512, 384), (512, 384), (512, 384), (512, 384), (512, 384), (512, 384), (512, 384), (512, 384), (512, 384), (512, 384), (512, 384), (512, 384), (512, 384), (512, 384), (512, 384), (512, 384), (512, 384), (512, 384), (512, 384), (512, 384), (512, 384), (512, 384), (512, 384), (512, 384), (512, 384), (512, 384), (512, 384), (512, 384), (512, 384), (512, 384), (512, 384), (512, 384), (512, 384), (512, 384), (512, 384), (512, 384), (512, 384), (512, 384), (512, 384), (512, 384), (512, 384), (512, 384), (512, 384), (512, 384), (512, 384), (512, 384), (512, 384), (512, 384), (512, 384), (512, 384), (512, 384), (512, 384), (512, 384), (512, 384), (512, 384), (512, 384), (512, 384), (512, 384), (512, 384), (512, 384), (512, 384), (512, 384), (512, 384), (512, 384), (512, 384), (512, 384), (512, 384), (512, 384), (512, 384), (512, 384), (512, 384), (512, 384), (512, 384), (512, 384), (512, 384), (512, 384), (512, 384), (512, 384), (512, 384), (512, 384), (512, 384), (512, 384), (512, 384), (512, 384), (512, 384), (512, 384), (512, 384), (512, 384), (512, 384), (512, 384), (512, 384), (512, 384), (512, 384), (512, 384), (512, 384), (512, 384), (512, 384), (512, 384), (512, 384), (512, 384), (512, 384), (512, 384), (512, 384), (512, 384), (512, 384), (512, 384), (512, 384), (512, 384), (512, 384), (512, 384), (512, 384), (512, 384), (512, 384), (512, 384), (512, 384), (512, 384), (512, 384), (512, 384), (512, 384), (512, 384), (512, 384), (512, 384), (512, 384), (512, 384), (512, 384), (512, 384), (512, 384), (512, 384), (512, 384), (512, 384), (512, 384), (512, 384), (512, 384), (512, 384), (512, 384), (512, 384), (512, 384), (512, 384), (512, 384), (512, 384), (512, 384), (512, 384), (512, 384), (512, 384), (512, 384), (512, 384), (512, 384), (512, 384), (512, 384), (512, 384), (512, 384), (512, 384), (512, 384), (512, 384), (512, 384), (512, 384), (512, 384), (512, 384), (512, 384), (512, 384), (512, 384), (512, 384), (512, 384), (512, 384), (512, 384), (512, 384), (512, 384), (512, 384), (512, 384), (512, 384), (512, 384), (512, 384), (512, 384), (512, 384), (512, 384), (512, 384), (512, 384), (512, 384), (512, 384), (512, 384), (512, 384), (512, 384), (512, 384), (512, 384), (512, 384), (512, 384), (512, 384), (512, 384), (512, 384), (512, 384), (512, 384), (512, 384), (512, 384), (512, 384), (512, 384), (512, 384), (512, 384), (512, 384), (512, 384), (512, 384), (512, 384), (512, 384), (512, 384), (512, 384), (512, 384), (512, 384), (522, 359), (563, 306), (606, 260), (674, 183)]",308.8677775023207,"[7, 1, 4, 3, 6, 8, 5, 9, 2]","(0, 0.25)",THI009A,THI,A,Chinese,Tue Oct  9 17:21:46 2018,Mouse
2,2,1,0,37,2,2,1,1299,2690,30,140,0,500,200,8000,"[(512, 384), (512, 384), (512, 384), (512, 384), (512, 384), (512, 384), (512, 384), (512, 384), (512, 384), (512, 384), (512, 384), (512, 384), (512, 384), (512, 384), (512, 384), (512, 384), (512, 384), (512, 384), (512, 384), (512, 384), (512, 384), (512, 384), (512, 384), (512, 384), (512, 384), (512, 384), (512, 384), (512, 384), (512, 384), (512, 384), (512, 384), (512, 384), (512, 384), (512, 384), (512, 384), (512, 384), (512, 384), (512, 384), (512, 384), (512, 384), (512, 384), (512, 384), (512, 384), (512, 384), (512, 384), (512, 384), (512, 384), (512, 384), (512, 384), (512, 384), (512, 384), (512, 384), (512, 384), (512, 384), (512, 384), (512, 384), (512, 384), (512, 384), (512, 384), (512, 384), (512, 384), (512, 384), (512, 384), (512, 384), (512, 384), (512, 384), (512, 384), (512, 384), (512, 384), (512, 384), (512, 384), (512, 384), (512, 384), (512, 384), (512, 384), (512, 384), (512, 384), (512, 384), (512, 384), (512, 384), (512, 384), (512, 384), (512, 384), (512, 384), (512, 384), (512, 384), (512, 384), (512, 384), (512, 384), (512, 384), (512, 384), (512, 384), (512, 384), (512, 384), (512, 384), (512, 384), (512, 384), (512, 384), (512, 384), (512, 384), (512, 384), (512, 384), (512, 384), (512, 384), (512, 384), (512, 384), (512, 384), (512, 384), (512, 384), (512, 384), (512, 384), (512, 384), (512, 384), (512, 384), (512, 384), (512, 384), (512, 384), (512, 384), (512, 384), (512, 384), (512, 384), (512, 384), (512, 384), (512, 384), (512, 384), (512, 384), (530, 379), (590, 349), (724, 276), (797, 243)]",333.6767017321901,"[7, 1, 4, 3, 6, 8, 5, 9, 2]","(0, 0.25)",THI009A,THI,A,Chinese,Tue Oct  9 17:21:46 2018,Mouse
2,2,1,0,38,2,2,1,310,1269,40,140,0,500,200,8000,"[(512, 384), (512, 384), (512, 384), (512, 384), (512, 384), (512, 384), (512, 384), (512, 384), (512, 384), (512, 384), (512, 384), (512, 384), (512, 384), (512, 384), (512, 384), (512, 384), (512, 384), (512, 384), (512, 384), (512, 384), (512, 384), (512, 384), (512, 384), (512, 384), (512, 384), (512, 384), (518, 384), (558, 362), (628, 326), (694, 287), (818, 233)]",333.73531713027154,"[7, 1, 4, 3, 6, 8, 5, 9, 2]","(0, 0.25)",THI009A,THI,A,Chinese,Tue Oct  9 17:21:46 2018,Mouse
2,2,1,0,39,5,6,0,-1081,270,50,139,0,500,200,8000,"[(512, 384), (512, 384), (512, 384), (512, 384), (512, 384), (512, 384), (512, 384), (512, 384), (512, 384), (512, 384), (512, 384), (512, 384), (512, 384), (512, 384), (512, 384), (512, 384), (512, 384), (512, 384), (512, 384), (512, 384), (512, 384), (512, 384), (512, 384), (512, 384), (512, 384), (512, 384), (512, 384), (512, 384), (512, 384), (512, 384), (512, 384), (512, 384), (512, 384), (512, 384), (512, 384), (512, 384), (512, 384), (512, 384), (512, 384), (512, 384), (512, 384), (512, 384), (512, 384), (512, 384), (512, 384), (512, 384), (512, 384), (512, 384), (512, 384), (512, 384), (512, 384), (512, 384), (512, 384), (512, 384), (512, 384), (512, 384), (512, 384), (512, 384), (512, 384), (512, 384), (512, 384), (512, 384), (512, 384), (512, 384), (512, 384), (512, 384), (512, 384), (512, 384), (512, 384), (512, 384), (512, 384), (512, 384), (512, 384), (512, 384), (512, 384), (512, 384), (512, 384), (512, 384), (512, 384), (512, 384), (512, 384), (512, 384), (512, 384), (512, 384), (512, 384), (512, 384), (512, 384), (512, 384), (512, 384), (512, 384), (512, 384), (512, 384), (512, 384), (512, 384), (512, 384), (512, 384), (512, 384), (512, 384), (512, 384), (512, 384), (512, 384), (512, 384), (511, 384), (497, 386), (469, 391), (420, 399), (354, 401), (223, 405)]",175.84394339872358,"[7, 1, 4, 3, 6, 8, 5, 9, 2]","(0, 0.25)",THI009A,THI,A,Chinese,Tue Oct  9 17:21:46 2018,Mouse
2,2,1,0,40,3,7,0,-760,1031,310,140,0,500,200,8000,"[(512, 384), (512, 384), (512, 384), (512, 384), (512, 384), (512, 384), (512, 384), (512, 384), (512, 384), (512, 384), (512, 384), (512, 384), (512, 384), (512, 384), (512, 384), (512, 384), (512, 384), (512, 384), (512, 384), (512, 384), (512, 384), (512, 384), (512, 384), (512, 384), (512, 384), (512, 384), (512, 384), (512, 384), (512, 384), (512, 384), (512, 384), (512, 384), (512, 384), (512, 384), (512, 384), (512, 384), (512, 384), (512, 384), (512, 384), (512, 384), (512, 384), (512, 384), (512, 384), (512, 384), (513, 384), (513, 384), (513, 384), (513, 384), (513, 384), (513, 384), (513, 384), (513, 384), (513, 384), (513, 384), (513, 384), (513, 384), (513, 384), (513, 384), (513, 384), (513, 384), (513, 384), (513, 384), (513, 384), (513, 384), (513, 384), (513, 384), (513, 384), (513, 384), (513, 384), (513, 384), (513, 384), (530, 382), (580, 402), (629, 424), (675, 450), (748, 485)]",23.169283212105427,"[7, 1, 4, 3, 6, 8, 5, 9, 2]","(0, 0.25)",THI009A,THI,A,Chinese,Tue Oct  9 17:21:46 2018,Mouse
2,2,1,0,41,5,1,0,-3150,450,50,141,0,500,200,8000,"[(512, 384), (512, 384), (512, 384), (512, 384), (512, 384), (512, 384), (512, 384), (512, 384), (512, 384), (512, 384), (512, 384), (512, 384), (512, 384), (512, 384), (512, 384), (512, 384), (512, 384), (512, 384), (512, 384), (512, 384), (512, 384), (512, 384), (512, 384), (512, 384), (512, 384), (512, 384), (512, 384), (512, 384), (512, 384), (512, 384), (512, 384), (512, 384), (512, 384), (512, 384), (512, 384), (512, 384), (512, 384), (512, 384), (512, 384), (512, 384), (512, 384), (512, 384), (512, 384), (512, 384), (512, 384), (512, 384), (512, 384), (512, 384), (512, 384), (512, 384), (512, 384), (512, 384), (512, 384), (512, 384), (512, 384), (512, 384), (512, 384), (512, 384), (512, 384), (512, 384), (512, 384), (512, 384), (512, 384), (512, 384), (512, 384), (512, 384), (512, 384), (512, 384), (512, 384), (512, 384), (512, 384), (512, 384), (512, 384), (512, 384), (512, 384), (512, 384), (512, 384), (512, 384), (512, 384), (512, 384), (512, 384), (512, 384), (512, 384), (512, 384), (512, 384), (512, 384), (512, 384), (512, 384), (512, 384), (512, 384), (512, 384), (512, 384), (512, 384), (512, 384), (512, 384), (512, 384), (512, 384), (512, 384), (512, 384), (512, 384), (512, 384), (512, 384), (512, 384), (512, 384), (512, 384), (512, 384), (512, 384), (512, 384), (512, 384), (512, 384), (512, 384), (512, 384), (512, 384), (512, 384), (512, 384), (512, 384), (512, 384), (512, 384), (512, 384), (512, 384), (512, 384), (512, 384), (512, 384), (512, 384), (512, 384), (512, 384), (512, 384), (512, 384), (512, 384), (512, 384), (512, 384), (512, 384), (512, 384), (512, 384), (512, 384), (512, 384), (512, 384), (512, 384), (512, 384), (512, 384), (512, 384), (512, 384), (512, 384), (512, 384), (512, 384), (512, 384), (512, 384), (512, 384), (512, 384), (512, 384), (512, 384), (512, 384), (512, 384), (512, 384), (512, 384), (512, 384), (512, 384), (512, 384), (512, 384), (512, 384), (512, 384), (512, 384), (512, 384), (512, 384), (512, 384), (512, 384), (512, 384), (512, 384), (512, 384), (512, 384), (512, 384), (512, 384), (512, 384), (512, 384), (512, 384), (512, 384), (512, 384), (512, 384), (512, 384), (512, 384), (512, 384), (512, 384), (512, 384), (512, 384), (512, 384), (512, 384), (512, 384), (512, 384), (512, 384), (512, 384), (512, 384), (512, 384), (512, 384), (512, 384), (512, 384), (512, 384), (512, 384), (512, 384), (512, 384), (512, 384), (512, 384), (512, 384), (512, 384), (512, 384), (512, 384), (512, 384), (512, 384), (512, 384), (512, 384), (512, 384), (512, 384), (512, 384), (512, 384), (512, 384), (512, 384), (512, 384), (512, 384), (512, 384), (512, 384), (512, 384), (512, 384), (512, 384), (512, 384), (512, 384), (512, 384), (512, 384), (512, 384), (512, 384), (512, 384), (512, 384), (512, 384), (512, 384), (512, 384), (512, 384), (512, 384), (512, 384), (512, 384), (512, 384), (512, 384), (512, 384), (512, 384), (512, 384), (512, 384), (512, 384), (512, 384), (512, 384), (512, 384), (512, 384), (512, 384), (512, 384), (512, 384), (512, 384), (512, 384), (512, 384), (512, 384), (512, 384), (512, 384), (512, 384), (512, 384), (512, 384), (512, 384), (512, 384), (512, 384), (512, 384), (512, 384), (512, 384), (512, 384), (512, 384), (512, 384), (512, 384), (512, 384), (512, 384), (512, 384), (512, 384), (512, 384), (512, 384), (512, 384), (512, 384), (512, 384), (512, 384), (512, 384), (512, 384), (512, 384), (512, 384), (512, 384), (512, 384), (512, 384), (512, 384), (512, 384), (512, 384), (512, 384), (512, 384), (512, 384), (512, 384), (512, 384), (512, 384), (512, 384), (512, 384), (512, 384), (512, 384), (512, 384), (512, 384), (512, 384), (512, 384), (512, 384), (512, 384), (512, 384), (512, 384), (512, 384), (519, 389), (537, 419), (592, 497), (615, 538), (640, 571), (662, 602)]",55.469174257711416,"[7, 1, 4, 3, 6, 8, 5, 9, 2]","(0, 0.25)",THI009A,THI,A,Chinese,Tue Oct  9 17:21:46 2018,Mouse
2,2,1,0,42,1,1,1,650,3100,40,142,0,500,200,8000,"[(512, 384), (512, 384), (512, 384), (512, 384), (512, 384), (512, 384), (512, 384), (512, 384), (512, 384), (512, 384), (512, 384), (512, 384), (512, 384), (512, 384), (512, 384), (512, 384), (512, 384), (512, 384), (512, 384), (512, 384), (512, 384), (512, 384), (512, 384), (512, 384), (512, 384), (512, 384), (512, 384), (512, 384), (512, 384), (512, 384), (512, 384), (512, 384), (512, 384), (512, 384), (512, 384), (512, 384), (512, 384), (512, 384), (512, 384), (512, 384), (512, 384), (512, 384), (512, 384), (512, 384), (512, 384), (512, 384), (512, 384), (512, 384), (512, 384), (512, 384), (512, 384), (512, 384), (512, 384), (512, 384), (512, 384), (512, 384), (512, 384), (512, 384), (512, 384), (512, 384), (514, 407), (535, 445), (561, 489), (590, 526), (649, 595)]",57.00477555772111,"[7, 1, 4, 3, 6, 8, 5, 9, 2]","(0, 0.25)",THI009A,THI,A,Chinese,Tue Oct  9 17:21:46 2018,Mouse
2,2,1,0,43,1,1,1,299,610,100,142,0,500,200,8000,"[(512, 384), (512, 384), (512, 384), (512, 384), (512, 384), (512, 384), (512, 384), (512, 384), (512, 384), (512, 384), (512, 384), (512, 384), (512, 384), (512, 384), (512, 384), (512, 384), (512, 384), (512, 384), (512, 384), (511, 384), (511, 388), (512, 394), (514, 403), (521, 423), (526, 437), (539, 461), (554, 491), (580, 569), (594, 614), (605, 655)]",71.05914132737385,"[7, 1, 4, 3, 6, 8, 5, 9, 2]","(0, 0.25)",THI009A,THI,A,Chinese,Tue Oct  9 17:21:46 2018,Mouse
2,2,1,0,44,1,1,1,339,199,50,141,0,500,200,8000,"[(512, 384), (512, 384), (512, 384), (512, 384), (512, 384), (512, 384), (512, 384), (512, 384), (512, 384), (512, 384), (512, 384), (512, 384), (512, 384), (512, 384), (512, 384), (512, 384), (512, 384), (512, 384), (512, 384), (512, 384), (512, 384), (512, 384), (512, 384), (512, 384), (512, 384), (512, 384), (512, 384), (512, 384), (512, 389), (536, 442), (563, 479), (587, 512), (617, 552), (678, 628)]",55.77145416019802,"[7, 1, 4, 3, 6, 8, 5, 9, 2]","(0, 0.25)",THI009A,THI,A,Chinese,Tue Oct  9 17:21:46 2018,Mouse
2,2,1,0,45,8,8,1,941,289,70,140,0,500,200,8000,"[(512, 384), (512, 384), (512, 384), (512, 384), (512, 384), (512, 384), (512, 384), (512, 384), (512, 384), (512, 384), (512, 384), (512, 384), (512, 384), (512, 384), (512, 384), (512, 384), (512, 384), (512, 384), (512, 384), (512, 384), (512, 384), (512, 384), (512, 384), (512, 384), (512, 384), (512, 384), (512, 384), (512, 384), (512, 384), (512, 384), (512, 384), (512, 384), (512, 384), (512, 384), (512, 384), (512, 384), (512, 384), (512, 384), (512, 384), (512, 384), (512, 384), (512, 384), (512, 384), (512, 384), (512, 384), (512, 384), (512, 384), (512, 384), (512, 384), (512, 384), (512, 384), (512, 384), (512, 384), (512, 384), (512, 384), (512, 384), (512, 384), (512, 384), (512, 384), (512, 384), (512, 384), (512, 384), (512, 384), (512, 384), (512, 384), (512, 384), (512, 384), (512, 384), (512, 384), (512, 384), (512, 384), (512, 384), (512, 384), (512, 384), (512, 384), (512, 384), (512, 384), (512, 384), (512, 384), (512, 384), (512, 384), (512, 384), (512, 384), (512, 384), (512, 384), (512, 384), (512, 384), (508, 384), (489, 372), (479, 361), (467, 352), (447, 331), (383, 285), (342, 264), (301, 240)]",214.31214709296813,"[7, 1, 4, 3, 6, 8, 5, 9, 2]","(0, 0.25)",THI009A,THI,A,Chinese,Tue Oct  9 17:21:46 2018,Mouse
2,2,1,0,46,1,1,1,300,871,40,139,0,500,200,8000,"[(512, 384), (512, 384), (512, 384), (512, 384), (512, 384), (512, 384), (512, 384), (512, 384), (512, 384), (512, 384), (512, 384), (512, 384), (512, 384), (512, 384), (512, 384), (512, 384), (512, 384), (512, 384), (512, 384), (512, 384), (512, 384), (512, 384), (512, 384), (512, 384), (512, 384), (514, 399), (542, 433), (572, 465), (616, 511), (692, 597)]",49.7998361139047,"[7, 1, 4, 3, 6, 8, 5, 9, 2]","(0, 0.25)",THI009A,THI,A,Chinese,Tue Oct  9 17:21:46 2018,Mouse
2,2,1,0,47,6,1,0,-750,260,170,138,0,500,200,8000,"[(512, 384), (512, 384), (512, 384), (512, 384), (512, 384), (512, 384), (512, 384), (512, 384), (512, 384), (512, 384), (512, 384), (512, 384), (512, 384), (512, 384), (512, 384), (512, 384), (512, 384), (512, 384), (512, 384), (512, 384), (512, 384), (512, 384), (512, 384), (512, 384), (512, 384), (512, 384), (512, 384), (512, 384), (512, 384), (512, 384), (512, 384), (512, 384), (512, 384), (512, 384), (512, 384), (512, 384), (512, 384), (512, 384), (512, 384), (512, 384), (512, 384), (512, 384), (512, 384), (512, 384), (512, 384), (512, 384), (512, 384), (512, 384), (512, 384), (512, 384), (512, 384), (512, 384), (512, 384), (512, 384), (512, 384), (512, 384), (512, 384), (512, 383), (512, 383), (512, 383), (512, 383), (512, 383), (512, 383), (512, 383), (512, 383), (512, 383), (512, 383), (512, 383), (512, 387), (512, 410), (523, 436), (556, 518), (575, 556), (596, 597), (615, 632)]",67.44578472762754,"[7, 1, 4, 3, 6, 8, 5, 9, 2]","(0, 0.25)",THI009A,THI,A,Chinese,Tue Oct  9 17:21:46 2018,Mouse
2,2,1,0,48,9,9,1,2099,580,859,139,0,500,200,8000,"[(512, 384), (512, 384), (512, 384), (512, 384), (512, 384), (512, 384), (512, 384), (512, 384), (512, 384), (512, 384), (512, 384), (512, 384), (512, 384), (512, 384), (512, 384), (512, 384), (512, 384), (512, 384), (512, 384), (512, 384), (512, 384), (512, 384), (512, 384), (512, 384), (512, 384), (512, 384), (512, 384), (512, 384), (512, 384), (512, 384), (512, 384), (512, 384), (512, 384), (512, 384), (512, 384), (512, 384), (512, 384), (512, 384), (512, 384), (512, 384), (512, 384), (512, 384), (512, 384), (512, 384), (512, 384), (512, 384), (512, 384), (512, 384), (512, 384), (512, 384), (512, 384), (512, 384), (512, 384), (512, 384), (512, 384), (512, 384), (512, 384), (512, 384), (512, 384), (512, 384), (512, 384), (512, 384), (512, 384), (512, 384), (512, 384), (512, 384), (512, 384), (512, 384), (512, 384), (512, 384), (512, 384), (512, 384), (512, 384), (512, 384), (512, 384), (512, 384), (512, 384), (512, 384), (512, 384), (512, 384), (512, 384), (512, 384), (512, 384), (512, 384), (512, 384), (512, 384), (512, 384), (512, 384), (512, 384), (512, 384), (512, 384), (512, 384), (512, 384), (512, 384), (512, 384), (512, 384), (512, 384), (512, 384), (512, 384), (512, 384), (512, 384), (512, 384), (512, 384), (512, 384), (512, 384), (512, 384), (512, 384), (512, 384), (512, 384), (512, 384), (512, 384), (512, 384), (512, 384), (512, 384), (512, 384), (512, 384), (512, 384), (512, 384), (512, 384), (512, 384), (512, 384), (512, 384), (512, 384), (510, 386), (497, 404), (490, 414), (486, 422), (483, 426), (482, 428), (482, 429), (482, 429), (482, 429), (482, 429), (482, 429), (482, 429), (482, 429), (482, 429), (482, 429), (482, 429), (482, 429), (482, 429), (482, 429), (482, 429), (482, 429), (482, 429), (482, 429), (482, 429), (482, 429), (482, 429), (482, 429), (482, 429), (482, 429), (482, 429), (482, 429), (482, 429), (482, 429), (482, 429), (482, 429), (482, 429), (482, 429), (482, 429), (482, 429), (482, 429), (482, 429), (482, 429), (482, 429), (482, 429), (482, 429), (482, 429), (482, 429), (482, 429), (482, 429), (482, 429), (482, 429), (482, 429), (482, 429), (482, 429), (482, 429), (482, 429), (482, 429), (482, 429), (482, 429), (482, 429), (482, 429), (482, 429), (482, 429), (482, 429), (482, 429), (482, 429), (482, 429), (482, 429), (482, 429), (482, 429), (482, 429), (482, 429), (482, 429), (482, 429), (482, 429), (482, 429), (484, 426), (489, 418), (496, 410), (505, 400), (510, 391), (533, 359), (550, 334), (570, 301), (594, 270), (648, 192), (673, 158)]",305.46566805253707,"[7, 1, 4, 3, 6, 8, 5, 9, 2]","(0, 0.25)",THI009A,THI,A,Chinese,Tue Oct  9 17:21:46 2018,Mouse
2,2,1,0,49,8,7,0,-1229,1240,60,139,0,500,200,8000,"[(512, 384), (512, 384), (512, 384), (512, 384), (512, 384), (512, 384), (512, 384), (512, 384), (512, 384), (512, 384), (512, 384), (512, 384), (512, 384), (512, 384), (512, 384), (512, 384), (512, 384), (512, 384), (512, 384), (512, 384), (512, 384), (512, 384), (512, 384), (512, 384), (512, 384), (512, 384), (512, 384), (512, 384), (512, 384), (512, 384), (512, 384), (512, 384), (512, 384), (512, 384), (512, 384), (512, 384), (512, 384), (512, 384), (512, 384), (512, 384), (512, 384), (512, 384), (512, 384), (512, 384), (512, 384), (512, 384), (512, 384), (512, 384), (512, 384), (512, 384), (512, 384), (512, 384), (512, 384), (512, 384), (512, 384), (512, 384), (512, 384), (512, 384), (512, 384), (512, 384), (512, 384), (512, 384), (512, 384), (512, 384), (512, 384), (512, 384), (512, 384), (512, 384), (512, 384), (512, 384), (512, 384), (512, 384), (512, 384), (512, 384), (512, 384), (512, 384), (512, 384), (512, 384), (512, 384), (512, 384), (512, 384), (512, 384), (512, 384), (512, 384), (512, 384), (512, 384), (512, 384), (512, 384), (512, 384), (512, 384), (512, 384), (512, 384), (512, 384), (512, 384), (512, 384), (512, 384), (512, 384), (512, 384), (512, 384), (512, 384), (512, 384), (512, 384), (512, 384), (512, 384), (512, 384), (512, 384), (512, 384), (512, 384), (512, 384), (512, 384), (512, 384), (512, 384), (512, 384), (512, 384), (512, 384), (512, 384), (516, 394), (516, 394), (637, 455), (677, 476), (689, 482), (726, 496), (825, 522)]",23.792421858974695,"[7, 1, 4, 3, 6, 8, 5, 9, 2]","(0, 0.25)",THI009A,THI,A,Chinese,Tue Oct  9 17:21:46 2018,Mouse
2,2,1,0,50,9,9,1,940,1169,50,140,0,500,200,8000,"[(512, 384), (512, 384), (512, 384), (512, 384), (512, 384), (512, 384), (512, 384), (512, 384), (512, 384), (512, 384), (512, 384), (512, 384), (512, 384), (512, 384), (512, 384), (512, 384), (512, 384), (512, 384), (512, 384), (512, 384), (512, 384), (512, 384), (512, 384), (512, 384), (512, 384), (512, 384), (512, 384), (512, 384), (512, 384), (512, 384), (512, 384), (512, 384), (512, 384), (512, 384), (512, 384), (512, 384), (512, 384), (512, 384), (512, 384), (512, 384), (512, 384), (512, 384), (512, 384), (512, 384), (512, 384), (512, 384), (512, 384), (512, 384), (512, 384), (512, 384), (512, 384), (512, 384), (512, 384), (512, 384), (512, 384), (512, 384), (512, 384), (512, 384), (512, 384), (512, 384), (512, 384), (512, 384), (512, 384), (512, 384), (512, 384), (512, 384), (512, 384), (512, 384), (512, 384), (512, 384), (512, 384), (512, 384), (512, 384), (512, 384), (512, 384), (512, 384), (512, 384), (512, 384), (512, 384), (512, 384), (512, 384), (512, 384), (512, 384), (512, 384), (512, 384), (512, 384), (512, 384), (512, 384), (512, 379), (519, 359), (535, 314), (580, 229), (604, 193), (631, 157)]",297.66483506664974,"[7, 1, 4, 3, 6, 8, 5, 9, 2]","(0, 0.25)",THI009A,THI,A,Chinese,Tue Oct  9 17:21:46 2018,Mouse
2,2,1,0,51,1,1,1,660,890,50,140,0,500,200,8000,"[(512, 384), (512, 384), (512, 384), (512, 384), (512, 384), (512, 384), (512, 384), (512, 384), (512, 384), (512, 384), (512, 384), (512, 384), (512, 384), (512, 384), (512, 384), (512, 384), (512, 384), (512, 384), (512, 384), (512, 384), (512, 384), (512, 384), (512, 384), (512, 384), (512, 384), (512, 384), (512, 384), (512, 384), (512, 384), (512, 384), (512, 384), (512, 384), (512, 384), (512, 384), (512, 384), (512, 384), (512, 384), (512, 384), (512, 384), (512, 384), (512, 384), (512, 384), (512, 384), (512, 384), (512, 384), (512, 384), (512, 384), (512, 384), (512, 384), (512, 384), (512, 384), (512, 384), (512, 384), (512, 384), (512, 384), (512, 384), (512, 384), (512, 384), (512, 384), (512, 384), (515, 398), (550, 476), (564, 523), (583, 569), (595, 615), (632, 703)]",69.38492755592195,"[7, 1, 4, 3, 6, 8, 5, 9, 2]","(0, 0.25)",THI009A,THI,A,Chinese,Tue Oct  9 17:21:46 2018,Mouse
2,2,1,0,52,3,3,1,2740,610,40,139,0,500,200,8000,"[(512, 384), (512, 384), (512, 384), (512, 384), (512, 384), (512, 384), (512, 384), (512, 384), (512, 384), (512, 384), (512, 384), (512, 384), (512, 384), (512, 384), (512, 384), (512, 384), (512, 384), (512, 384), (512, 384), (512, 384), (512, 384), (512, 384), (512, 384), (512, 384), (512, 384), (512, 384), (512, 384), (512, 384), (512, 384), (512, 384), (512, 384), (512, 384), (512, 384), (512, 384), (512, 384), (512, 384), (512, 384), (512, 384), (512, 384), (512, 384), (512, 384), (512, 384), (512, 384), (512, 384), (512, 384), (512, 384), (512, 384), (512, 384), (512, 384), (512, 384), (512, 384), (512, 384), (512, 384), (512, 384), (512, 384), (512, 384), (512, 384), (512, 384), (512, 384), (512, 384), (512, 384), (512, 384), (512, 384), (512, 384), (512, 384), (512, 384), (512, 384), (512, 384), (512, 384), (512, 384), (512, 384), (512, 384), (512, 384), (512, 384), (512, 384), (512, 384), (512, 384), (512, 384), (512, 384), (512, 384), (512, 384), (512, 384), (512, 384), (512, 384), (512, 384), (512, 384), (512, 384), (512, 384), (512, 384), (512, 384), (512, 384), (512, 384), (512, 384), (512, 384), (512, 384), (512, 384), (512, 384), (512, 384), (512, 384), (512, 384), (512, 384), (512, 384), (512, 384), (512, 384), (512, 384), (512, 384), (512, 384), (512, 384), (512, 384), (512, 384), (512, 384), (512, 384), (512, 384), (512, 384), (512, 384), (512, 384), (512, 384), (512, 384), (512, 384), (512, 384), (512, 384), (512, 384), (512, 384), (512, 384), (512, 384), (512, 384), (512, 384), (512, 384), (512, 384), (512, 384), (512, 384), (512, 384), (512, 384), (512, 384), (512, 384), (512, 384), (512, 384), (512, 384), (512, 384), (512, 384), (512, 384), (512, 384), (512, 384), (512, 384), (512, 384), (512, 384), (512, 384), (512, 384), (512, 384), (512, 384), (512, 384), (512, 384), (512, 384), (512, 384), (512, 384), (512, 384), (512, 384), (512, 384), (512, 384), (512, 384), (512, 384), (512, 384), (512, 384), (512, 384), (512, 384), (512, 384), (512, 384), (512, 384), (512, 384), (512, 384), (512, 384), (512, 384), (512, 384), (512, 384), (512, 384), (512, 384), (512, 384), (512, 384), (512, 384), (512, 384), (512, 384), (512, 384), (512, 384), (512, 384), (512, 384), (512, 384), (512, 384), (512, 384), (512, 384), (512, 384), (512, 384), (512, 384), (512, 384), (512, 384), (512, 384), (512, 384), (512, 384), (512, 384), (512, 384), (512, 384), (512, 384), (512, 384), (512, 384), (512, 384), (512, 384), (512, 384), (512, 384), (512, 384), (512, 384), (512, 384), (512, 384), (512, 384), (512, 384), (512, 384), (512, 384), (512, 384), (512, 384), (512, 384), (512, 384), (512, 384), (512, 384), (512, 384), (512, 384), (512, 384), (512, 384), (512, 384), (512, 384), (512, 384), (512, 384), (512, 384), (512, 384), (512, 384), (512, 384), (512, 384), (512, 384), (512, 384), (512, 384), (512, 384), (512, 384), (512, 384), (512, 384), (512, 384), (512, 384), (512, 384), (512, 384), (512, 384), (512, 384), (512, 384), (512, 384), (512, 384), (512, 384), (512, 384), (512, 384), (512, 384), (512, 384), (512, 384), (512, 384), (512, 384), (512, 384), (512, 384), (512, 384), (512, 384), (512, 384), (512, 384), (512, 384), (512, 384), (512, 384), (512, 384), (512, 384), (506, 389), (488, 409), (416, 492), (373, 545), (332, 588)]",131.42366562500266,"[7, 1, 4, 3, 6, 8, 5, 9, 2]","(0, 0.25)",THI009A,THI,A,Chinese,Tue Oct  9 17:21:46 2018,Mouse
2,2,1,0,53,4,9,0,-1679,2700,40,138,0,500,200,8000,"[(512, 384), (512, 384), (512, 384), (512, 384), (512, 384), (512, 384), (512, 384), (512, 384), (512, 384), (512, 384), (512, 384), (512, 384), (512, 384), (512, 384), (512, 384), (512, 384), (512, 384), (512, 384), (512, 384), (512, 384), (512, 384), (512, 384), (512, 384), (512, 384), (512, 384), (512, 384), (512, 384), (512, 384), (512, 384), (512, 384), (512, 384), (512, 384), (512, 384), (512, 384), (512, 384), (512, 384), (512, 384), (512, 384), (512, 384), (512, 384), (512, 384), (512, 384), (512, 384), (512, 384), (512, 384), (512, 384), (512, 384), (512, 384), (512, 384), (512, 384), (512, 384), (512, 384), (512, 384), (512, 384), (512, 384), (512, 384), (512, 384), (512, 384), (512, 384), (512, 384), (512, 384), (512, 384), (512, 384), (512, 384), (512, 384), (512, 384), (512, 384), (512, 384), (512, 384), (512, 384), (512, 384), (512, 384), (512, 384), (512, 384), (512, 384), (512, 384), (512, 384), (512, 384), (512, 384), (512, 384), (512, 384), (512, 384), (512, 384), (512, 384), (512, 384), (512, 384), (512, 384), (512, 384), (512, 384), (512, 384), (512, 384), (512, 384), (512, 384), (512, 384), (512, 384), (512, 384), (512, 384), (512, 384), (512, 384), (512, 384), (512, 384), (512, 384), (512, 384), (512, 384), (512, 384), (512, 384), (512, 384), (512, 384), (512, 384), (512, 384), (512, 384), (512, 384), (512, 384), (512, 384), (512, 384), (512, 384), (512, 384), (512, 384), (512, 384), (512, 384), (512, 384), (512, 384), (512, 384), (512, 384), (512, 384), (512, 384), (512, 384), (512, 384), (512, 384), (512, 384), (512, 384), (512, 384), (512, 384), (512, 384), (512, 384), (512, 384), (512, 384), (512, 384), (512, 384), (512, 384), (512, 384), (512, 384), (512, 384), (512, 384), (512, 384), (512, 384), (512, 384), (512, 384), (512, 384), (512, 384), (512, 384), (512, 384), (512, 384), (512, 384), (512, 384), (512, 384), (512, 384), (512, 384), (512, 384), (512, 384), (512, 384), (512, 384), (512, 384), (519, 364), (552, 317), (613, 223), (639, 194), (665, 157)]",303.98031721896547,"[7, 1, 4, 3, 6, 8, 5, 9, 2]","(0, 0.25)",THI009A,THI,A,Chinese,Tue Oct  9 17:21:46 2018,Mouse
2,2,1,0,54,2,2,1,739,1639,220,139,0,500,200,8000,"[(512, 384), (512, 384), (512, 384), (512, 384), (512, 384), (512, 384), (512, 384), (512, 384), (512, 384), (512, 384), (512, 384), (512, 384), (512, 384), (512, 384), (512, 384), (512, 384), (512, 384), (512, 384), (512, 384), (512, 384), (512, 384), (512, 384), (512, 384), (512, 384), (512, 384), (512, 384), (512, 384), (512, 384), (512, 384), (512, 384), (512, 384), (512, 384), (512, 384), (512, 384), (512, 384), (512, 384), (512, 384), (512, 384), (512, 384), (512, 384), (512, 384), (512, 384), (512, 384), (512, 384), (512, 384), (512, 384), (512, 384), (512, 384), (512, 384), (512, 384), (512, 384), (511, 384), (511, 384), (511, 384), (510, 384), (510, 384), (510, 384), (510, 384), (510, 384), (510, 384), (510, 384), (510, 384), (510, 384), (510, 384), (510, 384), (510, 384), (510, 384), (509, 384), (510, 381), (541, 369), (571, 360), (613, 349), (652, 336), (759, 309)]",343.10941621176596,"[7, 1, 4, 3, 6, 8, 5, 9, 2]","(0, 0.25)",THI009A,THI,A,Chinese,Tue Oct  9 17:21:46 2018,Mouse
2,2,1,0,55,8,8,1,501,519,70,139,0,500,200,8000,"[(512, 384), (512, 384), (512, 384), (512, 384), (512, 384), (512, 384), (512, 384), (512, 384), (512, 384), (512, 384), (512, 384), (512, 384), (512, 384), (512, 384), (512, 384), (512, 384), (512, 384), (512, 384), (512, 384), (512, 384), (512, 384), (512, 384), (512, 384), (512, 384), (512, 384), (512, 384), (512, 384), (512, 384), (512, 384), (512, 384), (512, 384), (512, 384), (512, 384), (512, 384), (512, 384), (512, 384), (512, 384), (512, 384), (512, 384), (512, 384), (512, 384), (512, 384), (512, 384), (509, 384), (485, 352), (468, 333), (450, 317), (428, 293), (386, 246), (356, 218), (333, 196)]",226.40479205003496,"[7, 1, 4, 3, 6, 8, 5, 9, 2]","(0, 0.25)",THI009A,THI,A,Chinese,Tue Oct  9 17:21:46 2018,Mouse
2,2,1,0,56,9,9,1,880,431,630,138,0,500,200,8000,"[(512, 384), (512, 384), (512, 384), (512, 384), (512, 384), (512, 384), (512, 384), (512, 384), (512, 384), (512, 384), (512, 384), (512, 384), (512, 384), (512, 384), (512, 384), (512, 384), (512, 384), (512, 384), (512, 384), (512, 384), (512, 384), (512, 384), (512, 384), (512, 384), (513, 384), (513, 384), (513, 384), (513, 384), (513, 384), (513, 384), (513, 384), (513, 384), (513, 384), (513, 384), (513, 384), (513, 384), (513, 384), (513, 384), (513, 384), (513, 384), (513, 384), (513, 384), (513, 384), (513, 384), (513, 384), (513, 384), (513, 384), (513, 384), (513, 384), (513, 384), (513, 384), (513, 384), (513, 384), (513, 384), (513, 384), (513, 384), (513, 384), (513, 384), (513, 384), (513, 384), (513, 384), (513, 384), (513, 384), (513, 384), (513, 384), (513, 384), (513, 384), (513, 384), (513, 384), (513, 384), (513, 384), (513, 384), (513, 384), (513, 384), (513, 384), (513, 384), (513, 384), (513, 384), (513, 384), (513, 384), (513, 384), (513, 384), (513, 384), (523, 381), (549, 347), (620, 259), (652, 217), (681, 168)]",308.03988950071306,"[7, 1, 4, 3, 6, 8, 5, 9, 2]","(0, 0.25)",THI009A,THI,A,Chinese,Tue Oct  9 17:21:46 2018,Mouse
2,2,1,0,57,7,7,1,1460,250,40,137,0,500,200,8000,"[(512, 384), (512, 384), (512, 384), (512, 384), (512, 384), (512, 384), (512, 384), (512, 384), (512, 384), (512, 384), (512, 384), (512, 384), (512, 384), (512, 384), (512, 384), (512, 384), (512, 384), (512, 384), (512, 384), (512, 384), (512, 384), (512, 384), (512, 384), (512, 384), (512, 384), (512, 384), (512, 384), (512, 384), (512, 384), (512, 384), (512, 384), (512, 384), (512, 384), (512, 384), (512, 384), (512, 384), (512, 384), (512, 384), (512, 384), (512, 384), (512, 384), (512, 384), (512, 384), (512, 384), (512, 384), (512, 384), (512, 384), (512, 384), (512, 384), (512, 384), (512, 384), (512, 384), (512, 384), (512, 384), (512, 384), (512, 384), (512, 384), (512, 384), (512, 384), (512, 384), (512, 384), (512, 384), (512, 384), (512, 384), (512, 384), (512, 384), (512, 384), (512, 384), (512, 384), (512, 384), (512, 384), (512, 384), (512, 384), (512, 384), (512, 384), (512, 384), (512, 384), (512, 384), (512, 384), (512, 384), (512, 384), (512, 384), (512, 384), (512, 384), (512, 384), (512, 384), (512, 384), (512, 384), (512, 384), (512, 384), (512, 384), (512, 384), (512, 384), (512, 384), (512, 384), (512, 384), (512, 384), (512, 384), (512, 384), (512, 384), (512, 384), (512, 384), (512, 384), (512, 384), (512, 384), (512, 384), (512, 384), (512, 384), (512, 384), (512, 384), (512, 384), (512, 384), (512, 384), (512, 384), (512, 384), (512, 384), (512, 384), (512, 384), (512, 384), (512, 384), (512, 384), (512, 384), (512, 384), (512, 384), (512, 384), (512, 384), (512, 384), (512, 384), (512, 384), (512, 384), (512, 384), (512, 384), (512, 384), (512, 384), (512, 384), (512, 384), (512, 384), (512, 384), (512, 384), (512, 384), (512, 384), (573, 414), (628, 450), (672, 476), (720, 511), (790, 564)]",32.92233083763577,"[7, 1, 4, 3, 6, 8, 5, 9, 2]","(0, 0.25)",THI009A,THI,A,Chinese,Tue Oct  9 17:21:46 2018,Mouse
