NativeLangNumber,LanuageNumber,SessionNumber,Block,TrialNum,ConditionNumber,Response,Accuracy,RT,MovementOnsetTime,TimeInMotion,SignalContrast,SignalContrastNumber,StimDisplayTime,MaskTime,MaxResponseTime,MousePositionXY,MouseAngle,WheelOrder,NoiseMuSigma,ParticipantID,LanuageTested,SessionTested,NativeLanuage,Date,ResponseDevice
2,2,2,0,1,1,1,1,1406,1256,150,153,0,500,200,8000,"[(512, 384), (512, 384), (512, 384), (512, 384), (512, 384), (512, 384), (512, 384), (512, 384), (512, 384), (512, 384), (512, 384), (512, 384), (512, 384), (512, 384), (512, 384), (512, 384), (512, 384), (512, 384), (512, 384), (512, 384), (512, 384), (512, 384), (512, 384), (512, 384), (512, 384), (512, 384), (512, 384), (512, 384), (512, 384), (512, 384), (512, 384), (512, 384), (512, 384), (512, 384), (512, 384), (512, 384), (512, 384), (512, 384), (512, 384), (512, 384), (512, 384), (512, 384), (512, 384), (512, 384), (512, 384), (512, 384), (512, 384), (512, 384), (512, 384), (512, 384), (512, 384), (512, 384), (512, 384), (512, 384), (512, 384), (512, 384), (512, 384), (512, 384), (512, 384), (512, 384), (512, 384), (512, 384), (512, 384), (512, 384), (512, 384), (512, 384), (512, 384), (512, 384), (512, 384), (512, 384), (512, 384), (512, 384), (512, 384), (512, 384), (512, 384), (512, 384), (512, 384), (512, 384), (512, 384), (512, 384), (512, 384), (512, 384), (512, 384), (512, 384), (512, 384), (512, 384), (512, 384), (512, 384), (512, 384), (512, 384), (512, 384), (512, 384), (512, 384), (512, 384), (512, 384), (512, 384), (512, 384), (512, 384), (512, 384), (512, 384), (512, 384), (512, 384), (512, 384), (512, 384), (512, 384), (512, 384), (512, 384), (512, 384), (512, 384), (512, 384), (512, 384), (512, 384), (512, 384), (512, 384), (512, 384), (512, 384), (512, 384), (512, 384), (512, 384), (512, 384), (512, 384), (512, 384), (512, 384), (512, 384), (512, 384), (521, 390), (533, 395), (547, 399), (561, 404), (600, 414), (623, 422), (645, 427), (664, 433), (691, 441), (703, 445), (711, 447), (721, 451), (732, 456), (739, 459), (744, 462), (750, 466)]",19.01076641616699,"[1, 5, 7, 9, 2, 6, 4, 8, 3]","(0, 0.25)",THI007B,THI,B,Chinese,Mon Oct 15 17:10:49 2018,Mouse
2,2,2,0,2,1,1,1,479,219,260,153,0,500,200,8000,"[(512, 384), (512, 384), (512, 384), (512, 384), (512, 384), (512, 384), (512, 384), (512, 384), (512, 384), (512, 384), (512, 384), (512, 384), (512, 384), (512, 384), (512, 384), (512, 384), (512, 384), (512, 384), (512, 384), (512, 384), (512, 384), (514, 384), (515, 384), (516, 384), (517, 384), (520, 384), (522, 384), (524, 384), (526, 384), (532, 384), (534, 384), (537, 385), (539, 387), (552, 393), (560, 398), (570, 404), (581, 411), (609, 424), (625, 430), (637, 436), (648, 439), (671, 448), (683, 452), (694, 456), (710, 463), (736, 473), (744, 476), (754, 479)]",21.433084549004302,"[1, 5, 7, 9, 2, 6, 4, 8, 3]","(0, 0.25)",THI007B,THI,B,Chinese,Mon Oct 15 17:10:49 2018,Mouse
2,2,2,0,3,6,4,0,-2604,2144,460,152,0,500,200,8000,"[(512, 384), (512, 384), (512, 384), (512, 384), (512, 384), (512, 384), (512, 384), (512, 384), (512, 384), (512, 384), (512, 384), (512, 384), (512, 384), (512, 384), (512, 384), (512, 384), (512, 384), (512, 384), (512, 384), (512, 384), (512, 384), (512, 384), (512, 384), (512, 384), (512, 384), (512, 384), (512, 384), (512, 384), (512, 384), (512, 384), (512, 384), (512, 384), (512, 384), (512, 384), (512, 384), (512, 384), (512, 384), (512, 384), (512, 384), (512, 384), (512, 384), (512, 384), (512, 384), (512, 384), (512, 384), (512, 384), (512, 384), (512, 384), (512, 384), (512, 384), (512, 384), (512, 384), (512, 384), (512, 384), (512, 384), (512, 384), (512, 384), (512, 384), (512, 384), (512, 384), (512, 384), (512, 384), (512, 384), (512, 384), (512, 384), (512, 384), (512, 384), (512, 384), (512, 384), (512, 384), (512, 384), (512, 384), (512, 384), (512, 384), (512, 384), (512, 384), (512, 384), (512, 384), (512, 384), (512, 384), (512, 384), (512, 384), (512, 384), (512, 384), (512, 384), (512, 384), (512, 384), (512, 384), (512, 384), (512, 384), (512, 384), (512, 384), (512, 384), (512, 384), (512, 384), (512, 384), (512, 384), (512, 384), (512, 384), (512, 384), (512, 384), (512, 384), (512, 384), (512, 384), (512, 384), (512, 384), (512, 384), (512, 384), (512, 384), (512, 384), (512, 384), (512, 384), (512, 384), (512, 384), (512, 384), (512, 384), (512, 384), (512, 384), (512, 384), (512, 384), (512, 384), (512, 384), (512, 384), (512, 384), (512, 384), (512, 384), (512, 384), (512, 384), (512, 384), (512, 384), (512, 384), (512, 384), (512, 384), (512, 384), (512, 384), (512, 384), (512, 384), (512, 384), (512, 384), (512, 384), (512, 384), (512, 384), (512, 384), (512, 384), (512, 384), (512, 384), (512, 384), (512, 384), (512, 384), (512, 384), (512, 384), (512, 384), (512, 384), (512, 384), (512, 384), (512, 384), (512, 384), (512, 384), (512, 384), (512, 384), (512, 384), (512, 384), (512, 384), (512, 384), (512, 384), (512, 384), (512, 384), (512, 384), (512, 384), (512, 384), (512, 384), (512, 384), (512, 384), (512, 384), (512, 384), (512, 384), (512, 384), (512, 384), (512, 384), (512, 384), (512, 384), (512, 384), (512, 384), (512, 384), (512, 384), (512, 384), (512, 384), (512, 384), (512, 384), (512, 384), (512, 384), (512, 384), (512, 384), (512, 384), (512, 384), (512, 384), (512, 384), (512, 384), (512, 384), (512, 384), (512, 384), (512, 384), (512, 384), (512, 384), (512, 384), (512, 384), (512, 384), (512, 384), (512, 384), (512, 384), (512, 384), (512, 384), (512, 384), (512, 384), (512, 380), (512, 375), (512, 371), (513, 362), (513, 357), (513, 350), (513, 343), (514, 328), (514, 317), (514, 306), (514, 295), (511, 277), (507, 269), (507, 265), (506, 262), (504, 259), (504, 259), (504, 257), (504, 257), (504, 257), (504, 257), (504, 257), (504, 257), (504, 257), (504, 257), (504, 257), (504, 257), (504, 257), (504, 257), (504, 257), (504, 257), (504, 257), (504, 257), (504, 257), (504, 257), (504, 257), (504, 253), (503, 249), (500, 240), (497, 226), (493, 215), (493, 202), (491, 183), (488, 154), (488, 145), (488, 138), (488, 134)]",264.5164095555356,"[1, 5, 7, 9, 2, 6, 4, 8, 3]","(0, 0.25)",THI007B,THI,B,Chinese,Mon Oct 15 17:10:49 2018,Mouse
2,2,2,0,4,8,8,1,372,12,360,153,0,500,200,8000,"[(512, 384), (515, 379), (516, 377), (518, 374), (520, 370), (525, 364), (526, 363), (528, 361), (528, 361), (529, 359), (529, 358), (529, 358), (530, 357), (535, 352), (536, 350), (540, 344), (543, 341), (548, 334), (550, 331), (553, 328), (555, 326), (562, 319), (567, 314), (572, 308), (577, 302), (588, 285), (595, 276), (599, 270), (605, 261), (614, 250), (620, 244), (626, 236), (634, 227), (646, 210), (651, 201), (654, 195), (658, 186), (664, 170)]",305.385430729099,"[1, 5, 7, 9, 2, 6, 4, 8, 3]","(0, 0.25)",THI007B,THI,B,Chinese,Mon Oct 15 17:10:49 2018,Mouse
2,2,2,0,5,8,8,1,532,152,380,153,0,500,200,8000,"[(512, 384), (512, 384), (512, 384), (512, 384), (512, 384), (512, 384), (512, 384), (512, 384), (512, 384), (512, 384), (512, 384), (512, 384), (512, 384), (512, 384), (512, 384), (510, 384), (510, 382), (510, 378), (510, 378), (510, 378), (510, 377), (510, 375), (510, 374), (510, 372), (510, 372), (510, 372), (510, 372), (510, 370), (510, 370), (510, 368), (510, 368), (511, 365), (511, 362), (514, 357), (516, 352), (519, 349), (525, 338), (527, 333), (529, 329), (539, 312), (543, 307), (550, 300), (556, 291), (573, 278), (582, 270), (589, 263), (596, 257), (612, 236), (617, 225), (624, 212), (633, 198), (642, 182), (645, 179), (649, 171)]",302.7488195766006,"[1, 5, 7, 9, 2, 6, 4, 8, 3]","(0, 0.25)",THI007B,THI,B,Chinese,Mon Oct 15 17:10:49 2018,Mouse
2,2,2,0,6,9,9,1,2132,1822,310,152,0,500,200,8000,"[(512, 384), (512, 384), (512, 384), (512, 384), (512, 384), (512, 384), (512, 384), (512, 384), (512, 384), (512, 384), (512, 384), (512, 384), (512, 384), (512, 384), (512, 384), (512, 384), (512, 384), (512, 384), (512, 384), (512, 384), (512, 384), (512, 384), (512, 384), (512, 384), (512, 384), (512, 384), (512, 384), (512, 384), (512, 384), (512, 384), (512, 384), (512, 384), (512, 384), (512, 384), (512, 384), (512, 384), (512, 384), (512, 384), (512, 384), (512, 384), (512, 384), (512, 384), (512, 384), (512, 384), (512, 384), (512, 384), (512, 384), (512, 384), (512, 384), (512, 384), (512, 384), (512, 384), (512, 384), (512, 384), (512, 384), (512, 384), (512, 384), (512, 384), (512, 384), (512, 384), (512, 384), (512, 384), (512, 384), (512, 384), (512, 384), (512, 384), (512, 384), (512, 384), (512, 384), (512, 384), (512, 384), (512, 384), (512, 384), (512, 384), (512, 384), (512, 384), (512, 384), (512, 384), (512, 384), (512, 384), (512, 384), (512, 384), (512, 384), (512, 384), (512, 384), (512, 384), (512, 384), (512, 384), (512, 384), (512, 384), (512, 384), (512, 384), (512, 384), (512, 384), (512, 384), (512, 384), (512, 384), (512, 384), (512, 384), (512, 384), (512, 384), (512, 384), (512, 384), (512, 384), (512, 384), (512, 384), (512, 384), (512, 384), (512, 384), (512, 384), (512, 384), (512, 384), (512, 384), (512, 384), (512, 384), (512, 384), (512, 384), (512, 384), (512, 384), (512, 384), (512, 384), (512, 384), (512, 384), (512, 384), (512, 384), (512, 384), (512, 384), (512, 384), (512, 384), (512, 384), (512, 384), (512, 384), (512, 384), (512, 384), (512, 384), (512, 384), (512, 384), (512, 384), (512, 384), (512, 384), (512, 384), (512, 384), (512, 384), (512, 384), (512, 384), (512, 384), (512, 384), (512, 384), (512, 384), (512, 384), (512, 384), (512, 384), (512, 384), (512, 384), (512, 384), (512, 384), (512, 384), (512, 384), (512, 384), (512, 384), (512, 384), (512, 384), (512, 384), (512, 384), (512, 384), (512, 384), (512, 384), (512, 384), (512, 384), (512, 384), (512, 384), (512, 384), (512, 384), (512, 384), (512, 384), (512, 384), (512, 384), (512, 384), (512, 384), (512, 384), (512, 384), (512, 384), (509, 385), (509, 385), (507, 387), (507, 387), (506, 387), (506, 387), (506, 387), (506, 387), (506, 387), (506, 387), (506, 387), (506, 387), (506, 387), (505, 388), (505, 388), (505, 388), (500, 391), (495, 395), (489, 397), (483, 402), (462, 414), (449, 421), (440, 428), (430, 434), (407, 447), (394, 454), (377, 465), (359, 473), (326, 492), (316, 501), (306, 511), (297, 518)]",148.06653614265457,"[1, 5, 7, 9, 2, 6, 4, 8, 3]","(0, 0.25)",THI007B,THI,B,Chinese,Mon Oct 15 17:10:49 2018,Mouse
2,2,2,0,7,5,5,1,2070,1690,380,151,0,500,200,8000,"[(512, 384), (512, 384), (512, 384), (512, 384), (512, 384), (512, 384), (512, 384), (512, 384), (512, 384), (512, 384), (512, 384), (512, 384), (512, 384), (512, 384), (512, 384), (512, 384), (512, 384), (512, 384), (512, 384), (512, 384), (512, 384), (512, 384), (512, 384), (512, 384), (512, 384), (512, 384), (512, 384), (512, 384), (512, 384), (512, 384), (512, 384), (512, 384), (512, 384), (512, 384), (512, 384), (512, 384), (512, 384), (512, 384), (512, 384), (512, 384), (512, 384), (512, 384), (512, 384), (512, 384), (512, 384), (512, 384), (512, 384), (512, 384), (512, 384), (512, 384), (512, 384), (512, 384), (512, 384), (512, 384), (512, 384), (512, 384), (512, 384), (512, 384), (512, 384), (512, 384), (512, 384), (512, 384), (512, 384), (512, 384), (512, 384), (512, 384), (512, 384), (512, 384), (512, 384), (512, 384), (512, 384), (512, 384), (512, 384), (512, 384), (512, 384), (512, 384), (512, 384), (512, 384), (512, 384), (512, 384), (512, 384), (512, 384), (512, 384), (512, 384), (512, 384), (512, 384), (512, 384), (512, 384), (512, 384), (512, 384), (512, 384), (512, 384), (512, 384), (512, 384), (512, 384), (512, 384), (512, 384), (512, 384), (512, 384), (512, 384), (512, 384), (512, 384), (512, 384), (512, 384), (512, 384), (512, 384), (512, 384), (512, 384), (512, 384), (512, 384), (512, 384), (512, 384), (512, 384), (512, 384), (512, 384), (512, 384), (512, 384), (512, 384), (512, 384), (512, 384), (512, 384), (512, 384), (512, 384), (512, 384), (512, 384), (512, 384), (512, 384), (512, 384), (512, 384), (512, 384), (512, 384), (512, 384), (512, 384), (512, 384), (512, 384), (512, 384), (512, 384), (512, 384), (512, 384), (512, 384), (512, 384), (512, 384), (512, 384), (512, 384), (512, 384), (512, 384), (512, 384), (512, 384), (512, 384), (512, 384), (512, 384), (512, 384), (512, 384), (512, 384), (512, 384), (512, 384), (512, 384), (512, 384), (512, 384), (512, 384), (512, 384), (512, 384), (512, 384), (512, 384), (512, 384), (512, 384), (512, 384), (512, 384), (514, 384), (518, 385), (523, 389), (527, 393), (530, 396), (532, 403), (535, 408), (536, 409), (536, 412), (537, 420), (539, 423), (539, 427), (539, 429), (540, 432), (540, 433), (540, 433), (540, 434), (540, 435), (540, 440), (544, 449), (545, 460), (550, 479), (554, 489), (557, 497), (560, 505), (567, 518), (571, 524), (575, 528), (579, 532), (586, 539), (589, 543), (593, 546), (596, 550), (606, 564), (609, 568), (614, 577), (618, 585), (626, 599), (630, 608)]",62.2203792749783,"[1, 5, 7, 9, 2, 6, 4, 8, 3]","(0, 0.25)",THI007B,THI,B,Chinese,Mon Oct 15 17:10:49 2018,Mouse
2,2,2,0,8,1,1,1,752,222,530,150,0,500,200,8000,"[(512, 384), (512, 384), (512, 384), (512, 384), (512, 384), (512, 384), (512, 384), (512, 384), (512, 384), (512, 384), (512, 384), (512, 384), (512, 384), (512, 384), (512, 384), (512, 384), (512, 384), (512, 384), (512, 384), (512, 384), (512, 384), (512, 384), (512, 383), (512, 381), (512, 381), (512, 381), (512, 381), (512, 381), (512, 381), (512, 381), (512, 381), (512, 381), (512, 381), (512, 381), (512, 381), (512, 381), (513, 380), (513, 380), (513, 380), (516, 380), (517, 379), (520, 378), (520, 378), (523, 378), (523, 378), (524, 378), (525, 378), (526, 378), (526, 378), (527, 378), (528, 378), (529, 378), (529, 378), (530, 378), (530, 378), (531, 378), (532, 378), (532, 378), (534, 379), (541, 386), (542, 388), (546, 391), (549, 395), (559, 404), (567, 409), (574, 415), (584, 421), (614, 439), (629, 446), (647, 452), (667, 461), (699, 471), (711, 474), (723, 478), (739, 483), (767, 491)]",22.76330331753571,"[1, 5, 7, 9, 2, 6, 4, 8, 3]","(0, 0.25)",THI007B,THI,B,Chinese,Mon Oct 15 17:10:49 2018,Mouse
2,2,2,0,9,7,7,1,1462,1122,340,149,0,500,200,8000,"[(512, 384), (512, 384), (512, 384), (512, 384), (512, 384), (512, 384), (512, 384), (512, 384), (512, 384), (512, 384), (512, 384), (512, 384), (512, 384), (512, 384), (512, 384), (512, 384), (512, 384), (512, 384), (512, 384), (512, 384), (512, 384), (512, 384), (512, 384), (512, 384), (512, 384), (512, 384), (512, 384), (512, 384), (512, 384), (512, 384), (512, 384), (512, 384), (512, 384), (512, 384), (512, 384), (512, 384), (512, 384), (512, 384), (512, 384), (512, 384), (512, 384), (512, 384), (512, 384), (512, 384), (512, 384), (512, 384), (512, 384), (512, 384), (512, 384), (512, 384), (512, 384), (512, 384), (512, 384), (512, 384), (512, 384), (512, 384), (512, 384), (512, 384), (512, 384), (512, 384), (512, 384), (512, 384), (512, 384), (512, 384), (512, 384), (512, 384), (512, 384), (512, 384), (512, 384), (512, 384), (512, 384), (512, 384), (512, 384), (512, 384), (512, 384), (512, 384), (512, 384), (512, 384), (512, 384), (512, 384), (512, 384), (512, 384), (512, 384), (512, 384), (512, 384), (512, 384), (512, 384), (512, 384), (512, 384), (512, 384), (512, 384), (512, 384), (512, 384), (512, 384), (512, 384), (512, 384), (512, 384), (512, 384), (512, 384), (512, 384), (512, 384), (512, 384), (512, 384), (512, 384), (512, 384), (512, 384), (512, 384), (512, 384), (512, 384), (512, 384), (512, 384), (512, 384), (512, 386), (512, 387), (512, 387), (512, 389), (512, 389), (512, 390), (512, 390), (512, 390), (512, 390), (512, 390), (512, 390), (512, 394), (512, 398), (512, 402), (512, 409), (512, 418), (509, 436), (506, 444), (504, 454), (499, 476), (496, 489), (496, 501), (496, 513), (496, 535), (496, 544), (495, 553), (494, 560), (493, 575), (490, 585), (489, 593), (488, 602), (487, 610), (485, 623), (485, 630), (485, 635)]",96.13968239992386,"[1, 5, 7, 9, 2, 6, 4, 8, 3]","(0, 0.25)",THI007B,THI,B,Chinese,Mon Oct 15 17:10:49 2018,Mouse
2,2,2,0,10,5,5,1,2592,702,1890,148,0,500,200,8000,"[(512, 384), (512, 384), (512, 384), (512, 384), (512, 384), (512, 384), (512, 384), (512, 384), (512, 384), (512, 384), (512, 384), (512, 384), (512, 384), (512, 384), (512, 384), (512, 384), (512, 384), (512, 384), (512, 384), (512, 384), (512, 384), (512, 384), (512, 384), (512, 384), (512, 384), (512, 384), (512, 384), (512, 384), (512, 384), (512, 384), (512, 384), (512, 384), (512, 384), (512, 384), (512, 384), (512, 384), (512, 384), (512, 384), (512, 384), (512, 384), (512, 384), (512, 384), (512, 384), (512, 384), (512, 384), (512, 384), (512, 384), (512, 384), (512, 384), (512, 384), (512, 384), (512, 384), (512, 384), (512, 384), (512, 384), (512, 384), (512, 384), (512, 384), (512, 384), (512, 384), (512, 384), (512, 384), (512, 384), (512, 384), (512, 384), (512, 384), (512, 384), (512, 384), (512, 384), (512, 384), (512, 383), (512, 383), (512, 383), (512, 383), (512, 383), (512, 383), (512, 383), (512, 383), (512, 383), (512, 383), (512, 383), (512, 383), (512, 383), (512, 383), (512, 383), (512, 383), (512, 383), (512, 383), (512, 383), (512, 383), (512, 383), (512, 383), (512, 383), (512, 383), (512, 383), (512, 383), (512, 383), (512, 383), (512, 383), (512, 383), (512, 383), (512, 383), (512, 383), (512, 383), (512, 383), (512, 383), (512, 383), (512, 383), (512, 383), (512, 383), (512, 383), (512, 383), (512, 383), (512, 383), (512, 383), (512, 383), (512, 383), (512, 383), (512, 383), (512, 383), (512, 383), (512, 383), (512, 383), (512, 383), (512, 383), (512, 383), (512, 383), (512, 383), (512, 383), (512, 383), (512, 383), (512, 383), (512, 383), (512, 383), (512, 383), (512, 383), (512, 383), (512, 383), (512, 383), (512, 383), (512, 383), (512, 383), (512, 383), (512, 383), (512, 383), (512, 383), (512, 383), (512, 383), (512, 383), (512, 383), (512, 383), (512, 383), (512, 383), (512, 383), (512, 383), (512, 383), (512, 383), (512, 383), (512, 383), (512, 383), (512, 383), (512, 383), (512, 383), (512, 383), (512, 383), (512, 383), (512, 383), (512, 383), (512, 383), (512, 383), (512, 383), (512, 383), (512, 383), (512, 383), (512, 383), (512, 383), (512, 383), (512, 383), (512, 383), (512, 383), (512, 383), (512, 383), (512, 383), (512, 383), (512, 383), (512, 383), (512, 383), (512, 383), (512, 383), (512, 383), (512, 383), (512, 383), (512, 383), (512, 383), (512, 383), (512, 383), (512, 383), (512, 383), (512, 383), (512, 383), (512, 383), (512, 383), (512, 383), (512, 383), (512, 383), (512, 383), (512, 383), (512, 383), (512, 383), (512, 383), (512, 383), (512, 383), (512, 383), (512, 383), (512, 383), (512, 383), (512, 383), (512, 383), (512, 383), (512, 383), (512, 383), (512, 383), (512, 383), (512, 383), (512, 383), (512, 383), (512, 383), (512, 383), (512, 383), (512, 383), (513, 383), (515, 383), (515, 383), (518, 384), (521, 389), (523, 392), (525, 397), (530, 407), (532, 411), (533, 417), (535, 422), (539, 441), (544, 452), (548, 463), (553, 476), (559, 497), (564, 507), (567, 516), (573, 526), (578, 540), (582, 549), (587, 559), (589, 565), (596, 579), (601, 586), (605, 591), (609, 596), (617, 604), (619, 607), (623, 613)]",64.13978225865313,"[1, 5, 7, 9, 2, 6, 4, 8, 3]","(0, 0.25)",THI007B,THI,B,Chinese,Mon Oct 15 17:10:49 2018,Mouse
2,2,2,0,11,4,4,1,2674,2304,370,147,0,500,200,8000,"[(512, 384), (512, 384), (512, 384), (512, 384), (512, 384), (512, 384), (512, 384), (512, 384), (512, 384), (512, 384), (512, 384), (512, 384), (512, 384), (512, 384), (512, 384), (512, 384), (512, 384), (512, 384), (512, 384), (512, 384), (512, 384), (512, 384), (512, 384), (512, 384), (512, 384), (512, 384), (512, 384), (512, 384), (512, 384), (512, 384), (512, 384), (512, 384), (512, 384), (512, 384), (512, 384), (512, 384), (512, 384), (512, 384), (512, 384), (512, 384), (512, 384), (512, 384), (512, 384), (512, 384), (512, 384), (512, 384), (512, 384), (512, 384), (512, 384), (512, 384), (512, 384), (512, 384), (512, 384), (512, 384), (512, 384), (512, 384), (512, 384), (512, 384), (512, 384), (512, 384), (512, 384), (512, 384), (512, 384), (512, 384), (512, 384), (512, 384), (512, 384), (512, 384), (512, 384), (512, 384), (512, 384), (512, 384), (512, 384), (512, 384), (512, 384), (512, 384), (512, 384), (512, 384), (512, 384), (512, 384), (512, 384), (512, 384), (512, 384), (512, 384), (512, 384), (512, 384), (512, 384), (512, 384), (512, 384), (512, 384), (512, 384), (512, 384), (512, 384), (512, 384), (512, 384), (512, 384), (512, 384), (512, 384), (512, 384), (512, 384), (512, 384), (512, 384), (512, 384), (512, 384), (512, 384), (512, 384), (512, 384), (512, 384), (512, 384), (512, 384), (512, 384), (512, 384), (512, 384), (512, 384), (512, 384), (512, 384), (512, 384), (512, 384), (512, 384), (512, 384), (512, 384), (512, 384), (512, 384), (512, 384), (512, 384), (512, 384), (512, 384), (512, 384), (512, 384), (512, 384), (512, 384), (512, 384), (512, 384), (512, 384), (512, 384), (512, 384), (512, 384), (512, 384), (512, 384), (512, 384), (512, 384), (512, 384), (512, 384), (512, 384), (512, 384), (512, 384), (512, 384), (512, 384), (512, 384), (512, 384), (512, 384), (512, 384), (512, 384), (512, 384), (512, 384), (512, 384), (512, 384), (512, 384), (512, 384), (512, 384), (512, 384), (512, 384), (512, 384), (512, 384), (512, 384), (512, 384), (512, 384), (512, 384), (512, 384), (512, 384), (512, 384), (512, 384), (512, 384), (512, 384), (512, 384), (512, 384), (512, 384), (512, 384), (512, 384), (512, 384), (512, 384), (512, 384), (512, 384), (512, 384), (512, 384), (512, 384), (512, 384), (512, 384), (512, 384), (512, 384), (512, 384), (512, 384), (512, 384), (512, 384), (512, 384), (512, 384), (512, 384), (512, 384), (512, 384), (512, 384), (512, 384), (512, 384), (512, 384), (512, 384), (512, 384), (512, 384), (512, 384), (512, 384), (512, 384), (512, 384), (512, 384), (512, 384), (512, 384), (512, 384), (512, 384), (512, 384), (512, 384), (512, 384), (512, 384), (512, 384), (512, 384), (512, 384), (512, 384), (512, 384), (512, 384), (512, 384), (512, 384), (512, 384), (512, 384), (512, 384), (512, 383), (512, 382), (512, 379), (512, 378), (512, 372), (510, 370), (509, 369), (509, 366), (505, 348), (503, 337), (500, 327), (499, 319), (498, 301), (498, 294), (496, 290), (496, 287), (496, 281), (495, 279), (494, 275), (493, 270), (491, 261), (490, 257), (487, 249), (487, 244), (485, 231), (484, 225), (484, 221), (482, 215), (479, 202), (477, 198), (475, 192), (474, 185), (470, 173), (469, 167), (467, 159), (466, 153), (465, 143), (464, 136)]",259.04593735660166,"[1, 5, 7, 9, 2, 6, 4, 8, 3]","(0, 0.25)",THI007B,THI,B,Chinese,Mon Oct 15 17:10:49 2018,Mouse
2,2,2,0,12,7,7,1,2212,1672,540,146,0,500,200,8000,"[(512, 384), (512, 384), (512, 384), (512, 384), (512, 384), (512, 384), (512, 384), (512, 384), (512, 384), (512, 384), (512, 384), (512, 384), (512, 384), (512, 384), (512, 384), (512, 384), (512, 384), (512, 384), (512, 384), (512, 384), (512, 384), (512, 384), (512, 384), (512, 384), (512, 384), (512, 384), (512, 384), (512, 384), (512, 384), (512, 384), (512, 384), (512, 384), (512, 384), (512, 384), (512, 384), (512, 384), (512, 384), (512, 384), (512, 384), (512, 384), (512, 384), (512, 384), (512, 384), (512, 384), (512, 384), (512, 384), (512, 384), (512, 384), (512, 384), (512, 384), (512, 384), (512, 384), (512, 384), (512, 384), (512, 384), (512, 384), (512, 384), (512, 384), (512, 384), (512, 384), (512, 384), (512, 384), (512, 384), (512, 384), (512, 384), (512, 384), (512, 384), (512, 384), (512, 384), (512, 384), (512, 384), (512, 384), (512, 384), (512, 384), (512, 384), (512, 384), (512, 384), (512, 384), (512, 384), (512, 384), (512, 384), (512, 384), (512, 384), (512, 384), (512, 384), (512, 384), (512, 384), (512, 384), (512, 384), (512, 384), (512, 384), (512, 384), (512, 384), (512, 384), (512, 384), (512, 384), (512, 384), (512, 384), (512, 384), (512, 384), (512, 384), (512, 384), (512, 384), (512, 384), (512, 384), (512, 384), (512, 384), (512, 384), (512, 384), (512, 384), (512, 384), (512, 384), (512, 384), (512, 384), (512, 384), (512, 384), (512, 384), (512, 384), (512, 384), (512, 384), (512, 384), (512, 384), (512, 384), (512, 384), (512, 384), (512, 384), (512, 384), (512, 384), (512, 384), (512, 384), (512, 384), (512, 384), (512, 384), (512, 384), (512, 384), (512, 384), (512, 384), (512, 384), (512, 384), (512, 384), (512, 384), (512, 384), (512, 384), (512, 384), (512, 384), (512, 384), (512, 384), (512, 384), (512, 384), (512, 384), (512, 384), (512, 384), (512, 384), (512, 384), (512, 384), (512, 384), (512, 384), (512, 384), (512, 384), (512, 384), (512, 384), (512, 384), (512, 384), (512, 384), (512, 384), (512, 384), (512, 384), (512, 386), (512, 386), (512, 386), (512, 386), (512, 386), (512, 386), (512, 386), (512, 386), (512, 386), (512, 386), (512, 386), (512, 386), (512, 386), (513, 387), (513, 388), (513, 389), (513, 389), (513, 389), (513, 390), (513, 390), (513, 392), (513, 392), (513, 392), (513, 393), (513, 396), (514, 399), (515, 401), (516, 408), (516, 412), (516, 420), (516, 427), (516, 433), (516, 445), (516, 452), (516, 460), (516, 465), (515, 473), (514, 479), (513, 484), (511, 488), (509, 502), (507, 511), (504, 521), (503, 528), (494, 545), (492, 551), (488, 558), (485, 565), (480, 576), (478, 580), (475, 586), (469, 602), (467, 612), (463, 621), (462, 630)]",101.4889812021592,"[1, 5, 7, 9, 2, 6, 4, 8, 3]","(0, 0.25)",THI007B,THI,B,Chinese,Mon Oct 15 17:10:49 2018,Mouse
2,2,2,0,13,1,1,1,392,142,250,145,0,500,200,8000,"[(512, 384), (512, 384), (512, 384), (512, 384), (512, 384), (512, 384), (512, 384), (512, 384), (512, 384), (512, 384), (512, 384), (512, 384), (512, 384), (512, 384), (512, 383), (514, 382), (516, 382), (525, 381), (529, 381), (535, 381), (540, 380), (548, 379), (551, 379), (557, 379), (561, 379), (574, 379), (584, 383), (594, 387), (601, 390), (622, 399), (632, 404), (641, 407), (650, 411), (668, 421), (677, 427), (690, 434), (702, 441), (726, 461), (738, 471), (747, 480)]",22.220537193112882,"[1, 5, 7, 9, 2, 6, 4, 8, 3]","(0, 0.25)",THI007B,THI,B,Chinese,Mon Oct 15 17:10:49 2018,Mouse
2,2,2,0,14,2,2,1,1382,1102,280,144,0,500,200,8000,"[(512, 384), (512, 384), (512, 384), (512, 384), (512, 384), (512, 384), (512, 384), (512, 384), (512, 384), (512, 384), (512, 384), (512, 384), (512, 384), (512, 384), (512, 384), (512, 384), (512, 384), (512, 384), (512, 384), (512, 384), (512, 384), (512, 384), (512, 384), (512, 384), (512, 384), (512, 384), (512, 384), (512, 384), (512, 384), (512, 384), (512, 384), (512, 384), (512, 384), (512, 384), (512, 384), (512, 384), (512, 384), (512, 384), (512, 384), (512, 384), (512, 384), (512, 384), (512, 384), (512, 384), (512, 384), (512, 384), (512, 384), (512, 384), (512, 384), (512, 384), (512, 384), (512, 384), (512, 384), (512, 384), (512, 384), (512, 384), (512, 384), (512, 384), (512, 384), (512, 384), (512, 384), (512, 384), (512, 384), (512, 384), (512, 384), (512, 384), (512, 384), (512, 384), (512, 384), (512, 384), (512, 384), (512, 384), (512, 384), (512, 384), (512, 384), (512, 384), (512, 384), (512, 384), (512, 384), (512, 384), (512, 384), (512, 384), (512, 384), (512, 384), (512, 384), (512, 384), (512, 384), (512, 384), (512, 384), (512, 384), (512, 384), (512, 384), (512, 384), (512, 384), (512, 384), (512, 384), (512, 384), (512, 384), (512, 384), (512, 384), (512, 384), (512, 384), (512, 384), (512, 384), (512, 384), (512, 384), (512, 384), (512, 384), (512, 384), (512, 384), (507, 383), (500, 381), (493, 381), (484, 381), (462, 379), (447, 379), (430, 379), (413, 379), (384, 379), (372, 379), (360, 379), (350, 379), (336, 379), (331, 379), (325, 379), (321, 379), (311, 376), (306, 376), (303, 375), (300, 375), (295, 375), (293, 375), (291, 375), (289, 375), (282, 375), (277, 375), (270, 375), (263, 375), (248, 375)]",181.9525090493996,"[1, 5, 7, 9, 2, 6, 4, 8, 3]","(0, 0.25)",THI007B,THI,B,Chinese,Mon Oct 15 17:10:49 2018,Mouse
2,2,2,0,15,6,6,1,3582,3212,370,143,0,500,200,8000,"[(512, 384), (512, 384), (512, 384), (512, 384), (512, 384), (512, 384), (512, 384), (512, 384), (512, 384), (512, 384), (512, 384), (512, 384), (512, 384), (512, 384), (512, 384), (512, 384), (512, 384), (512, 384), (512, 384), (512, 384), (512, 384), (512, 384), (512, 384), (512, 384), (512, 384), (512, 384), (512, 384), (512, 384), (512, 384), (512, 384), (512, 384), (512, 384), (512, 384), (512, 384), (512, 384), (512, 384), (512, 384), (512, 384), (512, 384), (512, 384), (512, 384), (512, 384), (512, 384), (512, 384), (512, 384), (512, 384), (512, 384), (512, 384), (512, 384), (512, 384), (512, 384), (512, 384), (512, 384), (512, 384), (512, 384), (512, 384), (512, 384), (512, 384), (512, 384), (512, 384), (512, 384), (512, 384), (512, 384), (512, 384), (512, 384), (512, 384), (512, 384), (512, 384), (512, 384), (512, 384), (512, 384), (512, 384), (512, 384), (512, 384), (512, 384), (512, 384), (512, 384), (512, 384), (512, 384), (512, 384), (512, 384), (512, 384), (512, 384), (512, 384), (512, 384), (512, 384), (512, 384), (512, 384), (512, 384), (512, 384), (512, 384), (512, 384), (512, 384), (512, 384), (512, 384), (512, 384), (512, 384), (512, 384), (512, 384), (512, 384), (512, 384), (512, 384), (512, 384), (512, 384), (512, 384), (512, 384), (512, 384), (512, 384), (512, 384), (512, 384), (512, 384), (512, 384), (512, 384), (512, 384), (512, 384), (512, 384), (512, 384), (512, 384), (512, 384), (512, 384), (512, 384), (512, 384), (512, 384), (512, 384), (512, 384), (512, 384), (512, 384), (512, 384), (512, 384), (512, 384), (512, 384), (512, 384), (512, 384), (512, 384), (512, 384), (512, 384), (512, 384), (512, 384), (512, 384), (512, 384), (512, 384), (512, 384), (512, 384), (512, 384), (512, 384), (512, 384), (512, 384), (512, 384), (512, 384), (512, 384), (512, 384), (512, 384), (512, 384), (512, 384), (512, 384), (512, 384), (512, 384), (512, 384), (512, 384), (512, 384), (512, 384), (512, 384), (512, 384), (512, 384), (512, 384), (512, 384), (512, 384), (512, 384), (512, 384), (512, 384), (512, 384), (512, 384), (512, 384), (512, 384), (512, 384), (512, 384), (512, 384), (512, 384), (512, 384), (512, 384), (512, 384), (512, 384), (512, 384), (512, 384), (512, 384), (512, 384), (512, 384), (512, 384), (512, 384), (512, 384), (512, 384), (512, 384), (512, 384), (512, 384), (512, 384), (512, 384), (512, 384), (512, 384), (512, 384), (512, 384), (512, 384), (512, 384), (512, 384), (512, 384), (512, 384), (512, 384), (512, 384), (512, 384), (512, 384), (512, 384), (512, 384), (512, 384), (512, 384), (512, 384), (512, 384), (512, 384), (512, 384), (512, 384), (512, 384), (512, 384), (512, 384), (512, 384), (512, 384), (512, 384), (512, 384), (512, 384), (512, 384), (512, 384), (512, 384), (512, 384), (512, 384), (512, 384), (512, 384), (512, 384), (512, 384), (512, 384), (512, 384), (512, 384), (512, 384), (512, 384), (512, 384), (512, 384), (512, 384), (512, 384), (512, 384), (512, 384), (512, 384), (512, 384), (512, 384), (512, 384), (512, 384), (512, 384), (512, 384), (512, 384), (512, 384), (512, 384), (512, 384), (512, 384), (512, 384), (512, 384), (512, 384), (512, 384), (512, 384), (512, 384), (512, 384), (512, 384), (512, 384), (512, 384), (512, 384), (512, 384), (512, 384), (512, 384), (512, 384), (512, 384), (512, 384), (512, 384), (512, 384), (512, 384), (512, 384), (512, 384), (512, 384), (512, 384), (512, 384), (512, 384), (512, 384), (512, 384), (512, 384), (512, 384), (512, 384), (512, 384), (512, 384), (512, 384), (512, 384), (512, 384), (512, 384), (512, 384), (512, 384), (512, 384), (512, 384), (512, 384), (512, 384), (512, 384), (512, 384), (512, 384), (512, 384), (512, 384), (512, 384), (512, 384), (512, 384), (512, 384), (512, 384), (512, 384), (512, 384), (512, 384), (512, 384), (512, 384), (512, 384), (512, 384), (512, 384), (512, 384), (512, 384), (511, 383), (511, 383), (510, 383), (509, 383), (506, 383), (505, 382), (504, 381), (502, 381), (499, 380), (499, 380), (499, 380), (497, 380), (496, 380), (496, 379), (493, 378), (492, 377), (484, 372), (478, 367), (472, 361), (466, 355), (453, 342), (448, 338), (442, 333), (438, 329), (420, 316), (410, 308), (398, 299), (384, 288), (365, 275), (357, 271), (352, 267), (349, 263), (336, 255), (334, 252), (328, 247), (323, 242), (317, 236), (314, 231)]",217.69424046668917,"[1, 5, 7, 9, 2, 6, 4, 8, 3]","(0, 0.25)",THI007B,THI,B,Chinese,Mon Oct 15 17:10:49 2018,Mouse
2,2,2,0,16,8,8,1,1185,925,260,142,0,500,200,8000,"[(512, 384), (512, 384), (512, 384), (512, 384), (512, 384), (512, 384), (512, 384), (512, 384), (512, 384), (512, 384), (512, 384), (512, 384), (512, 384), (512, 384), (512, 384), (512, 384), (512, 384), (512, 384), (512, 384), (512, 384), (512, 384), (512, 384), (512, 384), (512, 384), (512, 384), (512, 384), (512, 384), (512, 384), (512, 384), (512, 384), (512, 384), (512, 384), (512, 384), (512, 384), (512, 384), (512, 384), (512, 384), (512, 384), (512, 384), (512, 384), (512, 384), (512, 384), (512, 384), (512, 384), (512, 384), (512, 384), (512, 384), (512, 384), (512, 384), (512, 384), (512, 384), (512, 384), (512, 384), (512, 384), (512, 384), (512, 384), (512, 384), (512, 384), (512, 384), (512, 384), (512, 384), (512, 384), (512, 384), (512, 384), (512, 384), (512, 384), (512, 384), (512, 384), (512, 384), (512, 384), (512, 384), (512, 384), (512, 384), (512, 384), (512, 384), (512, 384), (512, 384), (512, 384), (512, 384), (512, 384), (512, 384), (512, 384), (512, 384), (512, 384), (512, 384), (512, 384), (512, 384), (512, 384), (512, 384), (512, 384), (512, 384), (512, 384), (513, 380), (514, 377), (518, 367), (519, 363), (524, 357), (529, 350), (537, 337), (540, 331), (544, 323), (549, 315), (559, 295), (568, 280), (573, 270), (580, 258), (593, 243), (600, 236), (605, 229), (609, 226), (611, 222), (612, 219), (614, 214), (617, 205), (624, 188), (626, 181), (628, 171), (631, 166), (638, 155)]",298.82039746053533,"[1, 5, 7, 9, 2, 6, 4, 8, 3]","(0, 0.25)",THI007B,THI,B,Chinese,Mon Oct 15 17:10:49 2018,Mouse
2,2,2,0,17,1,1,1,384,84,300,141,0,500,200,8000,"[(512, 384), (512, 384), (512, 384), (512, 384), (512, 384), (512, 384), (512, 384), (512, 384), (512, 383), (512, 383), (512, 383), (512, 383), (514, 383), (516, 383), (523, 383), (528, 383), (533, 384), (537, 385), (552, 390), (556, 391), (562, 393), (568, 395), (581, 399), (591, 401), (598, 405), (605, 407), (619, 412), (623, 415), (629, 416), (634, 418), (643, 422), (649, 425), (657, 430), (666, 436), (676, 442), (696, 454), (711, 464), (723, 472), (757, 497)]",24.760308630381687,"[1, 5, 7, 9, 2, 6, 4, 8, 3]","(0, 0.25)",THI007B,THI,B,Chinese,Mon Oct 15 17:10:49 2018,Mouse
2,2,2,0,18,6,6,1,1064,14,1050,140,0,500,200,8000,"[(512, 383), (510, 383), (509, 382), (504, 380), (503, 379), (502, 378), (499, 377), (496, 376), (495, 375), (494, 375), (491, 373), (488, 372), (486, 371), (482, 368), (482, 368), (476, 365), (472, 363), (469, 359), (467, 358), (464, 355), (462, 353), (460, 352), (459, 351), (455, 349), (453, 348), (452, 346), (451, 346), (449, 344), (449, 344), (449, 344), (449, 344), (449, 344), (449, 344), (449, 344), (449, 344), (449, 344), (449, 344), (449, 344), (449, 344), (449, 344), (449, 344), (449, 344), (449, 344), (449, 344), (449, 344), (449, 344), (449, 344), (449, 344), (449, 344), (449, 344), (449, 344), (449, 344), (449, 344), (449, 344), (449, 344), (449, 344), (449, 344), (449, 344), (449, 344), (449, 344), (449, 344), (449, 344), (449, 344), (449, 344), (449, 344), (449, 344), (449, 344), (449, 344), (449, 344), (449, 344), (449, 344), (449, 344), (449, 344), (449, 344), (449, 344), (449, 344), (449, 344), (449, 344), (449, 344), (449, 344), (449, 344), (449, 344), (449, 344), (449, 344), (449, 344), (449, 344), (449, 344), (449, 343), (447, 341), (444, 338), (440, 335), (430, 322), (422, 313), (414, 304), (405, 295), (384, 277), (378, 271), (370, 266), (364, 261), (352, 254), (346, 249), (339, 243), (335, 237), (326, 228), (324, 225), (323, 223), (322, 220)]",220.7993777953646,"[1, 5, 7, 9, 2, 6, 4, 8, 3]","(0, 0.25)",THI007B,THI,B,Chinese,Mon Oct 15 17:10:49 2018,Mouse
2,2,2,0,19,4,4,1,854,664,190,139,0,500,200,8000,"[(512, 384), (512, 384), (512, 384), (512, 384), (512, 384), (512, 384), (512, 384), (512, 384), (512, 384), (512, 384), (512, 384), (512, 384), (512, 384), (512, 384), (512, 384), (512, 384), (512, 384), (512, 384), (512, 384), (512, 384), (512, 384), (512, 384), (512, 384), (512, 384), (512, 384), (512, 384), (512, 384), (512, 384), (512, 384), (512, 384), (512, 384), (512, 384), (512, 384), (512, 384), (512, 384), (512, 384), (512, 384), (512, 384), (512, 384), (512, 384), (512, 384), (512, 384), (512, 384), (512, 384), (512, 384), (512, 384), (512, 384), (512, 384), (512, 384), (512, 384), (512, 384), (512, 384), (512, 384), (512, 384), (512, 384), (512, 384), (512, 384), (512, 384), (512, 384), (512, 384), (512, 384), (512, 384), (512, 384), (512, 384), (512, 384), (512, 384), (512, 378), (512, 364), (512, 330), (511, 313), (510, 298), (509, 287), (509, 269), (509, 261), (509, 251), (509, 242), (506, 225), (506, 215), (506, 209), (506, 199), (506, 180), (506, 170), (506, 161), (506, 153), (504, 136), (503, 130)]",267.9706835706568,"[1, 5, 7, 9, 2, 6, 4, 8, 3]","(0, 0.25)",THI007B,THI,B,Chinese,Mon Oct 15 17:10:49 2018,Mouse
2,2,2,0,20,3,3,1,586,426,160,138,0,500,200,8000,"[(512, 384), (512, 384), (512, 384), (512, 384), (512, 384), (512, 384), (512, 384), (512, 384), (512, 384), (512, 384), (512, 384), (512, 384), (512, 384), (512, 384), (512, 384), (512, 384), (512, 384), (512, 384), (512, 384), (512, 384), (512, 384), (512, 384), (512, 384), (512, 384), (512, 384), (512, 384), (512, 384), (512, 384), (512, 384), (512, 384), (512, 384), (512, 384), (512, 384), (512, 384), (512, 384), (512, 384), (512, 384), (512, 384), (512, 384), (512, 384), (512, 384), (512, 384), (514, 384), (515, 383), (517, 383), (520, 380), (533, 375), (543, 373), (554, 369), (564, 367), (589, 358), (603, 356), (619, 351), (639, 345), (677, 336), (698, 328), (720, 322), (734, 318), (758, 306)]",342.4075754378184,"[1, 5, 7, 9, 2, 6, 4, 8, 3]","(0, 0.25)",THI007B,THI,B,Chinese,Mon Oct 15 17:10:49 2018,Mouse
2,2,2,0,21,7,2,0,-630,410,220,137,0,500,200,8000,"[(512, 384), (512, 384), (512, 384), (512, 384), (512, 384), (512, 384), (512, 384), (512, 384), (512, 384), (512, 384), (512, 384), (512, 384), (512, 384), (512, 384), (512, 384), (512, 384), (512, 384), (512, 384), (512, 384), (512, 384), (512, 384), (512, 384), (512, 384), (512, 384), (512, 384), (512, 384), (512, 384), (512, 384), (512, 384), (512, 384), (512, 384), (512, 384), (512, 384), (512, 384), (512, 384), (512, 384), (512, 384), (512, 384), (512, 384), (512, 384), (511, 383), (511, 383), (511, 383), (511, 383), (511, 383), (511, 383), (511, 383), (511, 383), (511, 383), (511, 383), (511, 383), (511, 383), (496, 378), (487, 377), (481, 377), (472, 377), (449, 377), (433, 377), (408, 377), (366, 377), (298, 381), (269, 383), (235, 385)]",179.79315692922268,"[1, 5, 7, 9, 2, 6, 4, 8, 3]","(0, 0.25)",THI007B,THI,B,Chinese,Mon Oct 15 17:10:49 2018,Mouse
2,2,2,0,22,3,7,0,-1402,42,1360,138,0,500,200,8000,"[(512, 384), (512, 384), (512, 384), (512, 384), (512, 383), (512, 379), (511, 377), (510, 375), (510, 373), (509, 370), (509, 369), (509, 369), (509, 368), (508, 366), (508, 366), (508, 365), (508, 365), (506, 363), (506, 363), (504, 362), (503, 361), (501, 358), (501, 358), (500, 356), (500, 355), (499, 353), (499, 353), (499, 353), (499, 353), (499, 353), (499, 353), (499, 353), (499, 353), (499, 353), (499, 353), (499, 353), (499, 353), (499, 353), (499, 353), (499, 353), (499, 353), (499, 353), (499, 353), (499, 353), (499, 353), (499, 353), (499, 353), (499, 353), (499, 353), (499, 353), (499, 353), (499, 353), (499, 353), (499, 353), (499, 353), (499, 353), (499, 353), (499, 353), (499, 354), (499, 355), (499, 355), (499, 356), (499, 357), (499, 358), (499, 359), (499, 360), (499, 361), (499, 361), (499, 363), (499, 364), (499, 364), (499, 365), (499, 365), (499, 365), (499, 365), (499, 365), (499, 365), (498, 366), (498, 366), (498, 366), (498, 366), (498, 366), (498, 366), (498, 366), (498, 366), (498, 366), (498, 366), (498, 366), (498, 366), (498, 366), (498, 366), (498, 367), (498, 368), (497, 369), (497, 369), (497, 370), (497, 371), (496, 372), (496, 372), (496, 372), (496, 372), (496, 372), (496, 372), (496, 372), (496, 372), (496, 372), (496, 372), (496, 372), (496, 372), (496, 372), (496, 373), (496, 375), (496, 375), (496, 376), (496, 377), (496, 379), (496, 379), (496, 382), (496, 384), (496, 386), (496, 389), (496, 391), (496, 393), (496, 394), (496, 395), (496, 396), (496, 398), (496, 402), (496, 409), (496, 430), (496, 443), (495, 455), (491, 471), (488, 497), (485, 514), (483, 532), (481, 550), (481, 589), (481, 609), (481, 624), (480, 643)]",97.04332090115778,"[1, 5, 7, 9, 2, 6, 4, 8, 3]","(0, 0.25)",THI007B,THI,B,Chinese,Mon Oct 15 17:10:49 2018,Mouse
2,2,2,0,23,5,3,0,-565,25,540,139,0,500,200,8000,"[(513, 383), (513, 383), (513, 381), (513, 381), (513, 381), (513, 381), (514, 381), (514, 381), (515, 380), (516, 380), (516, 380), (517, 380), (518, 380), (520, 378), (521, 377), (522, 377), (524, 375), (526, 373), (528, 373), (530, 371), (535, 369), (537, 367), (540, 366), (541, 365), (547, 362), (548, 361), (552, 359), (556, 357), (560, 354), (561, 354), (564, 353), (565, 352), (568, 351), (568, 350), (570, 350), (570, 350), (571, 349), (571, 349), (572, 348), (572, 348), (572, 348), (572, 348), (572, 348), (572, 347), (573, 345), (576, 344), (580, 342), (586, 340), (602, 338), (611, 335), (623, 334), (637, 330), (670, 327), (692, 322), (710, 320), (729, 316), (765, 308)]",343.27998137260454,"[1, 5, 7, 9, 2, 6, 4, 8, 3]","(0, 0.25)",THI007B,THI,B,Chinese,Mon Oct 15 17:10:49 2018,Mouse
2,2,2,0,24,5,2,0,-1552,1352,200,140,0,500,200,8000,"[(512, 384), (512, 384), (512, 384), (512, 384), (512, 384), (512, 384), (512, 384), (512, 384), (512, 384), (512, 384), (512, 384), (512, 384), (512, 384), (512, 384), (512, 384), (512, 384), (512, 384), (512, 384), (512, 384), (512, 384), (512, 384), (512, 384), (512, 384), (512, 384), (512, 384), (512, 384), (512, 384), (512, 384), (512, 384), (512, 384), (512, 384), (512, 384), (512, 384), (512, 384), (512, 384), (512, 384), (512, 384), (512, 384), (512, 384), (512, 384), (512, 384), (512, 384), (512, 384), (512, 384), (512, 384), (512, 384), (512, 384), (512, 384), (512, 384), (512, 384), (512, 384), (512, 384), (512, 384), (512, 384), (512, 384), (512, 384), (512, 384), (512, 384), (512, 384), (512, 384), (512, 384), (512, 384), (512, 384), (512, 384), (512, 384), (512, 384), (512, 384), (512, 384), (512, 384), (512, 384), (512, 384), (512, 384), (512, 384), (512, 384), (512, 384), (512, 384), (512, 384), (512, 384), (512, 384), (512, 384), (512, 384), (512, 384), (512, 384), (512, 384), (512, 384), (512, 384), (512, 384), (512, 384), (512, 384), (512, 384), (512, 384), (512, 384), (512, 384), (512, 384), (512, 384), (512, 384), (512, 384), (512, 384), (512, 384), (512, 384), (512, 384), (512, 384), (512, 384), (512, 384), (512, 384), (512, 384), (512, 384), (512, 384), (512, 384), (512, 384), (512, 384), (512, 384), (512, 384), (512, 384), (512, 384), (512, 384), (512, 384), (512, 384), (512, 384), (512, 384), (512, 384), (512, 384), (512, 384), (512, 384), (512, 384), (512, 384), (512, 384), (512, 384), (512, 384), (512, 384), (512, 384), (512, 384), (512, 384), (512, 384), (512, 384), (511, 384), (511, 384), (511, 384), (511, 384), (510, 384), (499, 381), (492, 380), (483, 378), (476, 378), (458, 376), (450, 374), (439, 374), (428, 374), (402, 374), (386, 374), (371, 374), (354, 374), (322, 374), (288, 375), (265, 378), (233, 380)]",180.8213885926123,"[1, 5, 7, 9, 2, 6, 4, 8, 3]","(0, 0.25)",THI007B,THI,B,Chinese,Mon Oct 15 17:10:49 2018,Mouse
2,2,2,0,25,6,6,1,1912,121,1791,141,0,500,200,8000,"[(512, 384), (512, 384), (512, 384), (512, 384), (512, 384), (512, 384), (512, 384), (512, 384), (512, 384), (512, 384), (512, 384), (512, 384), (513, 384), (524, 384), (531, 384), (540, 384), (549, 384), (568, 384), (577, 384), (583, 384), (587, 384), (593, 384), (594, 384), (594, 384), (594, 384), (594, 384), (594, 384), (594, 384), (594, 384), (594, 384), (594, 384), (594, 384), (594, 384), (594, 384), (594, 384), (594, 384), (594, 384), (594, 384), (594, 384), (594, 384), (594, 384), (594, 384), (594, 384), (594, 384), (594, 384), (594, 384), (594, 384), (594, 384), (594, 384), (594, 384), (594, 384), (594, 384), (594, 384), (594, 384), (594, 384), (594, 384), (594, 384), (594, 384), (594, 384), (594, 384), (594, 384), (594, 384), (594, 384), (594, 384), (594, 384), (594, 384), (594, 384), (594, 384), (594, 384), (594, 384), (594, 384), (594, 384), (594, 384), (594, 384), (594, 384), (594, 384), (594, 384), (594, 384), (594, 384), (594, 384), (594, 384), (594, 384), (594, 384), (594, 384), (594, 384), (594, 384), (594, 384), (594, 384), (594, 384), (594, 384), (594, 384), (594, 384), (594, 384), (594, 384), (594, 384), (594, 384), (594, 384), (594, 384), (594, 384), (594, 384), (594, 384), (594, 384), (594, 384), (594, 384), (594, 384), (594, 384), (594, 384), (594, 384), (594, 384), (594, 384), (594, 384), (594, 384), (594, 384), (594, 384), (594, 384), (594, 384), (594, 384), (594, 384), (594, 384), (594, 384), (594, 384), (594, 384), (594, 384), (594, 384), (594, 384), (594, 384), (594, 384), (594, 384), (594, 384), (594, 384), (594, 384), (594, 384), (594, 384), (594, 384), (594, 384), (594, 384), (594, 384), (594, 384), (594, 384), (594, 384), (594, 384), (594, 384), (594, 384), (594, 384), (594, 384), (594, 384), (594, 384), (594, 384), (594, 384), (594, 384), (594, 384), (594, 384), (594, 384), (594, 384), (594, 384), (594, 384), (594, 384), (594, 384), (594, 384), (594, 384), (594, 384), (594, 384), (594, 384), (594, 384), (595, 384), (587, 376), (582, 371), (576, 364), (570, 356), (542, 332), (525, 319), (505, 304), (487, 291), (461, 271), (450, 261), (439, 252), (430, 243), (410, 227), (404, 221), (397, 215), (394, 213), (390, 209), (388, 208), (387, 206), (385, 206), (382, 204), (380, 204), (376, 203), (372, 201), (357, 198), (353, 196), (348, 195)]",229.05101091775666,"[1, 5, 7, 9, 2, 6, 4, 8, 3]","(0, 0.25)",THI007B,THI,B,Chinese,Mon Oct 15 17:10:49 2018,Mouse
2,2,2,0,26,2,2,1,931,701,230,141,0,500,200,8000,"[(512, 384), (512, 384), (512, 384), (512, 384), (512, 384), (512, 384), (512, 384), (512, 384), (512, 384), (512, 384), (512, 384), (512, 384), (512, 384), (512, 384), (512, 384), (512, 384), (512, 384), (512, 384), (512, 384), (512, 384), (512, 384), (512, 384), (512, 384), (512, 384), (512, 384), (512, 384), (512, 384), (512, 384), (512, 384), (512, 384), (512, 384), (512, 384), (512, 384), (512, 384), (512, 384), (512, 384), (512, 384), (512, 384), (512, 384), (512, 384), (512, 384), (512, 384), (512, 384), (512, 384), (512, 384), (512, 384), (512, 384), (512, 384), (512, 384), (512, 384), (512, 384), (512, 384), (512, 384), (512, 384), (512, 384), (512, 384), (512, 384), (512, 384), (512, 384), (512, 384), (512, 384), (512, 384), (512, 384), (512, 384), (512, 384), (512, 384), (512, 384), (512, 384), (512, 384), (512, 384), (510, 384), (510, 384), (510, 384), (510, 384), (510, 384), (510, 384), (510, 384), (510, 384), (506, 384), (501, 384), (490, 384), (479, 384), (467, 384), (440, 384), (421, 384), (401, 384), (372, 384), (355, 384), (340, 384), (327, 384), (300, 384), (287, 384), (272, 384), (262, 384)]",180.0,"[1, 5, 7, 9, 2, 6, 4, 8, 3]","(0, 0.25)",THI007B,THI,B,Chinese,Mon Oct 15 17:10:49 2018,Mouse
2,2,2,0,27,4,5,0,-2412,2282,130,140,0,500,200,8000,"[(512, 384), (512, 384), (512, 384), (512, 384), (512, 384), (512, 384), (512, 384), (512, 384), (512, 384), (512, 384), (512, 384), (512, 384), (512, 384), (512, 384), (512, 384), (512, 384), (512, 384), (512, 384), (512, 384), (512, 384), (512, 384), (512, 384), (512, 384), (512, 384), (512, 384), (512, 384), (512, 384), (512, 384), (512, 384), (512, 384), (512, 384), (512, 384), (512, 384), (512, 384), (512, 384), (512, 384), (512, 384), (512, 384), (512, 384), (512, 384), (512, 384), (512, 384), (512, 384), (512, 384), (512, 384), (512, 384), (512, 384), (512, 384), (512, 384), (512, 384), (512, 384), (512, 384), (512, 384), (512, 384), (512, 384), (512, 384), (512, 384), (512, 384), (512, 384), (512, 384), (512, 384), (512, 384), (512, 384), (512, 384), (512, 384), (512, 384), (512, 384), (512, 384), (512, 384), (512, 384), (512, 384), (512, 384), (512, 384), (512, 384), (512, 384), (512, 384), (512, 384), (512, 384), (512, 384), (512, 384), (512, 384), (512, 384), (512, 384), (512, 384), (512, 384), (512, 384), (512, 384), (512, 384), (512, 384), (512, 384), (512, 384), (512, 384), (512, 384), (512, 384), (512, 384), (512, 384), (512, 384), (512, 384), (512, 384), (512, 384), (512, 384), (512, 384), (512, 384), (512, 384), (512, 384), (512, 384), (512, 384), (512, 384), (512, 384), (512, 384), (512, 384), (512, 384), (512, 384), (512, 384), (512, 384), (512, 384), (512, 384), (512, 384), (512, 384), (512, 384), (512, 384), (512, 384), (512, 384), (512, 384), (512, 384), (512, 384), (512, 384), (512, 384), (512, 384), (512, 384), (512, 384), (512, 384), (512, 384), (512, 384), (512, 384), (512, 384), (512, 384), (512, 384), (512, 384), (512, 384), (512, 384), (512, 384), (512, 384), (512, 384), (512, 384), (512, 384), (512, 384), (512, 384), (512, 384), (512, 384), (512, 384), (512, 384), (512, 384), (512, 384), (512, 384), (512, 384), (512, 384), (512, 384), (512, 384), (512, 384), (512, 384), (512, 384), (512, 384), (512, 384), (512, 384), (512, 384), (512, 384), (512, 384), (512, 384), (512, 384), (512, 384), (512, 384), (512, 384), (512, 384), (512, 384), (512, 384), (512, 384), (512, 384), (512, 384), (512, 384), (512, 384), (512, 384), (512, 384), (512, 384), (512, 384), (512, 384), (512, 384), (512, 384), (512, 384), (512, 384), (512, 384), (512, 384), (512, 384), (512, 384), (512, 384), (512, 384), (512, 384), (512, 384), (512, 384), (512, 384), (512, 384), (512, 384), (512, 384), (512, 384), (512, 384), (512, 384), (512, 384), (512, 384), (512, 384), (512, 384), (512, 384), (512, 384), (512, 384), (512, 384), (512, 384), (512, 384), (512, 384), (512, 384), (512, 384), (512, 384), (512, 384), (512, 384), (512, 384), (512, 384), (512, 384), (512, 384), (512, 384), (512, 384), (512, 387), (513, 402), (516, 406), (518, 414), (520, 423), (529, 441), (532, 448), (538, 457), (545, 468), (568, 503), (583, 531), (599, 558), (614, 582), (630, 612)]",62.636453072608305,"[1, 5, 7, 9, 2, 6, 4, 8, 3]","(0, 0.25)",THI007B,THI,B,Chinese,Mon Oct 15 17:10:49 2018,Mouse
2,2,2,0,28,2,2,1,2714,1514,1200,141,0,500,200,8000,"[(512, 384), (512, 384), (512, 384), (512, 384), (512, 384), (512, 384), (512, 384), (512, 384), (512, 384), (512, 384), (512, 384), (512, 384), (512, 384), (512, 384), (512, 384), (512, 384), (512, 384), (512, 384), (512, 384), (512, 384), (512, 384), (512, 384), (512, 384), (512, 384), (512, 384), (512, 384), (512, 384), (512, 384), (512, 384), (512, 384), (512, 384), (512, 384), (512, 384), (512, 384), (512, 384), (512, 384), (512, 384), (512, 384), (512, 384), (512, 384), (512, 384), (512, 384), (512, 384), (512, 384), (512, 384), (512, 384), (512, 384), (512, 384), (512, 384), (512, 384), (512, 384), (512, 384), (512, 384), (512, 384), (512, 384), (512, 384), (512, 384), (512, 384), (512, 384), (512, 384), (512, 384), (512, 384), (512, 384), (512, 384), (512, 384), (512, 384), (512, 384), (512, 384), (512, 384), (512, 384), (512, 384), (512, 384), (512, 384), (512, 384), (512, 384), (512, 384), (512, 384), (512, 384), (512, 384), (512, 384), (512, 384), (512, 384), (512, 384), (512, 384), (512, 384), (512, 384), (512, 384), (512, 384), (512, 384), (512, 384), (512, 384), (512, 384), (512, 384), (512, 384), (512, 384), (512, 384), (512, 384), (512, 384), (512, 384), (512, 384), (512, 384), (512, 384), (512, 384), (512, 384), (512, 384), (512, 384), (512, 384), (512, 384), (512, 384), (512, 384), (512, 384), (512, 384), (512, 384), (512, 384), (512, 384), (512, 384), (512, 384), (512, 384), (512, 384), (512, 384), (512, 384), (512, 384), (512, 384), (512, 384), (512, 384), (512, 384), (512, 384), (512, 384), (512, 384), (512, 384), (512, 384), (512, 384), (512, 384), (512, 384), (512, 384), (512, 384), (512, 384), (512, 384), (512, 384), (512, 384), (512, 384), (512, 384), (512, 384), (512, 384), (512, 384), (512, 384), (512, 384), (512, 384), (512, 384), (512, 384), (512, 384), (511, 384), (511, 384), (511, 384), (511, 384), (511, 384), (511, 384), (511, 384), (511, 384), (511, 384), (511, 384), (511, 384), (511, 384), (511, 384), (511, 384), (511, 384), (511, 384), (511, 384), (511, 384), (511, 384), (511, 384), (511, 384), (511, 384), (511, 384), (511, 384), (511, 384), (511, 384), (511, 384), (511, 384), (511, 384), (511, 384), (511, 384), (511, 384), (511, 384), (511, 384), (511, 384), (511, 384), (511, 384), (511, 384), (511, 384), (511, 384), (509, 386), (508, 392), (507, 397), (504, 403), (502, 410), (502, 411), (502, 412), (502, 412), (502, 412), (502, 412), (502, 412), (502, 412), (502, 412), (502, 412), (502, 412), (502, 412), (502, 412), (502, 412), (502, 412), (502, 412), (502, 412), (502, 412), (502, 412), (502, 412), (502, 412), (502, 412), (502, 412), (502, 412), (502, 412), (502, 412), (502, 412), (502, 412), (502, 412), (502, 412), (502, 412), (502, 412), (502, 412), (502, 412), (502, 412), (502, 412), (502, 412), (502, 412), (502, 412), (502, 412), (502, 412), (502, 412), (502, 412), (502, 412), (502, 412), (502, 412), (501, 413), (501, 413), (501, 413), (501, 413), (501, 413), (501, 413), (501, 413), (501, 413), (501, 413), (501, 413), (501, 413), (501, 413), (501, 413), (501, 413), (501, 413), (501, 413), (501, 413), (501, 413), (501, 413), (501, 413), (498, 413), (492, 413), (475, 408), (464, 405), (452, 404), (435, 403), (397, 400), (371, 400), (330, 400), (296, 400), (227, 400)]",176.78676775828063,"[1, 5, 7, 9, 2, 6, 4, 8, 3]","(0, 0.25)",THI007B,THI,B,Chinese,Mon Oct 15 17:10:49 2018,Mouse
2,2,2,0,29,4,4,1,1182,1012,170,141,0,500,200,8000,"[(512, 384), (512, 384), (512, 384), (512, 384), (512, 384), (512, 384), (512, 384), (512, 384), (512, 384), (512, 384), (512, 384), (512, 384), (512, 384), (512, 384), (512, 384), (512, 384), (512, 384), (512, 384), (512, 384), (512, 384), (512, 384), (512, 384), (512, 384), (512, 384), (512, 384), (512, 384), (512, 384), (512, 384), (512, 384), (512, 384), (512, 384), (512, 384), (512, 384), (512, 384), (512, 384), (512, 384), (512, 384), (512, 384), (512, 384), (512, 384), (512, 384), (512, 384), (512, 384), (512, 384), (512, 384), (512, 384), (512, 384), (512, 384), (512, 384), (512, 384), (512, 384), (512, 384), (512, 384), (512, 384), (512, 384), (512, 384), (512, 384), (512, 384), (512, 384), (512, 384), (512, 384), (512, 384), (512, 384), (512, 384), (512, 384), (512, 384), (512, 384), (512, 384), (512, 384), (512, 384), (512, 384), (512, 384), (512, 384), (512, 384), (512, 384), (512, 384), (512, 384), (512, 384), (512, 384), (512, 384), (512, 384), (512, 384), (512, 384), (512, 384), (512, 384), (512, 384), (512, 384), (512, 384), (512, 384), (512, 384), (512, 384), (512, 384), (512, 384), (512, 384), (512, 384), (512, 384), (512, 384), (512, 384), (512, 384), (512, 384), (512, 384), (512, 382), (512, 381), (512, 378), (510, 376), (510, 374), (510, 369), (510, 366), (509, 355), (507, 344), (505, 329), (501, 305), (483, 253), (474, 233), (467, 215), (460, 195), (453, 170), (448, 154), (446, 141)]",254.80475147318012,"[1, 5, 7, 9, 2, 6, 4, 8, 3]","(0, 0.25)",THI007B,THI,B,Chinese,Mon Oct 15 17:10:49 2018,Mouse
2,2,2,0,30,3,3,1,556,17,539,140,0,500,200,8000,"[(512, 384), (519, 388), (520, 389), (521, 389), (523, 391), (525, 392), (525, 393), (526, 394), (526, 394), (527, 395), (527, 395), (527, 395), (527, 395), (527, 395), (527, 395), (527, 395), (527, 395), (527, 395), (527, 395), (527, 395), (527, 395), (527, 395), (527, 395), (527, 395), (527, 395), (527, 395), (527, 395), (527, 395), (527, 395), (531, 395), (538, 395), (547, 395), (555, 395), (565, 395), (568, 395), (572, 395), (578, 394), (584, 393), (590, 393), (595, 392), (601, 389), (613, 385), (619, 383), (625, 381), (630, 379), (636, 374), (648, 367), (657, 362), (666, 356), (685, 343), (692, 339), (700, 333), (707, 328), (726, 316), (738, 309), (751, 302)]",341.0630984915027,"[1, 5, 7, 9, 2, 6, 4, 8, 3]","(0, 0.25)",THI007B,THI,B,Chinese,Mon Oct 15 17:10:49 2018,Mouse
2,2,2,0,31,4,5,0,-3402,502,2900,139,0,500,200,8000,"[(512, 384), (512, 384), (512, 384), (512, 384), (512, 384), (512, 384), (512, 384), (512, 384), (512, 384), (512, 384), (512, 384), (512, 384), (512, 384), (512, 384), (512, 384), (512, 384), (512, 384), (512, 384), (512, 384), (512, 384), (512, 384), (512, 384), (512, 384), (512, 384), (512, 384), (512, 384), (512, 384), (512, 384), (512, 384), (512, 384), (512, 384), (512, 384), (512, 384), (512, 384), (512, 384), (512, 384), (512, 384), (512, 384), (512, 384), (512, 384), (512, 384), (512, 384), (512, 384), (512, 384), (512, 384), (512, 384), (512, 384), (512, 384), (512, 384), (512, 384), (510, 384), (508, 384), (508, 384), (508, 384), (508, 384), (508, 384), (508, 384), (507, 383), (506, 382), (505, 381), (504, 379), (504, 378), (502, 376), (501, 374), (500, 371), (499, 366), (497, 360), (497, 358), (496, 355), (496, 352), (496, 348), (496, 347), (496, 343), (499, 337), (502, 325), (506, 318), (510, 309), (513, 302), (519, 286), (522, 281), (526, 276), (530, 270), (535, 263), (537, 261), (539, 260), (540, 259), (540, 259), (540, 259), (540, 259), (540, 259), (540, 259), (540, 259), (540, 259), (540, 259), (540, 259), (540, 259), (540, 259), (540, 259), (540, 259), (540, 259), (540, 259), (540, 259), (540, 259), (541, 261), (542, 263), (542, 267), (543, 273), (543, 273), (543, 273), (543, 273), (543, 273), (543, 273), (543, 273), (543, 273), (543, 273), (543, 273), (543, 273), (543, 273), (543, 273), (543, 273), (543, 273), (543, 273), (543, 273), (543, 273), (543, 273), (543, 273), (543, 273), (543, 273), (543, 273), (543, 273), (543, 273), (543, 273), (543, 273), (543, 273), (543, 273), (543, 273), (543, 273), (543, 273), (543, 273), (543, 273), (543, 273), (545, 278), (547, 280), (547, 280), (547, 280), (547, 280), (547, 280), (547, 280), (547, 280), (547, 280), (547, 280), (547, 280), (547, 280), (547, 280), (547, 280), (547, 280), (547, 280), (547, 280), (547, 280), (547, 280), (547, 280), (547, 280), (547, 280), (547, 280), (547, 280), (547, 281), (535, 281), (521, 281), (508, 281), (493, 281), (465, 281), (453, 284), (442, 285), (435, 287), (418, 292), (415, 294), (410, 297), (405, 298), (403, 301), (403, 301), (402, 302), (402, 302), (402, 302), (402, 303), (402, 303), (402, 303), (402, 303), (402, 303), (402, 304), (402, 305), (402, 305), (402, 305), (402, 305), (402, 305), (402, 305), (402, 305), (402, 305), (402, 305), (402, 305), (402, 305), (402, 305), (402, 305), (402, 305), (402, 305), (402, 305), (402, 305), (402, 305), (402, 305), (402, 305), (402, 305), (402, 305), (402, 305), (402, 305), (402, 305), (402, 305), (402, 305), (402, 305), (402, 305), (402, 305), (402, 305), (402, 305), (402, 305), (402, 305), (402, 305), (402, 305), (402, 305), (402, 305), (402, 305), (402, 305), (402, 305), (402, 305), (402, 305), (402, 305), (402, 305), (402, 305), (402, 305), (402, 305), (402, 305), (402, 305), (402, 305), (402, 305), (402, 305), (402, 305), (402, 305), (402, 305), (402, 305), (402, 305), (402, 305), (402, 305), (402, 305), (402, 305), (402, 305), (402, 305), (402, 305), (402, 305), (402, 305), (402, 305), (402, 305), (402, 305), (402, 305), (402, 305), (402, 305), (402, 305), (402, 305), (402, 305), (402, 305), (402, 305), (402, 305), (402, 305), (402, 305), (402, 305), (402, 305), (402, 305), (402, 305), (402, 305), (402, 305), (402, 305), (402, 305), (402, 305), (402, 305), (402, 305), (402, 305), (402, 305), (402, 305), (402, 305), (402, 305), (402, 305), (402, 305), (404, 309), (406, 310), (408, 312), (411, 313), (411, 314), (413, 314), (415, 316), (416, 316), (416, 316), (416, 316), (416, 316), (416, 316), (416, 316), (416, 316), (416, 316), (416, 316), (416, 316), (416, 316), (416, 316), (416, 316), (416, 316), (416, 316), (416, 316), (416, 316), (416, 316), (416, 316), (416, 316), (417, 317), (417, 317), (417, 318), (420, 321), (421, 322), (423, 324), (426, 326), (430, 329), (431, 331), (435, 332), (437, 335), (442, 339), (447, 343), (450, 345), (456, 350), (470, 361), (478, 368), (485, 375), (495, 387), (516, 420), (528, 442), (545, 469), (563, 500), (596, 559), (616, 592), (636, 625)]",62.77314581986668,"[1, 5, 7, 9, 2, 6, 4, 8, 3]","(0, 0.25)",THI007B,THI,B,Chinese,Mon Oct 15 17:10:49 2018,Mouse
2,2,2,0,32,2,2,1,1432,182,1250,140,0,500,200,8000,"[(512, 384), (512, 384), (512, 384), (512, 384), (512, 384), (512, 384), (512, 384), (512, 384), (512, 384), (512, 384), (512, 384), (512, 384), (512, 384), (512, 384), (512, 384), (512, 384), (512, 384), (512, 384), (513, 383), (513, 382), (513, 381), (513, 381), (513, 380), (513, 379), (513, 378), (514, 378), (514, 377), (515, 375), (515, 375), (515, 375), (516, 374), (516, 374), (516, 374), (516, 374), (516, 374), (516, 374), (516, 374), (516, 374), (516, 373), (516, 373), (516, 373), (516, 373), (516, 373), (516, 373), (516, 373), (516, 373), (516, 373), (516, 373), (516, 373), (516, 373), (516, 373), (519, 371), (519, 370), (522, 369), (525, 368), (525, 367), (526, 366), (526, 366), (526, 366), (526, 366), (526, 366), (526, 366), (526, 366), (526, 366), (526, 366), (526, 366), (526, 366), (526, 366), (526, 366), (526, 366), (526, 366), (526, 366), (526, 366), (526, 366), (526, 366), (526, 366), (526, 366), (526, 366), (526, 366), (526, 366), (526, 366), (526, 366), (526, 366), (526, 366), (526, 366), (526, 366), (526, 366), (526, 366), (526, 366), (526, 366), (526, 366), (526, 366), (526, 366), (526, 366), (526, 366), (526, 366), (526, 366), (526, 366), (526, 366), (526, 366), (526, 365), (526, 365), (525, 364), (525, 364), (522, 364), (522, 364), (519, 362), (519, 362), (518, 362), (516, 362), (513, 362), (512, 362), (511, 361), (511, 361), (511, 361), (511, 361), (511, 361), (511, 361), (511, 361), (511, 361), (511, 361), (511, 361), (511, 361), (511, 361), (511, 361), (511, 361), (511, 361), (511, 361), (511, 361), (511, 361), (511, 361), (511, 361), (511, 361), (511, 361), (506, 361), (498, 361), (487, 361), (473, 362), (441, 364), (418, 365), (387, 367), (349, 370), (265, 374), (226, 374)]",182.00253313182688,"[1, 5, 7, 9, 2, 6, 4, 8, 3]","(0, 0.25)",THI007B,THI,B,Chinese,Mon Oct 15 17:10:49 2018,Mouse
2,2,2,0,33,8,3,0,-1661,621,1040,140,0,500,200,8000,"[(512, 384), (512, 384), (512, 384), (512, 384), (512, 384), (512, 384), (512, 384), (512, 384), (512, 384), (512, 384), (512, 384), (512, 384), (512, 384), (512, 384), (512, 384), (512, 384), (512, 384), (512, 384), (512, 384), (512, 384), (512, 384), (512, 384), (512, 384), (512, 384), (512, 384), (512, 384), (512, 384), (512, 384), (512, 384), (512, 384), (512, 384), (512, 384), (512, 384), (512, 384), (512, 384), (512, 384), (512, 384), (512, 384), (512, 384), (512, 384), (512, 384), (512, 384), (512, 384), (512, 384), (512, 384), (512, 384), (512, 384), (512, 384), (512, 384), (512, 384), (512, 384), (512, 384), (512, 384), (512, 384), (512, 384), (512, 384), (512, 384), (512, 384), (512, 384), (512, 384), (512, 384), (512, 384), (516, 384), (524, 384), (531, 381), (541, 379), (560, 373), (570, 371), (577, 370), (587, 368), (600, 363), (605, 361), (608, 360), (610, 360), (611, 359), (611, 359), (611, 359), (611, 359), (611, 359), (611, 359), (611, 359), (611, 359), (611, 359), (611, 359), (611, 359), (611, 359), (611, 359), (611, 359), (611, 359), (611, 359), (611, 359), (611, 359), (611, 359), (611, 359), (611, 359), (611, 359), (611, 359), (611, 359), (611, 359), (611, 359), (611, 359), (611, 359), (611, 359), (611, 359), (611, 359), (611, 359), (611, 359), (611, 359), (611, 359), (611, 359), (611, 359), (611, 359), (611, 359), (611, 359), (611, 359), (611, 359), (611, 359), (611, 359), (611, 359), (611, 359), (611, 359), (611, 359), (611, 359), (611, 359), (611, 359), (611, 359), (611, 359), (611, 359), (611, 359), (611, 359), (611, 359), (611, 359), (611, 359), (611, 359), (611, 359), (611, 359), (611, 359), (611, 359), (611, 359), (611, 359), (611, 359), (611, 359), (611, 359), (611, 359), (611, 359), (611, 359), (611, 359), (611, 359), (611, 359), (611, 359), (611, 359), (611, 359), (611, 359), (611, 359), (611, 359), (611, 359), (611, 359), (611, 359), (611, 359), (611, 359), (611, 359), (611, 359), (635, 355), (664, 352), (699, 346), (740, 339), (824, 310)]",346.657166301577,"[1, 5, 7, 9, 2, 6, 4, 8, 3]","(0, 0.25)",THI007B,THI,B,Chinese,Mon Oct 15 17:10:49 2018,Mouse
2,2,2,0,34,7,7,1,2472,1653,819,141,0,500,200,8000,"[(512, 384), (512, 384), (512, 384), (512, 384), (512, 384), (512, 384), (512, 384), (512, 384), (512, 384), (512, 384), (512, 384), (512, 384), (512, 384), (512, 384), (512, 384), (512, 384), (512, 384), (512, 384), (512, 384), (512, 384), (512, 384), (512, 384), (512, 384), (512, 384), (512, 384), (512, 384), (512, 384), (512, 384), (512, 384), (512, 384), (512, 384), (512, 384), (512, 384), (512, 384), (512, 384), (512, 384), (512, 384), (512, 384), (512, 384), (512, 384), (512, 384), (512, 384), (512, 384), (512, 384), (512, 384), (512, 384), (512, 384), (512, 384), (512, 384), (512, 384), (512, 384), (512, 384), (512, 384), (512, 384), (512, 384), (512, 384), (512, 384), (512, 384), (512, 384), (512, 384), (512, 384), (512, 384), (512, 384), (512, 384), (512, 384), (512, 384), (512, 384), (512, 384), (512, 384), (512, 384), (512, 384), (512, 384), (512, 384), (512, 384), (512, 384), (512, 384), (512, 384), (512, 384), (512, 384), (512, 384), (512, 384), (512, 384), (512, 384), (512, 384), (512, 384), (512, 384), (512, 384), (512, 384), (512, 384), (512, 384), (512, 384), (512, 384), (512, 384), (512, 384), (512, 384), (512, 384), (512, 384), (512, 384), (512, 384), (512, 384), (512, 384), (512, 384), (512, 384), (512, 384), (512, 384), (512, 384), (512, 384), (512, 384), (512, 384), (512, 384), (512, 384), (512, 384), (512, 384), (512, 384), (512, 384), (512, 384), (512, 384), (512, 384), (512, 384), (512, 384), (512, 384), (512, 384), (512, 384), (512, 384), (512, 384), (512, 384), (512, 384), (512, 384), (512, 384), (512, 384), (512, 384), (512, 384), (512, 384), (512, 384), (512, 384), (512, 384), (512, 384), (512, 384), (512, 384), (512, 384), (512, 384), (512, 384), (512, 384), (512, 384), (512, 384), (512, 384), (512, 384), (512, 384), (512, 384), (512, 384), (512, 384), (512, 384), (512, 384), (512, 384), (512, 384), (512, 384), (512, 384), (512, 384), (512, 384), (512, 384), (512, 384), (512, 384), (512, 384), (512, 384), (512, 384), (512, 386), (510, 390), (503, 393), (490, 401), (484, 406), (479, 408), (472, 413), (458, 419), (455, 420), (454, 420), (453, 420), (453, 420), (453, 420), (453, 420), (453, 420), (453, 420), (453, 420), (453, 420), (453, 420), (453, 420), (453, 420), (453, 420), (453, 420), (453, 420), (453, 420), (453, 420), (453, 420), (453, 420), (453, 420), (453, 420), (453, 420), (453, 420), (453, 420), (453, 420), (453, 420), (453, 420), (453, 420), (453, 420), (453, 420), (453, 420), (453, 420), (453, 420), (453, 420), (453, 420), (453, 420), (453, 420), (453, 420), (453, 420), (453, 420), (453, 420), (453, 420), (453, 420), (453, 420), (453, 420), (453, 420), (453, 420), (453, 420), (453, 420), (453, 420), (453, 420), (453, 420), (453, 420), (453, 420), (453, 420), (453, 420), (453, 421), (453, 421), (453, 425), (455, 432), (458, 442), (461, 453), (467, 484), (468, 499), (470, 513), (472, 527), (474, 555), (474, 572), (474, 584), (474, 595), (474, 614), (474, 622), (474, 630), (474, 636)]",98.57523263983522,"[1, 5, 7, 9, 2, 6, 4, 8, 3]","(0, 0.25)",THI007B,THI,B,Chinese,Mon Oct 15 17:10:49 2018,Mouse
2,2,2,0,35,8,8,1,3592,2172,1420,141,0,500,200,8000,"[(512, 384), (512, 384), (512, 384), (512, 384), (512, 384), (512, 384), (512, 384), (512, 384), (512, 384), (512, 384), (512, 384), (512, 384), (512, 384), (512, 384), (512, 384), (512, 384), (512, 384), (512, 384), (512, 384), (512, 384), (512, 384), (512, 384), (512, 384), (512, 384), (512, 384), (512, 384), (512, 384), (512, 384), (512, 384), (512, 384), (512, 384), (512, 384), (512, 384), (512, 384), (512, 384), (512, 384), (512, 384), (512, 384), (512, 384), (512, 384), (512, 384), (512, 384), (512, 384), (512, 384), (512, 384), (512, 384), (512, 384), (512, 384), (512, 384), (512, 384), (512, 384), (512, 384), (512, 384), (512, 384), (512, 384), (512, 384), (512, 384), (512, 384), (512, 384), (512, 384), (512, 384), (512, 384), (512, 384), (512, 384), (512, 384), (512, 384), (512, 384), (512, 384), (512, 384), (512, 384), (512, 384), (512, 384), (512, 384), (512, 384), (512, 384), (512, 384), (512, 384), (512, 384), (512, 384), (512, 384), (512, 384), (512, 384), (512, 384), (512, 384), (512, 384), (512, 384), (512, 384), (512, 384), (512, 384), (512, 384), (512, 384), (512, 384), (512, 384), (512, 384), (512, 384), (512, 384), (512, 384), (512, 384), (512, 384), (512, 384), (512, 384), (512, 384), (512, 384), (512, 384), (512, 384), (512, 384), (512, 384), (512, 384), (512, 384), (512, 384), (512, 384), (512, 384), (512, 384), (512, 384), (512, 384), (512, 384), (512, 384), (512, 384), (512, 384), (512, 384), (512, 384), (512, 384), (512, 384), (512, 384), (512, 384), (512, 384), (512, 384), (512, 384), (512, 384), (512, 384), (512, 384), (512, 384), (512, 384), (512, 384), (512, 384), (512, 384), (512, 384), (512, 384), (512, 384), (512, 384), (512, 384), (512, 384), (512, 384), (512, 384), (512, 384), (512, 384), (512, 384), (512, 384), (512, 384), (512, 384), (512, 384), (512, 384), (512, 384), (512, 384), (512, 384), (512, 384), (512, 384), (512, 384), (512, 384), (512, 384), (512, 384), (512, 384), (512, 384), (512, 384), (512, 384), (512, 384), (512, 384), (512, 384), (512, 384), (512, 384), (512, 384), (512, 384), (512, 384), (512, 384), (512, 384), (512, 384), (512, 384), (512, 384), (512, 384), (512, 384), (512, 384), (512, 384), (512, 384), (512, 384), (512, 384), (512, 384), (512, 384), (512, 384), (512, 384), (512, 384), (512, 384), (512, 384), (512, 384), (512, 384), (512, 384), (512, 384), (512, 384), (512, 384), (512, 384), (512, 384), (512, 384), (512, 384), (512, 384), (512, 384), (512, 384), (512, 384), (512, 384), (512, 384), (512, 384), (512, 384), (512, 384), (512, 384), (512, 384), (512, 384), (512, 384), (512, 384), (512, 384), (512, 382), (512, 379), (512, 378), (511, 377), (511, 377), (511, 377), (511, 377), (511, 377), (511, 376), (511, 376), (511, 376), (511, 376), (511, 376), (511, 376), (511, 376), (511, 376), (511, 376), (511, 376), (511, 376), (511, 376), (511, 376), (511, 376), (511, 376), (511, 376), (511, 376), (511, 376), (511, 376), (511, 376), (511, 376), (511, 376), (511, 376), (511, 376), (511, 376), (511, 376), (511, 376), (511, 376), (511, 376), (511, 376), (511, 376), (511, 376), (511, 376), (511, 376), (511, 376), (511, 376), (511, 376), (511, 376), (511, 376), (511, 376), (511, 376), (511, 376), (511, 376), (511, 376), (511, 376), (511, 376), (511, 376), (511, 376), (511, 376), (511, 376), (511, 376), (511, 376), (511, 376), (511, 376), (511, 376), (511, 376), (511, 376), (511, 376), (511, 376), (511, 376), (511, 376), (511, 376), (511, 376), (511, 376), (511, 376), (511, 376), (511, 376), (511, 376), (511, 376), (511, 376), (511, 376), (511, 376), (511, 376), (511, 376), (511, 376), (511, 376), (511, 376), (511, 376), (511, 376), (511, 376), (511, 376), (511, 376), (511, 376), (511, 376), (511, 376), (511, 376), (511, 376), (511, 376), (511, 376), (511, 376), (511, 376), (511, 376), (511, 376), (511, 376), (511, 376), (511, 376), (512, 373), (514, 371), (516, 370), (516, 368), (519, 365), (522, 363), (523, 362), (524, 362), (525, 361), (525, 360), (527, 359), (529, 357), (533, 355), (533, 355), (535, 354), (535, 354), (535, 354), (535, 354), (535, 354), (535, 354), (535, 354), (535, 354), (535, 354), (535, 354), (535, 354), (535, 354), (535, 354), (535, 354), (538, 348), (542, 343), (550, 334), (558, 323), (577, 297), (585, 286), (597, 268), (609, 246), (636, 209), (646, 191), (654, 175)]",304.1932008456587,"[1, 5, 7, 9, 2, 6, 4, 8, 3]","(0, 0.25)",THI007B,THI,B,Chinese,Mon Oct 15 17:10:49 2018,Mouse
2,2,2,0,36,6,6,1,1242,1032,210,140,0,500,200,8000,"[(512, 384), (512, 384), (512, 384), (512, 384), (512, 384), (512, 384), (512, 384), (512, 384), (512, 384), (512, 384), (512, 384), (512, 384), (512, 384), (512, 384), (512, 384), (512, 384), (512, 384), (512, 384), (512, 384), (512, 384), (512, 384), (512, 384), (512, 384), (512, 384), (512, 384), (512, 384), (512, 384), (512, 384), (512, 384), (512, 384), (512, 384), (512, 384), (512, 384), (512, 384), (512, 384), (512, 384), (512, 384), (512, 384), (512, 384), (512, 384), (512, 384), (512, 384), (512, 384), (512, 384), (512, 384), (512, 384), (512, 384), (512, 384), (512, 384), (512, 384), (512, 384), (512, 384), (512, 384), (512, 384), (512, 384), (512, 384), (512, 384), (512, 384), (512, 384), (512, 384), (512, 384), (512, 384), (512, 384), (512, 384), (512, 384), (512, 384), (512, 384), (512, 384), (512, 384), (512, 384), (512, 384), (512, 384), (512, 384), (512, 384), (512, 384), (512, 384), (512, 384), (512, 384), (512, 384), (512, 384), (512, 384), (512, 384), (512, 384), (512, 384), (512, 384), (512, 384), (512, 384), (512, 384), (512, 384), (512, 384), (512, 384), (512, 384), (512, 384), (512, 384), (512, 384), (512, 384), (512, 384), (512, 384), (512, 384), (512, 384), (512, 384), (512, 384), (512, 384), (512, 382), (503, 375), (492, 367), (473, 353), (466, 349), (457, 345), (450, 342), (438, 338), (437, 337), (433, 335), (433, 334), (428, 331), (425, 325), (419, 315), (413, 302), (397, 267), (384, 245), (371, 226), (364, 217), (350, 203), (347, 200), (343, 197)]",227.89451269235752,"[1, 5, 7, 9, 2, 6, 4, 8, 3]","(0, 0.25)",THI007B,THI,B,Chinese,Mon Oct 15 17:10:49 2018,Mouse
2,2,2,0,37,1,1,1,972,792,180,139,0,500,200,8000,"[(512, 384), (512, 384), (512, 384), (512, 384), (512, 384), (512, 384), (512, 384), (512, 384), (512, 384), (512, 384), (512, 384), (512, 384), (512, 384), (512, 384), (512, 384), (512, 384), (512, 384), (512, 384), (512, 384), (512, 384), (512, 384), (512, 384), (512, 384), (512, 384), (512, 384), (512, 384), (512, 384), (512, 384), (512, 384), (512, 384), (512, 384), (512, 384), (512, 384), (512, 384), (512, 384), (512, 384), (512, 384), (512, 384), (512, 384), (512, 384), (512, 384), (512, 384), (512, 384), (512, 384), (512, 384), (512, 384), (512, 384), (512, 384), (512, 384), (512, 384), (512, 384), (512, 384), (512, 384), (512, 384), (512, 384), (512, 384), (512, 384), (512, 384), (512, 384), (512, 384), (512, 384), (512, 384), (512, 384), (512, 384), (512, 384), (512, 384), (512, 384), (512, 384), (512, 384), (512, 384), (512, 384), (512, 384), (512, 384), (512, 384), (512, 384), (512, 384), (512, 384), (512, 384), (512, 384), (514, 389), (522, 394), (532, 400), (551, 407), (561, 412), (572, 416), (582, 421), (604, 430), (617, 434), (630, 440), (641, 445), (668, 455), (678, 459), (691, 464), (701, 469), (721, 478), (730, 480), (740, 483), (747, 485)]",23.25741572861868,"[1, 5, 7, 9, 2, 6, 4, 8, 3]","(0, 0.25)",THI007B,THI,B,Chinese,Mon Oct 15 17:10:49 2018,Mouse
2,2,2,0,38,8,2,0,-673,383,290,138,0,500,200,8000,"[(512, 384), (512, 384), (512, 384), (512, 384), (512, 384), (512, 384), (512, 384), (512, 384), (512, 384), (512, 384), (512, 384), (512, 384), (512, 384), (512, 384), (512, 384), (512, 384), (512, 384), (512, 384), (512, 384), (512, 384), (512, 384), (512, 384), (512, 384), (512, 384), (512, 384), (512, 384), (512, 384), (512, 384), (512, 384), (512, 384), (512, 384), (512, 384), (512, 384), (512, 384), (512, 384), (512, 384), (512, 384), (512, 384), (512, 383), (510, 381), (509, 381), (508, 379), (508, 379), (508, 379), (508, 379), (508, 378), (508, 378), (508, 378), (506, 378), (503, 378), (503, 378), (501, 378), (500, 378), (496, 378), (494, 378), (490, 378), (486, 378), (468, 378), (456, 378), (443, 378), (426, 378), (384, 378), (356, 378), (336, 378), (323, 378), (292, 380), (275, 382), (254, 385)]",179.77792444730653,"[1, 5, 7, 9, 2, 6, 4, 8, 3]","(0, 0.25)",THI007B,THI,B,Chinese,Mon Oct 15 17:10:49 2018,Mouse
2,2,2,0,39,9,9,1,1394,374,1020,139,0,500,200,8000,"[(512, 384), (512, 384), (512, 384), (512, 384), (512, 384), (512, 384), (512, 384), (512, 384), (512, 384), (512, 384), (512, 384), (512, 384), (512, 384), (512, 384), (512, 384), (512, 384), (512, 384), (512, 384), (512, 384), (512, 384), (512, 384), (512, 384), (512, 384), (512, 384), (512, 384), (512, 384), (512, 384), (512, 384), (512, 384), (512, 384), (512, 384), (512, 384), (512, 384), (512, 384), (512, 384), (512, 384), (512, 384), (512, 381), (512, 379), (512, 379), (512, 378), (512, 378), (512, 378), (512, 376), (512, 376), (512, 376), (512, 376), (512, 375), (512, 375), (512, 375), (512, 374), (512, 374), (512, 374), (511, 373), (511, 373), (510, 372), (510, 371), (508, 369), (508, 369), (507, 369), (506, 368), (506, 368), (505, 366), (505, 366), (505, 366), (505, 366), (505, 366), (505, 366), (505, 366), (505, 366), (505, 366), (505, 366), (505, 366), (505, 366), (505, 366), (505, 366), (505, 366), (505, 366), (505, 366), (505, 366), (505, 366), (505, 366), (505, 366), (505, 366), (505, 366), (505, 366), (505, 366), (505, 366), (505, 366), (505, 369), (505, 372), (507, 374), (507, 375), (508, 376), (508, 376), (508, 376), (508, 376), (508, 377), (508, 377), (508, 377), (508, 377), (508, 377), (508, 377), (508, 377), (508, 377), (508, 377), (508, 377), (508, 377), (508, 377), (508, 377), (508, 377), (508, 377), (508, 377), (508, 377), (508, 377), (508, 377), (508, 377), (508, 377), (508, 377), (510, 378), (510, 379), (510, 382), (510, 382), (510, 382), (510, 382), (510, 382), (505, 385), (500, 389), (490, 394), (479, 404), (470, 411), (463, 417), (452, 424), (430, 440), (413, 451), (392, 464), (373, 474), (321, 504), (305, 513), (287, 522)]",148.47782275324133,"[1, 5, 7, 9, 2, 6, 4, 8, 3]","(0, 0.25)",THI007B,THI,B,Chinese,Mon Oct 15 17:10:49 2018,Mouse
2,2,2,0,40,7,3,0,-832,652,180,139,0,500,200,8000,"[(512, 384), (512, 384), (512, 384), (512, 384), (512, 384), (512, 384), (512, 384), (512, 384), (512, 384), (512, 384), (512, 384), (512, 384), (512, 384), (512, 384), (512, 384), (512, 384), (512, 384), (512, 384), (512, 384), (512, 384), (512, 384), (512, 384), (512, 384), (512, 384), (512, 384), (512, 384), (512, 384), (512, 384), (512, 384), (512, 384), (512, 384), (512, 384), (512, 384), (512, 384), (512, 384), (512, 384), (512, 384), (512, 384), (512, 384), (512, 384), (512, 384), (512, 384), (512, 384), (512, 384), (512, 384), (512, 384), (512, 384), (512, 384), (512, 384), (512, 384), (512, 384), (512, 384), (512, 384), (512, 384), (512, 384), (512, 384), (512, 384), (512, 384), (512, 384), (512, 384), (512, 384), (512, 384), (512, 384), (512, 384), (512, 384), (511, 381), (512, 376), (515, 374), (520, 371), (529, 366), (549, 357), (562, 352), (570, 348), (576, 344), (595, 334), (605, 328), (615, 322), (627, 315), (651, 301), (665, 294), (677, 288), (692, 282), (727, 270), (739, 267)]",332.73258390803943,"[1, 5, 7, 9, 2, 6, 4, 8, 3]","(0, 0.25)",THI007B,THI,B,Chinese,Mon Oct 15 17:10:49 2018,Mouse
2,2,2,0,41,8,7,0,-985,805,180,140,0,500,200,8000,"[(512, 384), (512, 384), (512, 384), (512, 384), (512, 384), (512, 384), (512, 384), (512, 384), (512, 384), (512, 384), (512, 384), (512, 384), (512, 384), (512, 384), (512, 384), (512, 384), (512, 384), (512, 384), (512, 384), (512, 384), (512, 384), (512, 384), (512, 384), (512, 384), (512, 384), (512, 384), (512, 384), (512, 384), (512, 384), (512, 384), (512, 384), (512, 384), (512, 384), (512, 384), (512, 384), (512, 384), (512, 384), (512, 384), (512, 384), (512, 384), (512, 384), (512, 384), (512, 384), (512, 384), (512, 384), (512, 384), (512, 384), (512, 384), (512, 384), (512, 384), (512, 384), (512, 384), (512, 384), (512, 384), (512, 384), (512, 384), (512, 384), (512, 384), (512, 384), (512, 384), (512, 384), (512, 384), (512, 384), (512, 384), (512, 384), (512, 384), (512, 384), (512, 384), (512, 384), (512, 384), (512, 384), (512, 384), (512, 384), (512, 384), (512, 384), (512, 384), (512, 384), (512, 384), (512, 384), (512, 384), (511, 384), (510, 385), (509, 387), (509, 390), (507, 391), (507, 391), (506, 396), (505, 398), (503, 400), (502, 405), (498, 415), (493, 426), (491, 440), (484, 464), (461, 517), (453, 542), (443, 573), (437, 595), (430, 627)]",108.6468927865871,"[1, 5, 7, 9, 2, 6, 4, 8, 3]","(0, 0.25)",THI007B,THI,B,Chinese,Mon Oct 15 17:10:49 2018,Mouse
2,2,2,0,42,3,3,1,772,592,180,141,0,500,200,8000,"[(512, 384), (512, 384), (512, 384), (512, 384), (512, 384), (512, 384), (512, 384), (512, 384), (512, 384), (512, 384), (512, 384), (512, 384), (512, 384), (512, 384), (512, 384), (512, 384), (512, 384), (512, 384), (512, 384), (512, 384), (512, 384), (512, 384), (512, 384), (512, 384), (512, 384), (512, 384), (512, 384), (512, 384), (512, 384), (512, 384), (512, 384), (512, 384), (512, 384), (512, 384), (512, 384), (512, 384), (512, 384), (512, 384), (512, 384), (512, 384), (512, 384), (512, 384), (512, 384), (512, 384), (512, 384), (512, 384), (512, 384), (512, 384), (512, 384), (512, 384), (512, 384), (512, 384), (512, 384), (512, 384), (512, 384), (512, 384), (512, 384), (512, 384), (512, 384), (514, 384), (517, 383), (523, 379), (532, 375), (538, 373), (559, 364), (569, 359), (581, 353), (595, 349), (620, 337), (635, 330), (646, 324), (659, 317), (681, 303), (690, 297), (700, 289), (710, 281), (731, 266), (740, 259)]",331.2664372525616,"[1, 5, 7, 9, 2, 6, 4, 8, 3]","(0, 0.25)",THI007B,THI,B,Chinese,Mon Oct 15 17:10:49 2018,Mouse
2,2,2,0,43,6,6,1,817,637,180,141,0,500,200,8000,"[(512, 384), (512, 384), (512, 384), (512, 384), (512, 384), (512, 384), (512, 384), (512, 384), (512, 384), (512, 384), (512, 384), (512, 384), (512, 384), (512, 384), (512, 384), (512, 384), (512, 384), (512, 384), (512, 384), (512, 384), (512, 384), (512, 384), (512, 384), (512, 384), (512, 384), (512, 384), (512, 384), (512, 384), (512, 384), (512, 384), (512, 384), (512, 384), (512, 384), (512, 384), (512, 384), (512, 384), (512, 384), (512, 384), (512, 384), (512, 384), (512, 384), (512, 384), (512, 384), (512, 384), (512, 384), (512, 384), (512, 384), (512, 384), (512, 384), (512, 384), (512, 384), (512, 384), (512, 384), (512, 384), (512, 384), (512, 384), (512, 384), (512, 384), (512, 384), (512, 384), (512, 384), (512, 384), (512, 384), (508, 384), (502, 382), (494, 377), (471, 368), (454, 362), (430, 349), (406, 336), (365, 318), (353, 314), (341, 309), (332, 305), (317, 297), (309, 292), (304, 289), (300, 285), (294, 279), (291, 274), (290, 272), (289, 268)]",207.48252082282272,"[1, 5, 7, 9, 2, 6, 4, 8, 3]","(0, 0.25)",THI007B,THI,B,Chinese,Mon Oct 15 17:10:49 2018,Mouse
2,2,2,0,44,6,6,1,575,115,460,140,0,500,200,8000,"[(512, 384), (512, 384), (512, 384), (512, 384), (512, 384), (512, 384), (512, 384), (512, 384), (512, 384), (512, 384), (512, 384), (511, 384), (509, 384), (506, 380), (501, 375), (497, 370), (491, 364), (490, 362), (488, 360), (488, 360), (487, 359), (487, 359), (487, 359), (487, 359), (487, 359), (486, 358), (486, 358), (486, 358), (485, 355), (483, 353), (481, 349), (480, 347), (473, 337), (468, 332), (464, 326), (456, 319), (440, 303), (432, 299), (423, 292), (420, 287), (406, 279), (399, 276), (392, 272), (385, 267), (373, 260), (367, 256), (361, 252), (357, 250), (353, 247), (351, 247), (350, 246), (348, 244), (342, 239), (341, 238), (336, 234), (333, 232), (323, 225), (316, 219)]",220.09190443825474,"[1, 5, 7, 9, 2, 6, 4, 8, 3]","(0, 0.25)",THI007B,THI,B,Chinese,Mon Oct 15 17:10:49 2018,Mouse
2,2,2,0,45,4,4,1,2780,1120,1660,139,0,500,200,8000,"[(512, 384), (512, 384), (512, 384), (512, 384), (512, 384), (512, 384), (512, 384), (512, 384), (512, 384), (512, 384), (512, 384), (512, 384), (512, 384), (512, 384), (512, 384), (512, 384), (512, 384), (512, 384), (512, 384), (512, 384), (512, 384), (512, 384), (512, 384), (512, 384), (512, 384), (512, 384), (512, 384), (512, 384), (512, 384), (512, 384), (512, 384), (512, 384), (512, 384), (512, 384), (512, 384), (512, 384), (512, 384), (512, 384), (512, 384), (512, 384), (512, 384), (512, 384), (512, 384), (512, 384), (512, 384), (512, 384), (512, 384), (512, 384), (512, 384), (512, 384), (512, 384), (512, 384), (512, 384), (512, 384), (512, 384), (512, 384), (512, 384), (512, 384), (512, 384), (512, 384), (512, 384), (512, 384), (512, 384), (512, 384), (512, 384), (512, 384), (512, 384), (512, 384), (512, 384), (512, 384), (512, 384), (512, 384), (512, 384), (512, 384), (512, 384), (512, 384), (512, 384), (512, 384), (512, 384), (512, 384), (512, 384), (512, 384), (512, 384), (512, 384), (512, 384), (512, 384), (512, 384), (512, 384), (512, 384), (512, 384), (512, 384), (512, 384), (512, 384), (512, 384), (512, 384), (512, 384), (512, 384), (512, 384), (512, 384), (512, 384), (512, 384), (512, 384), (512, 384), (512, 384), (512, 384), (512, 384), (512, 384), (512, 384), (512, 384), (512, 384), (512, 384), (513, 384), (513, 384), (513, 384), (513, 384), (513, 384), (513, 384), (513, 384), (513, 384), (513, 384), (513, 384), (513, 384), (513, 384), (513, 384), (513, 384), (513, 384), (513, 384), (513, 384), (513, 384), (513, 384), (513, 384), (513, 384), (513, 384), (513, 384), (513, 384), (513, 384), (513, 384), (513, 384), (513, 384), (513, 384), (513, 384), (513, 384), (513, 384), (513, 384), (513, 384), (513, 384), (513, 384), (513, 384), (513, 384), (513, 384), (513, 384), (513, 384), (513, 384), (513, 384), (513, 384), (513, 384), (513, 384), (513, 384), (513, 384), (513, 384), (513, 384), (513, 384), (513, 384), (513, 384), (513, 384), (513, 384), (513, 384), (513, 384), (513, 384), (513, 384), (513, 384), (513, 384), (513, 384), (513, 384), (513, 384), (513, 384), (513, 384), (513, 384), (513, 384), (513, 384), (513, 384), (513, 384), (513, 384), (513, 384), (513, 384), (513, 384), (513, 384), (513, 384), (513, 384), (513, 384), (513, 384), (513, 384), (513, 384), (513, 384), (513, 384), (513, 384), (513, 384), (513, 384), (513, 384), (513, 384), (513, 384), (513, 384), (513, 384), (513, 384), (513, 384), (513, 384), (513, 384), (513, 384), (513, 384), (513, 384), (513, 384), (513, 384), (513, 384), (513, 384), (513, 384), (513, 384), (513, 384), (513, 384), (513, 384), (513, 384), (513, 384), (513, 384), (513, 384), (513, 384), (513, 384), (513, 384), (513, 384), (513, 384), (513, 384), (513, 384), (513, 384), (513, 384), (513, 384), (513, 384), (513, 384), (513, 384), (513, 384), (513, 384), (513, 384), (513, 384), (513, 384), (513, 384), (513, 385), (513, 385), (513, 385), (513, 385), (513, 385), (513, 383), (513, 379), (513, 375), (511, 359), (510, 351), (509, 341), (508, 333), (505, 315), (503, 306), (500, 300), (497, 290), (494, 272), (492, 263), (489, 253), (484, 244), (479, 231), (477, 226), (473, 217), (472, 215), (469, 206), (469, 203), (468, 200), (465, 194), (464, 186), (464, 177), (462, 170), (460, 163), (459, 150), (459, 146), (459, 142), (459, 138)]",257.8416339793589,"[1, 5, 7, 9, 2, 6, 4, 8, 3]","(0, 0.25)",THI007B,THI,B,Chinese,Mon Oct 15 17:10:49 2018,Mouse
2,2,2,0,46,7,2,0,-1939,19,1920,138,0,500,200,8000,"[(512, 384), (512, 385), (512, 385), (512, 385), (512, 385), (512, 385), (512, 385), (512, 385), (512, 385), (512, 385), (512, 385), (512, 385), (512, 385), (512, 385), (512, 385), (512, 385), (512, 385), (512, 385), (512, 385), (512, 385), (512, 385), (512, 385), (512, 385), (512, 385), (512, 385), (512, 385), (512, 385), (512, 385), (512, 385), (512, 385), (512, 385), (512, 385), (512, 385), (512, 385), (512, 385), (512, 385), (512, 385), (512, 385), (512, 385), (512, 385), (512, 385), (512, 385), (512, 385), (512, 385), (512, 385), (512, 385), (512, 385), (512, 385), (512, 385), (512, 385), (512, 385), (512, 385), (512, 385), (512, 385), (512, 385), (512, 385), (512, 385), (512, 385), (512, 385), (512, 385), (512, 385), (512, 385), (512, 385), (512, 385), (512, 385), (512, 385), (512, 385), (512, 385), (512, 385), (512, 385), (512, 385), (512, 385), (512, 385), (512, 385), (512, 385), (512, 385), (512, 385), (512, 385), (512, 385), (512, 385), (511, 385), (511, 385), (511, 385), (511, 385), (511, 384), (515, 381), (525, 376), (535, 371), (564, 361), (577, 353), (592, 347), (605, 341), (623, 333), (626, 330), (630, 328), (631, 328), (631, 327), (631, 327), (631, 327), (631, 327), (631, 327), (631, 327), (631, 327), (631, 327), (631, 327), (631, 327), (631, 327), (631, 327), (631, 327), (631, 327), (631, 327), (631, 327), (631, 327), (631, 327), (631, 327), (631, 327), (631, 327), (631, 327), (631, 327), (631, 327), (631, 327), (631, 327), (631, 327), (630, 327), (617, 327), (612, 327), (605, 327), (600, 327), (590, 327), (584, 327), (581, 327), (578, 327), (572, 327), (569, 327), (567, 326), (565, 326), (562, 326), (561, 326), (559, 326), (558, 326), (555, 326), (552, 326), (549, 326), (547, 326), (539, 327), (535, 328), (530, 329), (526, 331), (515, 335), (512, 337), (509, 338), (503, 341), (495, 344), (492, 346), (490, 347), (489, 347), (487, 349), (487, 349), (487, 349), (487, 349), (487, 349), (487, 349), (487, 349), (487, 349), (487, 349), (487, 349), (487, 349), (486, 349), (486, 349), (486, 349), (486, 349), (486, 349), (484, 349), (484, 349), (482, 350), (480, 352), (477, 352), (476, 353), (475, 353), (472, 354), (465, 356), (461, 357), (455, 357), (447, 358), (429, 360), (418, 361), (405, 362), (391, 366), (364, 368), (348, 372), (330, 374), (307, 376), (264, 383), (238, 388)]",179.1636246745776,"[1, 5, 7, 9, 2, 6, 4, 8, 3]","(0, 0.25)",THI007B,THI,B,Chinese,Mon Oct 15 17:10:49 2018,Mouse
2,2,2,0,47,4,7,0,-1346,756,590,139,0,500,200,8000,"[(512, 384), (512, 384), (512, 384), (512, 384), (512, 384), (512, 384), (512, 384), (512, 384), (512, 384), (512, 384), (512, 384), (512, 384), (512, 384), (512, 384), (512, 384), (512, 384), (512, 384), (512, 384), (512, 384), (512, 384), (512, 384), (512, 384), (512, 384), (512, 384), (512, 384), (512, 384), (512, 384), (512, 384), (512, 384), (512, 384), (512, 384), (512, 384), (512, 384), (512, 384), (512, 384), (512, 384), (512, 384), (512, 384), (512, 384), (512, 384), (512, 384), (512, 384), (512, 384), (512, 384), (512, 384), (512, 384), (512, 384), (512, 384), (512, 384), (512, 384), (512, 384), (512, 384), (512, 384), (512, 384), (512, 384), (512, 384), (512, 384), (512, 384), (512, 384), (512, 384), (512, 384), (512, 384), (512, 384), (512, 384), (512, 384), (512, 384), (512, 384), (512, 384), (512, 384), (512, 384), (512, 384), (512, 384), (512, 384), (512, 384), (512, 384), (512, 385), (512, 385), (506, 387), (504, 389), (501, 391), (499, 391), (493, 393), (488, 396), (482, 398), (475, 401), (469, 403), (466, 403), (466, 404), (466, 404), (466, 404), (466, 404), (465, 404), (465, 404), (465, 404), (465, 404), (465, 404), (465, 404), (465, 404), (465, 404), (465, 404), (465, 404), (465, 404), (465, 405), (465, 406), (465, 407), (465, 409), (465, 411), (465, 414), (465, 417), (465, 423), (465, 428), (465, 432), (465, 436), (464, 442), (463, 444), (463, 445), (462, 446), (462, 449), (462, 450), (462, 452), (462, 455), (461, 459), (461, 461), (459, 464), (459, 465), (458, 469), (457, 473), (457, 478), (457, 487), (457, 506), (457, 519), (455, 537), (452, 560), (444, 605), (440, 627)]",106.50436138175503,"[1, 5, 7, 9, 2, 6, 4, 8, 3]","(0, 0.25)",THI007B,THI,B,Chinese,Mon Oct 15 17:10:49 2018,Mouse
2,2,2,0,48,9,9,1,773,353,420,140,0,500,200,8000,"[(512, 384), (512, 384), (512, 384), (512, 384), (512, 384), (512, 384), (512, 384), (512, 384), (512, 384), (512, 384), (512, 384), (512, 384), (512, 384), (512, 384), (512, 384), (512, 384), (512, 384), (512, 384), (512, 384), (512, 384), (512, 384), (512, 384), (512, 384), (512, 384), (512, 384), (512, 384), (512, 384), (512, 384), (512, 384), (512, 384), (512, 384), (512, 384), (512, 384), (512, 384), (512, 384), (510, 383), (510, 383), (510, 382), (510, 382), (510, 382), (510, 382), (509, 382), (509, 382), (509, 382), (508, 382), (507, 382), (507, 382), (506, 382), (505, 382), (504, 382), (504, 382), (503, 382), (503, 382), (503, 382), (503, 382), (503, 382), (503, 382), (503, 382), (503, 382), (503, 382), (503, 382), (503, 382), (502, 382), (500, 382), (498, 382), (494, 384), (487, 388), (476, 397), (467, 404), (456, 411), (445, 418), (417, 435), (406, 443), (392, 456), (374, 471), (341, 500), (323, 512), (306, 527)]",145.23259457829644,"[1, 5, 7, 9, 2, 6, 4, 8, 3]","(0, 0.25)",THI007B,THI,B,Chinese,Mon Oct 15 17:10:49 2018,Mouse
2,2,2,0,49,3,3,1,2181,381,1800,140,0,500,200,8000,"[(512, 384), (512, 384), (512, 384), (512, 384), (512, 384), (512, 384), (512, 384), (512, 384), (512, 384), (512, 384), (512, 384), (512, 384), (512, 384), (512, 384), (512, 384), (512, 384), (512, 384), (512, 384), (512, 384), (512, 384), (512, 384), (512, 384), (512, 384), (512, 384), (512, 384), (512, 384), (512, 384), (512, 384), (512, 384), (512, 384), (512, 384), (512, 384), (512, 384), (512, 384), (512, 384), (512, 384), (512, 384), (512, 384), (512, 383), (512, 383), (512, 383), (512, 383), (512, 383), (511, 383), (511, 383), (511, 383), (511, 383), (511, 383), (511, 383), (511, 382), (511, 382), (511, 382), (511, 382), (511, 382), (511, 382), (511, 382), (511, 382), (511, 382), (511, 382), (511, 382), (511, 382), (511, 382), (511, 382), (511, 382), (511, 382), (511, 382), (511, 382), (511, 382), (511, 382), (511, 382), (511, 382), (511, 382), (511, 382), (511, 382), (509, 380), (509, 380), (509, 380), (509, 380), (509, 380), (509, 380), (509, 380), (509, 379), (509, 378), (509, 378), (509, 378), (509, 378), (509, 378), (508, 376), (508, 376), (508, 376), (507, 375), (507, 375), (507, 375), (507, 375), (507, 375), (507, 375), (507, 375), (507, 375), (507, 375), (507, 375), (507, 375), (507, 375), (507, 375), (507, 375), (507, 375), (507, 375), (507, 375), (507, 375), (507, 375), (507, 375), (507, 375), (507, 375), (507, 375), (507, 375), (507, 375), (507, 375), (507, 375), (507, 375), (507, 375), (507, 375), (507, 375), (507, 375), (507, 375), (507, 375), (507, 375), (507, 375), (507, 375), (507, 375), (507, 375), (507, 375), (507, 375), (507, 375), (507, 375), (507, 375), (507, 375), (507, 375), (507, 375), (507, 375), (507, 375), (507, 375), (507, 375), (507, 375), (507, 375), (507, 375), (507, 375), (507, 375), (507, 375), (507, 375), (507, 375), (507, 375), (507, 376), (507, 379), (507, 383), (507, 388), (507, 402), (507, 408), (507, 417), (507, 427), (504, 443), (503, 452), (502, 458), (501, 461), (500, 466), (500, 466), (500, 466), (500, 466), (500, 466), (500, 466), (500, 466), (500, 466), (500, 466), (499, 467), (499, 467), (499, 467), (497, 467), (497, 467), (497, 465), (497, 463), (498, 460), (498, 458), (499, 456), (501, 454), (502, 452), (503, 450), (503, 449), (504, 447), (505, 445), (505, 444), (505, 444), (505, 443), (506, 442), (506, 442), (507, 442), (507, 442), (507, 442), (507, 442), (507, 442), (507, 441), (507, 440), (508, 439), (508, 439), (508, 439), (508, 439), (508, 439), (508, 439), (508, 438), (511, 436), (511, 435), (514, 432), (517, 431), (527, 423), (537, 419), (548, 412), (563, 403), (615, 375), (641, 361), (668, 348), (697, 336), (765, 309)]",343.4879282455943,"[1, 5, 7, 9, 2, 6, 4, 8, 3]","(0, 0.25)",THI007B,THI,B,Chinese,Mon Oct 15 17:10:49 2018,Mouse
2,2,2,0,50,1,1,1,502,22,480,139,0,500,200,8000,"[(511, 385), (511, 385), (510, 386), (510, 386), (510, 388), (510, 389), (510, 392), (510, 392), (510, 394), (510, 395), (510, 395), (510, 395), (510, 395), (510, 395), (510, 395), (510, 395), (510, 395), (510, 397), (510, 397), (510, 398), (510, 401), (510, 404), (510, 405), (510, 408), (510, 413), (510, 418), (512, 424), (522, 431), (546, 442), (561, 447), (570, 450), (580, 454), (598, 456), (608, 456), (616, 457), (625, 459), (644, 459), (652, 459), (660, 459), (664, 459), (677, 459), (681, 459), (685, 459), (691, 459), (708, 461), (716, 462), (724, 464), (733, 464), (743, 465), (748, 465), (756, 465)]",18.36447434491676,"[1, 5, 7, 9, 2, 6, 4, 8, 3]","(0, 0.25)",THI007B,THI,B,Chinese,Mon Oct 15 17:10:49 2018,Mouse
2,2,2,0,51,2,8,0,-1792,12,1780,138,0,500,200,8000,"[(512, 384), (509, 383), (503, 381), (501, 381), (499, 381), (498, 380), (496, 380), (495, 380), (495, 380), (495, 380), (495, 380), (495, 380), (495, 380), (495, 380), (495, 380), (495, 380), (495, 380), (495, 379), (494, 379), (493, 377), (491, 377), (490, 375), (487, 371), (485, 370), (483, 368), (479, 366), (475, 363), (474, 362), (472, 361), (471, 359), (469, 358), (469, 355), (469, 355), (468, 354), (465, 346), (464, 345), (464, 342), (463, 339), (460, 331), (459, 327), (458, 322), (454, 316), (451, 307), (449, 302), (446, 297), (446, 295), (445, 293), (445, 292), (443, 290), (443, 289), (443, 288), (443, 288), (442, 287), (442, 287), (442, 287), (442, 287), (442, 287), (442, 287), (442, 287), (442, 287), (442, 287), (442, 287), (442, 287), (442, 287), (442, 287), (442, 287), (442, 287), (442, 287), (442, 287), (442, 287), (442, 287), (442, 287), (442, 287), (442, 287), (442, 287), (442, 287), (442, 287), (442, 287), (442, 287), (442, 287), (442, 287), (442, 287), (442, 287), (442, 287), (442, 287), (442, 287), (442, 287), (442, 287), (442, 287), (442, 287), (442, 287), (442, 287), (442, 287), (442, 287), (444, 287), (444, 288), (444, 291), (444, 291), (444, 291), (444, 291), (444, 291), (444, 291), (444, 291), (444, 291), (444, 291), (444, 291), (444, 291), (444, 291), (444, 291), (444, 291), (444, 291), (444, 291), (444, 291), (444, 291), (444, 291), (444, 291), (444, 291), (444, 291), (444, 291), (444, 291), (444, 291), (444, 291), (444, 291), (444, 291), (444, 291), (444, 291), (444, 291), (444, 291), (444, 293), (446, 299), (448, 304), (448, 304), (448, 304), (448, 304), (448, 304), (448, 304), (448, 304), (448, 304), (448, 304), (448, 304), (448, 304), (448, 304), (448, 304), (448, 304), (448, 304), (448, 304), (448, 304), (448, 304), (448, 304), (448, 304), (448, 304), (448, 304), (448, 304), (448, 304), (448, 304), (448, 304), (448, 304), (448, 304), (448, 304), (448, 304), (448, 304), (448, 304), (450, 304), (450, 304), (451, 304), (453, 303), (462, 297), (469, 293), (477, 288), (487, 281), (509, 263), (518, 254), (527, 245), (536, 236), (556, 214), (565, 202), (577, 190), (588, 177), (607, 156), (614, 149)]",293.46289515635016,"[1, 5, 7, 9, 2, 6, 4, 8, 3]","(0, 0.25)",THI007B,THI,B,Chinese,Mon Oct 15 17:10:49 2018,Mouse
