NativeLangNumber,LanuageNumber,SessionNumber,Block,TrialNum,ConditionNumber,Response,Accuracy,RT,MovementOnsetTime,TimeInMotion,SignalContrast,SignalContrastNumber,StimDisplayTime,MaskTime,MaxResponseTime,MousePositionXY,MouseAngle,WheelOrder,NoiseMuSigma,ParticipantID,LanuageTested,SessionTested,NativeLanuage,Date,ResponseDevice
1,2,1,0,1,5,5,1,1943,1413,530,153,0,500,200,8000,"[(960, 540), (960, 540), (960, 540), (960, 540), (960, 540), (960, 540), (960, 540), (960, 540), (960, 540), (960, 540), (960, 540), (960, 540), (960, 540), (960, 540), (960, 540), (960, 540), (960, 540), (960, 540), (960, 540), (960, 540), (960, 540), (960, 540), (960, 540), (960, 540), (960, 540), (960, 540), (960, 540), (960, 540), (960, 540), (960, 540), (960, 540), (960, 540), (960, 540), (960, 540), (960, 540), (960, 540), (960, 540), (960, 540), (960, 540), (960, 540), (960, 540), (960, 540), (960, 540), (960, 540), (960, 540), (960, 540), (960, 540), (960, 540), (960, 540), (960, 540), (960, 540), (960, 540), (960, 540), (960, 540), (960, 540), (960, 540), (960, 540), (960, 540), (960, 540), (960, 540), (960, 540), (960, 540), (960, 540), (960, 540), (960, 540), (960, 540), (960, 540), (960, 540), (960, 540), (960, 540), (960, 540), (960, 540), (960, 540), (960, 540), (960, 540), (960, 540), (960, 540), (960, 540), (960, 540), (960, 540), (960, 540), (960, 540), (960, 540), (960, 540), (960, 540), (960, 540), (960, 540), (960, 540), (960, 540), (960, 540), (960, 540), (960, 540), (960, 540), (960, 540), (960, 540), (960, 540), (960, 540), (960, 540), (960, 540), (960, 540), (960, 540), (960, 540), (960, 540), (960, 540), (960, 540), (960, 540), (960, 540), (960, 540), (960, 540), (960, 540), (960, 540), (960, 540), (960, 540), (960, 540), (960, 540), (960, 540), (960, 540), (960, 540), (960, 540), (960, 540), (960, 540), (960, 540), (960, 540), (960, 540), (960, 540), (960, 540), (960, 540), (960, 540), (960, 540), (960, 540), (960, 540), (960, 540), (960, 540), (960, 540), (960, 540), (960, 540), (960, 540), (960, 540), (960, 540), (960, 540), (960, 540), (960, 539), (959, 539), (959, 538), (957, 537), (956, 537), (955, 536), (953, 534), (949, 530), (946, 529), (945, 527), (942, 525), (936, 519), (935, 516), (932, 513), (928, 508), (922, 501), (917, 495), (914, 490), (912, 488), (909, 483), (908, 481), (906, 478), (904, 476), (896, 468), (894, 464), (889, 459), (881, 452), (863, 432), (855, 422), (846, 413), (836, 401), (811, 375), (800, 363), (788, 348), (777, 337), (759, 319), (750, 310), (745, 304), (740, 298), (731, 290), (727, 285), (723, 281), (722, 280), (717, 277), (715, 275), (711, 273), (708, 271), (701, 265), (695, 263), (689, 261), (687, 259), (681, 258), (680, 256), (677, 255)]",225.20174486874689,"[1, 2, 9, 3, 8, 5, 6, 7, 4]","(0, 0.25)",THI008A,THI,A,English,Wed Aug 22 15:39:11 2018,Mouse
1,2,1,0,2,7,7,1,1661,1541,120,153,0,500,200,8000,"[(960, 540), (960, 540), (960, 540), (960, 540), (960, 540), (960, 540), (960, 540), (960, 540), (960, 540), (960, 540), (960, 540), (960, 540), (960, 540), (960, 540), (960, 540), (960, 540), (960, 540), (960, 540), (960, 540), (960, 540), (960, 540), (960, 540), (960, 540), (960, 540), (960, 540), (960, 540), (960, 540), (960, 540), (960, 540), (960, 540), (960, 540), (960, 540), (960, 540), (960, 540), (960, 540), (960, 540), (960, 540), (960, 540), (960, 540), (960, 540), (960, 540), (960, 540), (960, 540), (960, 540), (960, 540), (960, 540), (960, 540), (960, 540), (960, 540), (960, 540), (960, 540), (960, 540), (960, 540), (960, 540), (960, 540), (960, 540), (960, 540), (960, 540), (960, 540), (960, 540), (960, 540), (960, 540), (960, 540), (960, 540), (960, 540), (960, 540), (960, 540), (960, 540), (960, 540), (960, 540), (960, 540), (960, 540), (960, 540), (960, 540), (960, 540), (960, 540), (960, 540), (960, 540), (960, 540), (960, 540), (960, 540), (960, 540), (960, 540), (960, 540), (960, 540), (960, 540), (960, 540), (960, 540), (960, 540), (960, 540), (960, 540), (960, 540), (960, 540), (960, 540), (960, 540), (960, 540), (960, 540), (960, 540), (960, 540), (960, 540), (960, 540), (960, 540), (960, 540), (960, 540), (960, 540), (960, 540), (960, 540), (960, 540), (960, 540), (960, 540), (960, 540), (960, 540), (960, 540), (960, 540), (960, 540), (960, 540), (960, 540), (960, 540), (960, 540), (960, 540), (960, 540), (960, 540), (960, 540), (960, 540), (960, 540), (960, 540), (960, 540), (960, 540), (960, 540), (960, 540), (960, 540), (960, 540), (960, 540), (960, 540), (960, 540), (960, 540), (960, 540), (960, 540), (960, 540), (960, 540), (960, 540), (960, 540), (960, 540), (960, 540), (960, 540), (960, 540), (960, 540), (960, 540), (960, 540), (960, 540), (960, 540), (960, 540), (960, 540), (963, 540), (968, 537), (975, 528), (996, 497), (1011, 460), (1031, 417), (1047, 380), (1081, 320), (1096, 290), (1114, 263), (1127, 234), (1140, 197), (1144, 179)]",297.00772499188156,"[1, 2, 9, 3, 8, 5, 6, 7, 4]","(0, 0.25)",THI008A,THI,A,English,Wed Aug 22 15:39:11 2018,Mouse
1,2,1,0,3,6,6,1,3937,2827,1110,152,0,500,200,8000,"[(960, 540), (960, 540), (960, 540), (960, 540), (960, 540), (960, 540), (960, 540), (960, 540), (960, 540), (960, 540), (960, 540), (960, 540), (960, 540), (960, 540), (960, 540), (960, 540), (960, 540), (960, 540), (960, 540), (960, 540), (960, 540), (960, 540), (960, 540), (960, 540), (960, 540), (960, 540), (960, 540), (960, 540), (960, 540), (960, 540), (960, 540), (960, 540), (960, 540), (960, 540), (960, 540), (960, 540), (960, 540), (960, 540), (960, 540), (960, 540), (960, 540), (960, 540), (960, 540), (960, 540), (960, 540), (960, 540), (960, 540), (960, 540), (960, 540), (960, 540), (960, 540), (960, 540), (960, 540), (960, 540), (960, 540), (960, 540), (960, 540), (960, 540), (960, 540), (960, 540), (960, 540), (960, 540), (960, 540), (960, 540), (960, 540), (960, 540), (960, 540), (960, 540), (960, 540), (960, 540), (960, 540), (960, 540), (960, 540), (960, 540), (960, 540), (960, 540), (960, 540), (960, 540), (960, 540), (960, 540), (960, 540), (960, 540), (960, 540), (960, 540), (960, 540), (960, 540), (960, 540), (960, 540), (960, 540), (960, 540), (960, 540), (960, 540), (960, 540), (960, 540), (960, 540), (960, 540), (960, 540), (960, 540), (960, 540), (960, 540), (960, 540), (960, 540), (960, 540), (960, 540), (960, 540), (960, 540), (960, 540), (960, 540), (960, 540), (960, 540), (960, 540), (960, 540), (960, 540), (960, 540), (960, 540), (960, 540), (960, 540), (960, 540), (960, 540), (960, 540), (960, 540), (960, 540), (960, 540), (960, 540), (960, 540), (960, 540), (960, 540), (960, 540), (960, 540), (960, 540), (960, 540), (960, 540), (960, 540), (960, 540), (960, 540), (960, 540), (960, 540), (960, 540), (960, 540), (960, 540), (960, 540), (960, 540), (960, 540), (960, 540), (960, 540), (960, 540), (960, 540), (960, 540), (960, 540), (960, 540), (960, 540), (960, 540), (960, 540), (960, 540), (960, 540), (960, 540), (960, 540), (960, 540), (960, 540), (960, 540), (960, 540), (960, 540), (960, 540), (960, 540), (960, 540), (960, 540), (960, 540), (960, 540), (960, 540), (960, 540), (960, 540), (960, 540), (960, 540), (960, 540), (960, 540), (960, 540), (960, 540), (960, 540), (960, 540), (960, 540), (960, 540), (960, 540), (960, 540), (960, 540), (960, 540), (960, 540), (960, 540), (960, 540), (960, 540), (960, 540), (960, 540), (960, 540), (960, 540), (960, 540), (960, 540), (960, 540), (960, 540), (960, 540), (960, 540), (960, 540), (960, 540), (960, 540), (960, 540), (960, 540), (960, 540), (960, 540), (960, 540), (960, 540), (960, 540), (960, 540), (960, 540), (960, 540), (960, 540), (960, 540), (960, 540), (960, 540), (960, 540), (960, 540), (960, 540), (960, 540), (960, 540), (960, 540), (960, 540), (960, 540), (960, 540), (960, 540), (960, 540), (960, 540), (960, 540), (960, 540), (960, 540), (960, 540), (960, 540), (960, 540), (960, 540), (960, 540), (960, 540), (960, 540), (960, 540), (960, 540), (960, 540), (960, 540), (960, 540), (960, 540), (960, 540), (960, 540), (960, 540), (960, 540), (960, 540), (960, 540), (960, 540), (960, 540), (960, 540), (960, 540), (960, 540), (960, 540), (960, 540), (960, 540), (960, 540), (960, 540), (960, 540), (960, 540), (960, 540), (960, 540), (960, 540), (960, 540), (960, 540), (960, 540), (960, 540), (960, 540), (960, 540), (960, 540), (960, 540), (960, 540), (960, 540), (960, 540), (960, 540), (960, 540), (960, 540), (960, 540), (960, 540), (960, 540), (960, 543), (958, 560), (958, 640), (954, 697), (948, 737), (942, 780), (936, 823), (935, 834), (935, 840), (935, 840), (935, 841), (935, 841), (935, 841), (935, 841), (935, 842), (935, 842), (935, 842), (935, 840), (936, 833), (936, 830), (936, 826), (936, 822), (936, 808), (936, 800), (936, 791), (936, 782), (936, 761), (936, 753), (936, 744), (936, 733), (938, 711), (938, 700), (938, 689), (938, 676), (938, 651), (938, 636), (938, 618), (938, 595), (938, 545), (937, 511), (932, 473), (927, 447), (927, 402), (925, 373), (925, 345), (925, 315), (925, 267), (925, 252), (925, 241), (925, 236), (925, 228), (925, 228), (925, 228), (925, 227), (925, 227), (925, 227), (925, 227), (925, 227), (925, 227), (925, 227), (925, 227), (925, 227), (925, 227), (925, 227), (925, 227), (925, 227), (925, 227), (925, 227), (925, 227), (925, 227), (925, 227), (925, 227), (925, 227), (925, 227), (925, 227), (925, 227), (925, 227), (925, 227), (925, 227), (925, 227), (925, 227), (925, 227), (925, 227), (925, 227), (925, 227), (925, 227), (925, 227), (925, 227), (925, 227), (925, 227), (925, 230), (925, 230), (925, 231), (925, 231), (925, 231), (923, 233), (923, 233), (923, 233), (923, 233), (923, 233), (923, 233), (923, 233), (923, 233), (923, 233), (923, 233), (923, 233), (923, 233), (923, 231), (923, 222), (923, 207), (923, 153), (922, 124)]",264.78073547201177,"[1, 2, 9, 3, 8, 5, 6, 7, 4]","(0, 0.25)",THI008A,THI,A,English,Wed Aug 22 15:39:11 2018,Mouse
1,2,1,0,4,1,1,1,828,538,290,151,0,500,200,8000,"[(960, 540), (960, 540), (960, 540), (960, 540), (960, 540), (960, 540), (960, 540), (960, 540), (960, 540), (960, 540), (960, 540), (960, 540), (960, 540), (960, 540), (960, 540), (960, 540), (960, 540), (960, 540), (960, 540), (960, 540), (960, 540), (960, 540), (960, 540), (960, 540), (960, 540), (960, 540), (960, 540), (960, 540), (960, 540), (960, 540), (960, 540), (960, 540), (960, 540), (960, 540), (960, 540), (960, 540), (960, 540), (960, 540), (960, 540), (960, 540), (960, 540), (960, 540), (960, 540), (960, 540), (960, 540), (960, 540), (960, 540), (960, 540), (960, 540), (960, 540), (960, 540), (960, 540), (960, 540), (962, 542), (963, 542), (965, 544), (969, 545), (974, 547), (975, 547), (979, 548), (980, 549), (987, 551), (992, 553), (996, 554), (1004, 556), (1022, 558), (1030, 559), (1038, 560), (1050, 562), (1069, 564), (1079, 566), (1086, 566), (1094, 569), (1111, 573), (1121, 576), (1135, 581), (1146, 583), (1181, 596), (1199, 603), (1224, 613), (1252, 619), (1308, 636), (1350, 651)]",15.887168502763954,"[1, 2, 9, 3, 8, 5, 6, 7, 4]","(0, 0.25)",THI008A,THI,A,English,Wed Aug 22 15:39:11 2018,Mouse
1,2,1,0,5,1,1,1,549,269,280,150,0,500,200,8000,"[(960, 540), (960, 540), (960, 540), (960, 540), (960, 540), (960, 540), (960, 540), (960, 540), (960, 540), (960, 540), (960, 540), (960, 540), (960, 540), (960, 540), (960, 540), (960, 540), (960, 540), (960, 540), (960, 540), (960, 540), (960, 540), (960, 540), (960, 540), (960, 540), (960, 540), (960, 540), (960, 539), (962, 539), (962, 539), (963, 539), (966, 540), (968, 540), (971, 543), (976, 545), (985, 547), (993, 548), (1003, 551), (1011, 553), (1035, 557), (1045, 558), (1056, 559), (1069, 563), (1093, 566), (1105, 568), (1121, 571), (1137, 575), (1181, 585), (1206, 593), (1234, 601), (1261, 607), (1300, 615), (1314, 620), (1332, 623), (1349, 628), (1383, 637)]",12.915451689253308,"[1, 2, 9, 3, 8, 5, 6, 7, 4]","(0, 0.25)",THI008A,THI,A,English,Wed Aug 22 15:39:11 2018,Mouse
1,2,1,0,6,3,3,1,870,710,160,149,0,500,200,8000,"[(960, 540), (960, 540), (960, 540), (960, 540), (960, 540), (960, 540), (960, 540), (960, 540), (960, 540), (960, 540), (960, 540), (960, 540), (960, 540), (960, 540), (960, 540), (960, 540), (960, 540), (960, 540), (960, 540), (960, 540), (960, 540), (960, 540), (960, 540), (960, 540), (960, 540), (960, 540), (960, 540), (960, 540), (960, 540), (960, 540), (960, 540), (960, 540), (960, 540), (960, 540), (960, 540), (960, 540), (960, 540), (960, 540), (960, 540), (960, 540), (960, 540), (960, 540), (960, 540), (960, 540), (960, 540), (960, 540), (960, 540), (960, 540), (960, 540), (960, 540), (960, 540), (960, 540), (960, 540), (960, 540), (960, 540), (960, 540), (960, 540), (960, 540), (960, 540), (960, 540), (960, 540), (960, 540), (960, 540), (960, 540), (960, 540), (960, 540), (960, 540), (960, 540), (960, 540), (960, 540), (948, 545), (938, 551), (928, 558), (914, 568), (887, 585), (866, 596), (844, 612), (813, 634), (752, 673), (727, 688), (708, 701), (690, 714), (667, 731), (656, 737), (642, 747), (635, 753), (605, 769)]",147.17513454990507,"[1, 2, 9, 3, 8, 5, 6, 7, 4]","(0, 0.25)",THI008A,THI,A,English,Wed Aug 22 15:39:11 2018,Mouse
1,2,1,0,7,9,9,1,1271,991,280,148,0,500,200,8000,"[(960, 540), (960, 540), (960, 540), (960, 540), (960, 540), (960, 540), (960, 540), (960, 540), (960, 540), (960, 540), (960, 540), (960, 540), (960, 540), (960, 540), (960, 540), (960, 540), (960, 540), (960, 540), (960, 540), (960, 540), (960, 540), (960, 540), (960, 540), (960, 540), (960, 540), (960, 540), (960, 540), (960, 540), (960, 540), (960, 540), (960, 540), (960, 540), (960, 540), (960, 540), (960, 540), (960, 540), (960, 540), (960, 540), (960, 540), (960, 540), (960, 540), (960, 540), (960, 540), (960, 540), (960, 540), (960, 540), (960, 540), (960, 540), (960, 540), (960, 540), (960, 540), (960, 540), (960, 540), (960, 540), (960, 540), (960, 540), (960, 540), (960, 540), (960, 540), (960, 540), (960, 540), (960, 540), (960, 540), (960, 540), (960, 540), (960, 540), (960, 540), (960, 540), (960, 540), (960, 540), (960, 540), (960, 540), (960, 540), (960, 540), (960, 540), (960, 540), (960, 540), (960, 540), (960, 540), (960, 540), (960, 540), (960, 540), (960, 540), (960, 540), (960, 540), (960, 540), (960, 540), (960, 540), (960, 540), (960, 540), (960, 540), (960, 540), (960, 540), (960, 540), (960, 540), (960, 540), (960, 540), (960, 540), (960, 540), (960, 542), (960, 547), (959, 552), (958, 560), (956, 574), (956, 582), (956, 594), (956, 620), (956, 633), (956, 647), (956, 659), (956, 689), (953, 705), (953, 715), (953, 726), (953, 737), (952, 756), (951, 766), (950, 777), (947, 798), (946, 809), (946, 818), (946, 829), (944, 851), (944, 863), (942, 874), (941, 888), (941, 905), (941, 945)]",92.68598079443396,"[1, 2, 9, 3, 8, 5, 6, 7, 4]","(0, 0.25)",THI008A,THI,A,English,Wed Aug 22 15:39:11 2018,Mouse
1,2,1,0,8,5,5,1,2140,1940,200,147,0,500,200,8000,"[(960, 540), (960, 540), (960, 540), (960, 540), (960, 540), (960, 540), (960, 540), (960, 540), (960, 540), (960, 540), (960, 540), (960, 540), (960, 540), (960, 540), (960, 540), (960, 540), (960, 540), (960, 540), (960, 540), (960, 540), (960, 540), (960, 540), (960, 540), (960, 540), (960, 540), (960, 540), (960, 540), (960, 540), (960, 540), (960, 540), (960, 540), (960, 540), (960, 540), (960, 540), (960, 540), (960, 540), (960, 540), (960, 540), (960, 540), (960, 540), (960, 540), (960, 540), (960, 540), (960, 540), (960, 540), (960, 540), (960, 540), (960, 540), (960, 540), (960, 540), (960, 540), (960, 540), (960, 540), (960, 540), (960, 540), (960, 540), (960, 540), (960, 540), (960, 540), (960, 540), (960, 540), (960, 540), (960, 540), (960, 540), (960, 540), (960, 540), (960, 540), (960, 540), (960, 540), (960, 540), (960, 540), (960, 540), (960, 540), (960, 540), (960, 540), (960, 540), (960, 540), (960, 540), (960, 540), (960, 540), (960, 540), (960, 540), (960, 540), (960, 540), (960, 540), (960, 540), (960, 540), (960, 540), (960, 540), (960, 540), (960, 540), (960, 540), (960, 540), (960, 540), (960, 540), (960, 540), (960, 540), (960, 540), (960, 540), (960, 540), (960, 540), (960, 540), (960, 540), (960, 540), (960, 540), (960, 540), (960, 540), (960, 540), (960, 540), (960, 540), (960, 540), (960, 540), (960, 540), (960, 540), (960, 540), (960, 540), (960, 540), (960, 540), (960, 540), (960, 540), (960, 540), (960, 540), (960, 540), (960, 540), (960, 540), (960, 540), (960, 540), (960, 540), (960, 540), (960, 540), (960, 540), (960, 540), (960, 540), (960, 540), (960, 540), (960, 540), (960, 540), (960, 540), (960, 540), (960, 540), (960, 540), (960, 540), (960, 540), (960, 540), (960, 540), (960, 540), (960, 540), (960, 540), (960, 540), (960, 540), (960, 540), (960, 540), (960, 540), (960, 540), (960, 540), (960, 540), (960, 540), (960, 540), (960, 540), (960, 540), (960, 540), (960, 540), (960, 540), (960, 540), (960, 540), (960, 540), (960, 540), (960, 540), (960, 540), (960, 540), (960, 540), (960, 540), (960, 540), (960, 540), (960, 540), (960, 540), (960, 540), (960, 540), (960, 540), (960, 540), (960, 540), (960, 540), (960, 540), (960, 540), (960, 540), (960, 540), (960, 540), (960, 540), (960, 540), (960, 540), (960, 540), (960, 540), (960, 540), (958, 539), (954, 539), (950, 538), (943, 537), (923, 527), (910, 521), (896, 515), (883, 510), (854, 492), (837, 481), (825, 471), (810, 459), (782, 427), (761, 389), (745, 367), (731, 347), (698, 306), (686, 297), (677, 288), (670, 281), (655, 270)]",221.51672853100234,"[1, 2, 9, 3, 8, 5, 6, 7, 4]","(0, 0.25)",THI008A,THI,A,English,Wed Aug 22 15:39:11 2018,Mouse
1,2,1,0,9,2,2,1,600,470,130,146,0,500,200,8000,"[(960, 540), (960, 540), (960, 540), (960, 540), (960, 540), (960, 540), (960, 540), (960, 540), (960, 540), (960, 540), (960, 540), (960, 540), (960, 540), (960, 540), (960, 540), (960, 540), (960, 540), (960, 540), (960, 540), (960, 540), (960, 540), (960, 540), (960, 540), (960, 540), (960, 540), (960, 540), (960, 540), (960, 540), (960, 540), (960, 540), (960, 540), (960, 540), (960, 540), (960, 540), (960, 540), (960, 540), (960, 540), (960, 540), (960, 540), (960, 540), (960, 540), (960, 540), (960, 540), (960, 540), (960, 540), (960, 540), (960, 543), (964, 548), (972, 554), (982, 562), (1008, 582), (1029, 602), (1048, 620), (1073, 649), (1109, 695), (1129, 726), (1150, 754), (1169, 782), (1207, 842), (1223, 865)]",51.01915039427115,"[1, 2, 9, 3, 8, 5, 6, 7, 4]","(0, 0.25)",THI008A,THI,A,English,Wed Aug 22 15:39:11 2018,Mouse
1,2,1,0,10,4,4,1,1049,789,260,145,0,500,200,8000,"[(960, 540), (960, 540), (960, 540), (960, 540), (960, 540), (960, 540), (960, 540), (960, 540), (960, 540), (960, 540), (960, 540), (960, 540), (960, 540), (960, 540), (960, 540), (960, 540), (960, 540), (960, 540), (960, 540), (960, 540), (960, 540), (960, 540), (960, 540), (960, 540), (960, 540), (960, 540), (960, 540), (960, 540), (960, 540), (960, 540), (960, 540), (960, 540), (960, 540), (960, 540), (960, 540), (960, 540), (960, 540), (960, 540), (960, 540), (960, 540), (960, 540), (960, 540), (960, 540), (960, 540), (960, 540), (960, 540), (960, 540), (960, 540), (960, 540), (960, 540), (960, 540), (960, 540), (960, 540), (960, 540), (960, 540), (960, 540), (960, 540), (960, 540), (960, 540), (960, 540), (960, 540), (960, 540), (960, 540), (960, 540), (960, 540), (960, 540), (960, 540), (960, 540), (960, 540), (960, 540), (960, 540), (960, 540), (960, 540), (960, 540), (960, 540), (960, 540), (960, 540), (960, 540), (960, 539), (965, 537), (974, 535), (983, 533), (1004, 530), (1015, 528), (1025, 527), (1034, 526), (1047, 523), (1054, 523), (1060, 522), (1066, 521), (1074, 517), (1079, 516), (1086, 512), (1090, 511), (1106, 503), (1117, 500), (1134, 493), (1161, 480), (1206, 466), (1222, 463), (1244, 457), (1267, 449), (1310, 434), (1331, 426), (1342, 419)]",342.42419736352355,"[1, 2, 9, 3, 8, 5, 6, 7, 4]","(0, 0.25)",THI008A,THI,A,English,Wed Aug 22 15:39:11 2018,Mouse
1,2,1,0,11,6,6,1,659,519,140,144,0,500,200,8000,"[(960, 540), (960, 540), (960, 540), (960, 540), (960, 540), (960, 540), (960, 540), (960, 540), (960, 540), (960, 540), (960, 540), (960, 540), (960, 540), (960, 540), (960, 540), (960, 540), (960, 540), (960, 540), (960, 540), (960, 540), (960, 540), (960, 540), (960, 540), (960, 540), (960, 540), (960, 540), (960, 540), (960, 540), (960, 540), (960, 540), (960, 540), (960, 540), (960, 540), (960, 540), (960, 540), (960, 540), (960, 540), (960, 540), (960, 540), (960, 540), (960, 540), (960, 540), (960, 540), (960, 540), (960, 540), (960, 540), (960, 540), (960, 540), (960, 540), (960, 540), (960, 540), (959, 535), (954, 508), (953, 495), (952, 482), (948, 468), (946, 429), (938, 388), (931, 345), (922, 314), (904, 253), (890, 224), (881, 203), (873, 185), (861, 156), (857, 146)]",255.3495310865659,"[1, 2, 9, 3, 8, 5, 6, 7, 4]","(0, 0.25)",THI008A,THI,A,English,Wed Aug 22 15:39:11 2018,Mouse
1,2,1,0,12,9,9,1,1580,1300,280,143,0,500,200,8000,"[(960, 540), (960, 540), (960, 540), (960, 540), (960, 540), (960, 540), (960, 540), (960, 540), (960, 540), (960, 540), (960, 540), (960, 540), (960, 540), (960, 540), (960, 540), (960, 540), (960, 540), (960, 540), (960, 540), (960, 540), (960, 540), (960, 540), (960, 540), (960, 540), (960, 540), (960, 540), (960, 540), (960, 540), (960, 540), (960, 540), (960, 540), (960, 540), (960, 540), (960, 540), (960, 540), (960, 540), (960, 540), (960, 540), (960, 540), (960, 540), (960, 540), (960, 540), (960, 540), (960, 540), (960, 540), (960, 540), (960, 540), (960, 540), (960, 540), (960, 540), (960, 540), (960, 540), (960, 540), (960, 540), (960, 540), (960, 540), (960, 540), (960, 540), (960, 540), (960, 540), (960, 540), (960, 540), (960, 540), (960, 540), (960, 540), (960, 540), (960, 540), (960, 540), (960, 540), (960, 540), (960, 540), (960, 540), (960, 540), (960, 540), (960, 540), (960, 540), (960, 540), (960, 540), (960, 540), (960, 540), (960, 540), (960, 540), (960, 540), (960, 540), (960, 540), (960, 540), (960, 540), (960, 540), (960, 540), (960, 540), (960, 540), (960, 540), (960, 540), (960, 540), (960, 540), (960, 540), (960, 540), (960, 540), (960, 540), (960, 540), (960, 540), (960, 540), (960, 540), (960, 540), (960, 540), (960, 540), (960, 540), (960, 540), (960, 540), (960, 540), (960, 540), (960, 540), (960, 540), (960, 540), (960, 540), (960, 540), (960, 540), (960, 540), (960, 540), (960, 540), (960, 540), (960, 540), (960, 540), (960, 540), (960, 540), (960, 540), (960, 540), (960, 540), (960, 540), (960, 542), (960, 544), (960, 545), (960, 546), (959, 552), (959, 554), (958, 557), (957, 562), (955, 570), (954, 575), (953, 580), (952, 591), (952, 640), (952, 677), (952, 721), (952, 760), (952, 810), (952, 827), (952, 841), (952, 852), (948, 871), (947, 877), (944, 884), (942, 889), (938, 899), (934, 909), (932, 920), (928, 936), (922, 962)]",95.14545816793883,"[1, 2, 9, 3, 8, 5, 6, 7, 4]","(0, 0.25)",THI008A,THI,A,English,Wed Aug 22 15:39:11 2018,Mouse
1,2,1,0,13,6,6,1,1900,1710,190,142,0,500,200,8000,"[(960, 540), (960, 540), (960, 540), (960, 540), (960, 540), (960, 540), (960, 540), (960, 540), (960, 540), (960, 540), (960, 540), (960, 540), (960, 540), (960, 540), (960, 540), (960, 540), (960, 540), (960, 540), (960, 540), (960, 540), (960, 540), (960, 540), (960, 540), (960, 540), (960, 540), (960, 540), (960, 540), (960, 540), (960, 540), (960, 540), (960, 540), (960, 540), (960, 540), (960, 540), (960, 540), (960, 540), (960, 540), (960, 540), (960, 540), (960, 540), (960, 540), (960, 540), (960, 540), (960, 540), (960, 540), (960, 540), (960, 540), (960, 540), (960, 540), (960, 540), (960, 540), (960, 540), (960, 540), (960, 540), (960, 540), (960, 540), (960, 540), (960, 540), (960, 540), (960, 540), (960, 540), (960, 540), (960, 540), (960, 540), (960, 540), (960, 540), (960, 540), (960, 540), (960, 540), (960, 540), (960, 540), (960, 540), (960, 540), (960, 540), (960, 540), (960, 540), (960, 540), (960, 540), (960, 540), (960, 540), (960, 540), (960, 540), (960, 540), (960, 540), (960, 540), (960, 540), (960, 540), (960, 540), (960, 540), (960, 540), (960, 540), (960, 540), (960, 540), (960, 540), (960, 540), (960, 540), (960, 540), (960, 540), (960, 540), (960, 540), (960, 540), (960, 540), (960, 540), (960, 540), (960, 540), (960, 540), (960, 540), (960, 540), (960, 540), (960, 540), (960, 540), (960, 540), (960, 540), (960, 540), (960, 540), (960, 540), (960, 540), (960, 540), (960, 540), (960, 540), (960, 540), (960, 540), (960, 540), (960, 540), (960, 540), (960, 540), (960, 540), (960, 540), (960, 540), (960, 540), (960, 540), (960, 540), (960, 540), (960, 540), (960, 540), (960, 540), (960, 540), (960, 540), (960, 540), (960, 540), (960, 540), (960, 540), (960, 540), (960, 540), (960, 540), (960, 540), (960, 540), (960, 540), (960, 540), (960, 540), (960, 540), (960, 540), (960, 540), (960, 540), (960, 540), (960, 540), (960, 540), (960, 540), (960, 540), (960, 540), (960, 540), (960, 540), (960, 540), (960, 540), (960, 540), (960, 540), (960, 540), (960, 540), (960, 540), (960, 540), (960, 538), (960, 538), (959, 537), (957, 537), (955, 535), (953, 531), (950, 523), (945, 505), (940, 492), (938, 484), (931, 464), (920, 367), (906, 322), (895, 286), (887, 261), (871, 208), (865, 185), (863, 173), (860, 163), (858, 146)]",255.48573370633156,"[1, 2, 9, 3, 8, 5, 6, 7, 4]","(0, 0.25)",THI008A,THI,A,English,Wed Aug 22 15:39:11 2018,Mouse
1,2,1,0,14,4,4,1,4189,3559,630,141,0,500,200,8000,"[(960, 540), (960, 540), (960, 540), (960, 540), (960, 540), (960, 540), (960, 540), (960, 540), (960, 540), (960, 540), (960, 540), (960, 540), (960, 540), (960, 540), (960, 540), (960, 540), (960, 540), (960, 540), (960, 540), (960, 540), (960, 540), (960, 540), (960, 540), (960, 540), (960, 540), (960, 540), (960, 540), (960, 540), (960, 540), (960, 540), (960, 540), (960, 540), (960, 540), (960, 540), (960, 540), (960, 540), (960, 540), (960, 540), (960, 540), (960, 540), (960, 540), (960, 540), (960, 540), (960, 540), (960, 540), (960, 540), (960, 540), (960, 540), (960, 540), (960, 540), (960, 540), (960, 540), (960, 540), (960, 540), (960, 540), (960, 540), (960, 540), (960, 540), (960, 540), (960, 540), (960, 540), (960, 540), (960, 540), (960, 540), (960, 540), (960, 540), (960, 540), (960, 540), (960, 540), (960, 540), (960, 540), (960, 540), (960, 540), (960, 540), (960, 540), (960, 540), (960, 540), (960, 540), (960, 540), (960, 540), (960, 540), (960, 540), (960, 540), (960, 540), (960, 540), (960, 540), (960, 540), (960, 540), (960, 540), (960, 540), (960, 540), (960, 540), (960, 540), (960, 540), (960, 540), (960, 540), (960, 540), (960, 540), (960, 540), (960, 540), (960, 540), (960, 540), (960, 540), (960, 540), (960, 540), (960, 540), (960, 540), (960, 540), (960, 540), (960, 540), (960, 540), (960, 540), (960, 540), (960, 540), (960, 540), (960, 540), (960, 540), (960, 540), (960, 540), (960, 540), (960, 540), (960, 540), (960, 540), (960, 540), (960, 540), (960, 540), (960, 540), (960, 540), (960, 540), (960, 540), (960, 540), (960, 540), (960, 540), (960, 540), (960, 540), (960, 540), (960, 540), (960, 540), (960, 540), (960, 540), (960, 540), (960, 540), (960, 540), (960, 540), (960, 540), (960, 540), (960, 540), (960, 540), (960, 540), (960, 540), (960, 540), (960, 540), (960, 540), (960, 540), (960, 540), (960, 540), (960, 540), (960, 540), (960, 540), (960, 540), (960, 540), (960, 540), (960, 540), (960, 540), (960, 540), (960, 540), (960, 540), (960, 540), (960, 540), (960, 540), (960, 540), (960, 540), (960, 540), (960, 540), (960, 540), (960, 540), (960, 540), (960, 540), (960, 540), (960, 540), (960, 540), (960, 540), (960, 540), (960, 540), (960, 540), (960, 540), (960, 540), (960, 540), (960, 540), (960, 540), (960, 540), (960, 540), (960, 540), (960, 540), (960, 540), (960, 540), (960, 540), (960, 540), (960, 540), (960, 540), (960, 540), (960, 540), (960, 540), (960, 540), (960, 540), (960, 540), (960, 540), (960, 540), (960, 540), (960, 540), (960, 540), (960, 540), (960, 540), (960, 540), (960, 540), (960, 540), (960, 540), (960, 540), (960, 540), (960, 540), (960, 540), (960, 540), (960, 540), (960, 540), (960, 540), (960, 540), (960, 540), (960, 540), (960, 540), (960, 540), (960, 540), (960, 540), (960, 540), (960, 540), (960, 540), (960, 540), (960, 540), (960, 540), (960, 540), (960, 540), (960, 540), (960, 540), (960, 540), (960, 540), (960, 540), (960, 540), (960, 540), (960, 540), (960, 540), (960, 540), (960, 540), (960, 540), (960, 540), (960, 540), (960, 540), (960, 540), (960, 540), (960, 540), (960, 540), (960, 540), (960, 540), (960, 540), (960, 540), (960, 540), (960, 540), (960, 540), (960, 540), (960, 540), (960, 540), (960, 540), (960, 540), (960, 540), (960, 540), (960, 540), (960, 540), (960, 540), (960, 540), (960, 540), (960, 540), (960, 540), (960, 540), (960, 540), (960, 540), (960, 540), (960, 540), (960, 540), (960, 540), (960, 540), (960, 540), (960, 540), (960, 540), (960, 540), (960, 540), (960, 540), (960, 540), (960, 540), (960, 540), (960, 540), (960, 540), (960, 540), (960, 540), (960, 540), (960, 540), (960, 540), (960, 540), (960, 540), (960, 540), (960, 540), (960, 540), (960, 540), (960, 540), (960, 540), (960, 540), (960, 540), (960, 540), (960, 540), (960, 540), (960, 540), (960, 540), (960, 540), (960, 540), (960, 540), (960, 540), (960, 540), (960, 540), (960, 540), (960, 540), (960, 540), (960, 540), (960, 540), (960, 540), (960, 540), (960, 540), (960, 540), (960, 540), (960, 540), (960, 540), (960, 540), (960, 540), (960, 540), (960, 540), (960, 540), (960, 540), (960, 540), (960, 540), (960, 540), (960, 540), (960, 540), (960, 540), (960, 540), (960, 540), (960, 540), (960, 540), (960, 540), (960, 540), (960, 543), (960, 543), (960, 544), (960, 544), (960, 544), (960, 544), (960, 544), (960, 544), (960, 544), (960, 544), (960, 544), (960, 544), (960, 544), (960, 544), (960, 544), (960, 544), (960, 544), (960, 544), (960, 544), (960, 544), (960, 544), (960, 544), (960, 544), (960, 544), (960, 544), (960, 544), (960, 544), (960, 544), (960, 544), (960, 544), (960, 544), (960, 544), (960, 544), (960, 544), (960, 544), (960, 544), (960, 544), (960, 544), (960, 544), (961, 545), (967, 543), (971, 542), (978, 539), (988, 538), (1009, 531), (1020, 526), (1033, 522), (1049, 519), (1083, 508), (1100, 501), (1121, 494), (1144, 485), (1188, 465), (1203, 460), (1222, 455), (1235, 451), (1256, 444), (1266, 441), (1277, 439), (1287, 434), (1308, 424), (1318, 420), (1330, 417), (1346, 410)]",341.3871145456676,"[1, 2, 9, 3, 8, 5, 6, 7, 4]","(0, 0.25)",THI008A,THI,A,English,Wed Aug 22 15:39:11 2018,Mouse
1,2,1,0,15,6,6,1,3390,2999,391,140,0,500,200,8000,"[(960, 540), (960, 540), (960, 540), (960, 540), (960, 540), (960, 540), (960, 540), (960, 540), (960, 540), (960, 540), (960, 540), (960, 540), (960, 540), (960, 540), (960, 540), (960, 540), (960, 540), (960, 540), (960, 540), (960, 540), (960, 540), (960, 540), (960, 540), (960, 540), (960, 540), (960, 540), (960, 540), (960, 540), (960, 540), (960, 540), (960, 540), (960, 540), (960, 540), (960, 540), (960, 540), (960, 540), (960, 540), (960, 540), (960, 540), (960, 540), (960, 540), (960, 540), (960, 540), (960, 540), (960, 540), (960, 540), (960, 540), (960, 540), (960, 540), (960, 540), (960, 540), (960, 540), (960, 540), (960, 540), (960, 540), (960, 540), (960, 540), (960, 540), (960, 540), (960, 540), (960, 540), (960, 540), (960, 540), (960, 540), (960, 540), (960, 540), (960, 540), (960, 540), (960, 540), (960, 540), (960, 540), (960, 540), (960, 540), (960, 540), (960, 540), (960, 540), (960, 540), (960, 540), (960, 540), (960, 540), (960, 540), (960, 540), (960, 540), (960, 540), (960, 540), (960, 540), (960, 540), (960, 540), (960, 540), (960, 540), (960, 540), (960, 540), (960, 540), (960, 540), (960, 540), (960, 540), (960, 540), (960, 540), (960, 540), (960, 540), (960, 540), (960, 540), (960, 540), (960, 540), (960, 540), (960, 540), (960, 540), (960, 540), (960, 540), (960, 540), (960, 540), (960, 540), (960, 540), (960, 540), (960, 540), (960, 540), (960, 540), (960, 540), (960, 540), (960, 540), (960, 540), (960, 540), (960, 540), (960, 540), (960, 540), (960, 540), (960, 540), (960, 540), (960, 540), (960, 540), (960, 540), (960, 540), (960, 540), (960, 540), (960, 540), (960, 540), (960, 540), (960, 540), (960, 540), (960, 540), (960, 540), (960, 540), (960, 540), (960, 540), (960, 540), (960, 540), (960, 540), (960, 540), (960, 540), (960, 540), (960, 540), (960, 540), (960, 540), (960, 540), (960, 540), (960, 540), (960, 540), (960, 540), (960, 540), (960, 540), (960, 540), (960, 540), (960, 540), (960, 540), (960, 540), (960, 540), (960, 540), (960, 540), (960, 540), (960, 540), (960, 540), (960, 540), (960, 540), (960, 540), (960, 540), (960, 540), (960, 540), (960, 540), (960, 540), (960, 540), (960, 540), (960, 540), (960, 540), (960, 540), (960, 540), (960, 540), (960, 540), (960, 540), (960, 540), (960, 540), (960, 540), (960, 540), (960, 540), (960, 540), (960, 540), (960, 540), (960, 540), (960, 540), (960, 540), (960, 540), (960, 540), (960, 540), (960, 540), (960, 540), (960, 540), (960, 540), (960, 540), (960, 540), (960, 540), (960, 540), (960, 540), (960, 540), (960, 540), (960, 540), (960, 540), (960, 540), (960, 540), (960, 540), (960, 540), (960, 540), (960, 540), (960, 540), (960, 540), (960, 540), (960, 540), (960, 540), (960, 540), (960, 540), (960, 540), (960, 540), (960, 540), (960, 540), (960, 540), (960, 540), (960, 540), (960, 540), (960, 540), (960, 540), (960, 540), (960, 540), (960, 540), (960, 540), (960, 540), (960, 540), (960, 540), (960, 540), (960, 540), (960, 540), (960, 540), (960, 540), (960, 540), (960, 540), (960, 540), (960, 540), (960, 540), (960, 540), (960, 540), (960, 540), (960, 540), (960, 540), (960, 540), (960, 540), (960, 540), (960, 540), (960, 540), (960, 540), (960, 540), (960, 540), (960, 540), (960, 540), (960, 540), (960, 540), (960, 540), (960, 540), (960, 540), (960, 540), (960, 540), (960, 540), (960, 540), (960, 540), (960, 540), (960, 540), (960, 540), (960, 540), (960, 540), (960, 540), (960, 540), (960, 540), (960, 540), (960, 540), (960, 540), (960, 540), (960, 540), (960, 540), (960, 540), (960, 540), (960, 540), (960, 540), (960, 540), (959, 540), (959, 539), (959, 538), (958, 538), (958, 538), (958, 538), (958, 538), (957, 537), (957, 536), (957, 536), (957, 536), (957, 535), (956, 531), (956, 529), (954, 524), (952, 518), (948, 504), (946, 497), (943, 487), (941, 472), (935, 436), (934, 424), (932, 414), (932, 405), (931, 384), (931, 373), (931, 361), (931, 347), (926, 314), (924, 302), (922, 287), (920, 273), (914, 244), (911, 231), (909, 220), (908, 211), (903, 187), (899, 171), (895, 157), (889, 140)]",259.9348306472401,"[1, 2, 9, 3, 8, 5, 6, 7, 4]","(0, 0.25)",THI008A,THI,A,English,Wed Aug 22 15:39:11 2018,Mouse
1,2,1,0,16,1,1,1,1229,359,870,139,0,500,200,8000,"[(960, 540), (960, 540), (960, 540), (960, 540), (960, 540), (960, 540), (960, 540), (960, 540), (960, 540), (960, 540), (960, 540), (960, 540), (960, 540), (960, 540), (960, 540), (960, 540), (960, 540), (960, 540), (960, 540), (960, 540), (960, 540), (960, 540), (960, 540), (960, 540), (960, 540), (960, 540), (960, 540), (960, 540), (960, 540), (960, 540), (960, 540), (960, 540), (960, 540), (960, 540), (960, 540), (961, 540), (962, 540), (964, 540), (965, 540), (967, 540), (969, 540), (969, 540), (969, 540), (969, 540), (969, 540), (970, 540), (971, 540), (972, 540), (972, 540), (977, 542), (985, 548), (991, 552), (1001, 556), (1008, 559), (1027, 567), (1037, 570), (1046, 575), (1060, 581), (1073, 585), (1096, 593), (1110, 597), (1124, 601), (1158, 610), (1169, 614), (1180, 616), (1197, 622), (1211, 627), (1250, 637), (1267, 642), (1286, 648), (1311, 655), (1322, 658), (1326, 659), (1329, 660), (1333, 660), (1333, 660), (1333, 660), (1333, 660), (1333, 660), (1333, 660), (1333, 660), (1333, 660), (1333, 660), (1334, 661), (1334, 661), (1333, 662), (1327, 662), (1308, 662), (1294, 660), (1274, 656), (1218, 645), (1185, 640), (1140, 634), (1101, 625), (1061, 619), (1055, 619), (1055, 619), (1054, 620), (1068, 631), (1084, 638), (1097, 642), (1119, 648), (1174, 660), (1206, 665), (1232, 668), (1254, 673), (1275, 674), (1278, 674), (1279, 674), (1279, 674), (1279, 674), (1279, 674), (1279, 674), (1279, 674), (1280, 674), (1281, 674), (1281, 674), (1283, 674), (1286, 674), (1297, 674), (1303, 674), (1313, 674), (1338, 675)]",19.65382405805331,"[1, 2, 9, 3, 8, 5, 6, 7, 4]","(0, 0.25)",THI008A,THI,A,English,Wed Aug 22 15:39:11 2018,Mouse
1,2,1,0,17,4,4,1,3629,669,2960,138,0,500,200,8000,"[(960, 540), (960, 540), (960, 540), (960, 540), (960, 540), (960, 540), (960, 540), (960, 540), (960, 540), (960, 540), (960, 540), (960, 540), (960, 540), (960, 540), (960, 540), (960, 540), (960, 540), (960, 540), (960, 540), (960, 540), (960, 540), (960, 540), (960, 540), (960, 540), (960, 540), (960, 540), (960, 540), (960, 540), (960, 540), (960, 540), (960, 540), (960, 540), (960, 540), (960, 540), (960, 540), (960, 540), (960, 540), (960, 540), (960, 540), (960, 540), (960, 540), (960, 540), (960, 540), (960, 540), (960, 540), (960, 540), (960, 540), (960, 540), (960, 540), (960, 540), (960, 540), (960, 540), (960, 540), (960, 540), (960, 540), (960, 540), (960, 540), (960, 540), (960, 540), (960, 540), (960, 540), (960, 540), (960, 540), (960, 540), (960, 540), (960, 540), (974, 540), (989, 538), (1006, 534), (1025, 528), (1071, 513), (1092, 505), (1112, 497), (1123, 492), (1149, 479), (1159, 473), (1168, 469), (1174, 465), (1186, 455), (1194, 449), (1204, 440), (1214, 431), (1235, 413), (1243, 407), (1248, 402), (1250, 399), (1252, 399), (1252, 399), (1252, 399), (1252, 399), (1252, 399), (1252, 399), (1252, 399), (1252, 399), (1252, 401), (1250, 403), (1250, 404), (1249, 405), (1249, 407), (1249, 407), (1248, 407), (1247, 407), (1246, 407), (1245, 408), (1244, 408), (1241, 409), (1239, 411), (1236, 411), (1235, 411), (1234, 412), (1233, 413), (1233, 413), (1233, 413), (1233, 414), (1233, 414), (1233, 414), (1233, 414), (1233, 414), (1233, 414), (1233, 414), (1233, 414), (1232, 414), (1232, 414), (1232, 414), (1232, 414), (1231, 415), (1231, 415), (1231, 415), (1231, 415), (1230, 415), (1230, 415), (1230, 415), (1230, 415), (1230, 415), (1230, 415), (1230, 415), (1230, 415), (1230, 415), (1230, 415), (1230, 415), (1230, 415), (1230, 415), (1230, 415), (1230, 415), (1230, 415), (1230, 415), (1230, 415), (1230, 415), (1230, 415), (1230, 415), (1230, 415), (1230, 415), (1230, 415), (1230, 415), (1230, 415), (1230, 415), (1230, 415), (1230, 415), (1230, 415), (1230, 415), (1230, 415), (1230, 415), (1230, 415), (1230, 415), (1230, 415), (1230, 415), (1230, 415), (1230, 415), (1230, 415), (1230, 415), (1230, 415), (1230, 415), (1230, 415), (1230, 415), (1230, 415), (1230, 415), (1230, 415), (1230, 415), (1230, 415), (1230, 415), (1230, 415), (1230, 415), (1230, 415), (1230, 415), (1230, 415), (1230, 415), (1230, 415), (1230, 415), (1230, 415), (1230, 415), (1230, 415), (1230, 415), (1230, 415), (1230, 415), (1230, 415), (1230, 415), (1230, 415), (1230, 415), (1230, 415), (1230, 415), (1230, 415), (1230, 415), (1230, 415), (1230, 415), (1230, 415), (1230, 415), (1230, 415), (1230, 415), (1230, 415), (1230, 415), (1230, 415), (1230, 415), (1230, 415), (1230, 415), (1230, 415), (1230, 415), (1230, 415), (1230, 415), (1230, 415), (1230, 415), (1230, 415), (1230, 415), (1230, 415), (1230, 415), (1230, 415), (1230, 415), (1230, 415), (1230, 415), (1230, 415), (1230, 415), (1230, 415), (1230, 415), (1230, 415), (1230, 415), (1230, 415), (1230, 415), (1230, 415), (1230, 415), (1230, 415), (1230, 415), (1230, 415), (1230, 415), (1230, 415), (1230, 415), (1230, 415), (1230, 415), (1230, 415), (1230, 415), (1230, 415), (1230, 415), (1230, 415), (1230, 415), (1230, 415), (1230, 415), (1230, 415), (1230, 415), (1230, 415), (1230, 415), (1230, 415), (1230, 415), (1230, 415), (1230, 415), (1230, 415), (1230, 415), (1230, 415), (1230, 415), (1230, 415), (1230, 415), (1230, 415), (1230, 415), (1230, 415), (1230, 415), (1230, 415), (1230, 415), (1230, 415), (1230, 415), (1230, 415), (1230, 415), (1230, 415), (1230, 415), (1230, 415), (1230, 415), (1230, 415), (1230, 415), (1230, 415), (1230, 415), (1230, 415), (1230, 415), (1230, 415), (1230, 415), (1230, 415), (1230, 415), (1230, 415), (1230, 415), (1230, 415), (1230, 415), (1230, 415), (1230, 415), (1230, 415), (1230, 415), (1230, 415), (1230, 415), (1230, 415), (1230, 415), (1230, 415), (1230, 415), (1230, 415), (1230, 415), (1230, 415), (1230, 415), (1230, 415), (1230, 415), (1230, 415), (1230, 415), (1230, 415), (1230, 415), (1230, 415), (1230, 415), (1230, 415), (1230, 415), (1230, 415), (1230, 415), (1230, 415), (1230, 415), (1230, 415), (1230, 415), (1230, 415), (1230, 415), (1230, 415), (1230, 415), (1230, 415), (1230, 415), (1230, 415), (1230, 415), (1230, 415), (1230, 415), (1230, 415), (1230, 415), (1230, 415), (1230, 415), (1230, 415), (1230, 415), (1230, 415), (1230, 415), (1230, 415), (1230, 415), (1230, 415), (1230, 415), (1230, 415), (1230, 415), (1230, 415), (1230, 415), (1230, 415), (1232, 415), (1245, 415), (1255, 413), (1265, 411), (1277, 409), (1299, 406), (1310, 405), (1321, 404), (1331, 402), (1348, 398)]",339.89841602183526,"[1, 2, 9, 3, 8, 5, 6, 7, 4]","(0, 0.25)",THI008A,THI,A,English,Wed Aug 22 15:39:11 2018,Mouse
1,2,1,0,18,9,9,1,1929,899,1030,137,0,500,200,8000,"[(960, 540), (960, 540), (960, 540), (960, 540), (960, 540), (960, 540), (960, 540), (960, 540), (960, 540), (960, 540), (960, 540), (960, 540), (960, 540), (960, 540), (960, 540), (960, 540), (960, 540), (960, 540), (960, 540), (960, 540), (960, 540), (960, 540), (960, 540), (960, 540), (960, 540), (960, 540), (960, 540), (960, 540), (960, 540), (960, 540), (960, 540), (960, 540), (960, 540), (960, 540), (960, 540), (960, 540), (960, 540), (960, 540), (960, 540), (960, 540), (960, 540), (960, 540), (960, 540), (960, 540), (960, 540), (960, 540), (960, 540), (960, 540), (960, 540), (960, 540), (960, 540), (960, 540), (960, 540), (960, 540), (960, 540), (960, 540), (960, 540), (960, 540), (960, 540), (960, 540), (960, 540), (960, 540), (960, 540), (960, 540), (960, 540), (960, 540), (960, 540), (960, 540), (960, 540), (960, 540), (960, 540), (960, 540), (960, 540), (960, 540), (960, 540), (960, 540), (960, 540), (960, 540), (960, 540), (960, 540), (960, 540), (960, 540), (960, 540), (960, 540), (960, 540), (960, 540), (960, 540), (960, 540), (960, 540), (959, 543), (956, 547), (952, 551), (950, 554), (946, 557), (944, 559), (940, 563), (939, 564), (936, 567), (936, 567), (934, 568), (934, 568), (933, 570), (933, 570), (933, 570), (933, 570), (933, 570), (933, 570), (933, 570), (933, 570), (933, 570), (933, 570), (933, 570), (933, 570), (933, 570), (933, 570), (933, 570), (933, 570), (933, 570), (933, 570), (933, 570), (933, 570), (933, 570), (933, 570), (932, 572), (931, 572), (931, 573), (930, 573), (929, 575), (929, 577), (928, 577), (927, 579), (926, 581), (926, 581), (925, 583), (925, 584), (923, 586), (923, 586), (923, 586), (923, 586), (923, 587), (923, 587), (923, 587), (923, 587), (923, 587), (923, 587), (923, 587), (923, 587), (923, 587), (923, 587), (923, 587), (923, 587), (923, 587), (923, 587), (923, 587), (923, 587), (923, 587), (923, 587), (923, 587), (923, 587), (923, 588), (922, 588), (922, 588), (922, 588), (922, 588), (922, 590), (922, 590), (922, 590), (921, 591), (921, 592), (921, 593), (921, 593), (920, 594), (920, 596), (919, 599), (918, 604), (910, 621), (905, 635), (902, 651), (901, 674), (898, 728), (898, 754), (898, 782), (898, 807), (898, 844), (898, 859), (898, 871), (898, 881), (896, 896), (894, 903), (892, 907), (891, 915), (887, 931), (886, 939)]",100.50690260098692,"[1, 2, 9, 3, 8, 5, 6, 7, 4]","(0, 0.25)",THI008A,THI,A,English,Wed Aug 22 15:39:11 2018,Mouse
1,2,1,0,19,8,8,1,1429,1339,90,136,0,500,200,8000,"[(960, 540), (960, 540), (960, 540), (960, 540), (960, 540), (960, 540), (960, 540), (960, 540), (960, 540), (960, 540), (960, 540), (960, 540), (960, 540), (960, 540), (960, 540), (960, 540), (960, 540), (960, 540), (960, 540), (960, 540), (960, 540), (960, 540), (960, 540), (960, 540), (960, 540), (960, 540), (960, 540), (960, 540), (960, 540), (960, 540), (960, 540), (960, 540), (960, 540), (960, 540), (960, 540), (960, 540), (960, 540), (960, 540), (960, 540), (960, 540), (960, 540), (960, 540), (960, 540), (960, 540), (960, 540), (960, 540), (960, 540), (960, 540), (960, 540), (960, 540), (960, 540), (960, 540), (960, 540), (960, 540), (960, 540), (960, 540), (960, 540), (960, 540), (960, 540), (960, 540), (960, 540), (960, 540), (960, 540), (960, 540), (960, 540), (960, 540), (960, 540), (960, 540), (960, 540), (960, 540), (960, 540), (960, 540), (960, 540), (960, 540), (960, 540), (960, 540), (960, 540), (960, 540), (960, 540), (960, 540), (960, 540), (960, 540), (960, 540), (960, 540), (960, 540), (960, 540), (960, 540), (960, 540), (960, 540), (960, 540), (960, 540), (960, 540), (960, 540), (960, 540), (960, 540), (960, 540), (960, 540), (960, 540), (960, 540), (960, 540), (960, 540), (960, 540), (960, 540), (960, 540), (960, 540), (960, 540), (960, 540), (960, 540), (960, 540), (960, 540), (960, 540), (960, 540), (960, 540), (960, 540), (960, 540), (960, 540), (960, 540), (960, 540), (960, 540), (960, 540), (960, 540), (960, 540), (960, 540), (960, 540), (960, 540), (960, 540), (960, 540), (960, 540), (960, 540), (960, 540), (960, 540), (960, 540), (960, 540), (957, 540), (947, 540), (931, 540), (905, 540), (822, 540), (781, 540), (731, 540), (681, 540), (589, 540), (545, 540)]",180.0,"[1, 2, 9, 3, 8, 5, 6, 7, 4]","(0, 0.25)",THI008A,THI,A,English,Wed Aug 22 15:39:11 2018,Mouse
1,2,1,0,20,8,8,1,1591,1411,180,135,0,500,200,8000,"[(960, 540), (960, 540), (960, 540), (960, 540), (960, 540), (960, 540), (960, 540), (960, 540), (960, 540), (960, 540), (960, 540), (960, 540), (960, 540), (960, 540), (960, 540), (960, 540), (960, 540), (960, 540), (960, 540), (960, 540), (960, 540), (960, 540), (960, 540), (960, 540), (960, 540), (960, 540), (960, 540), (960, 540), (960, 540), (960, 540), (960, 540), (960, 540), (960, 540), (960, 540), (960, 540), (960, 540), (960, 540), (960, 540), (960, 540), (960, 540), (960, 540), (960, 540), (960, 540), (960, 540), (960, 540), (960, 540), (960, 540), (960, 540), (960, 540), (960, 540), (960, 540), (960, 540), (960, 540), (960, 540), (960, 540), (960, 540), (960, 540), (960, 540), (960, 540), (960, 540), (960, 540), (960, 540), (960, 540), (960, 540), (960, 540), (960, 540), (960, 540), (960, 540), (960, 540), (960, 540), (960, 540), (960, 540), (960, 540), (960, 540), (960, 540), (960, 540), (960, 540), (960, 540), (960, 540), (960, 540), (960, 540), (960, 540), (960, 540), (960, 540), (960, 540), (960, 540), (960, 540), (960, 540), (960, 540), (960, 540), (960, 540), (960, 540), (960, 540), (960, 540), (960, 540), (960, 540), (960, 540), (960, 540), (960, 540), (960, 540), (960, 540), (960, 540), (960, 540), (960, 540), (960, 540), (960, 540), (960, 540), (960, 540), (960, 540), (960, 540), (960, 540), (960, 540), (960, 540), (960, 540), (960, 540), (960, 540), (960, 540), (960, 540), (960, 540), (960, 540), (960, 540), (960, 540), (960, 540), (960, 540), (960, 540), (960, 540), (960, 540), (960, 540), (960, 540), (960, 540), (960, 540), (960, 540), (960, 540), (960, 540), (960, 540), (960, 540), (960, 540), (960, 540), (960, 540), (960, 540), (960, 540), (958, 542), (956, 542), (953, 542), (949, 542), (939, 542), (935, 542), (926, 542), (917, 542), (892, 542), (874, 542), (843, 542), (812, 542), (743, 542), (710, 542), (683, 545), (662, 549), (607, 554), (580, 558), (551, 562)]",176.92104262717012,"[1, 2, 9, 3, 8, 5, 6, 7, 4]","(0, 0.25)",THI008A,THI,A,English,Wed Aug 22 15:39:11 2018,Mouse
1,2,1,0,21,1,1,1,599,289,310,134,0,500,200,8000,"[(960, 540), (960, 540), (960, 540), (960, 540), (960, 540), (960, 540), (960, 540), (960, 540), (960, 540), (960, 540), (960, 540), (960, 540), (960, 540), (960, 540), (960, 540), (960, 540), (960, 540), (960, 540), (960, 540), (960, 540), (960, 540), (960, 540), (960, 540), (960, 540), (960, 540), (960, 540), (960, 540), (960, 540), (962, 542), (962, 542), (964, 544), (969, 546), (981, 551), (987, 552), (994, 553), (1001, 557), (1015, 561), (1027, 564), (1035, 567), (1046, 568), (1067, 575), (1080, 580), (1091, 583), (1105, 586), (1133, 595), (1147, 598), (1165, 603), (1176, 604), (1207, 616), (1225, 617), (1239, 620), (1250, 621), (1277, 628), (1285, 632), (1294, 634), (1300, 636), (1316, 643), (1324, 648), (1336, 653), (1346, 659)]",17.134015339903357,"[1, 2, 9, 3, 8, 5, 6, 7, 4]","(0, 0.25)",THI008A,THI,A,English,Wed Aug 22 15:39:11 2018,Mouse
1,2,1,0,22,8,4,0,-2606,797,1809,133,0,500,200,8000,"[(960, 540), (960, 540), (960, 540), (960, 540), (960, 540), (960, 540), (960, 540), (960, 540), (960, 540), (960, 540), (960, 540), (960, 540), (960, 540), (960, 540), (960, 540), (960, 540), (960, 540), (960, 540), (960, 540), (960, 540), (960, 540), (960, 540), (960, 540), (960, 540), (960, 540), (960, 540), (960, 540), (960, 540), (960, 540), (960, 540), (960, 540), (960, 540), (960, 540), (960, 540), (960, 540), (960, 540), (960, 540), (960, 540), (960, 540), (960, 540), (960, 540), (960, 540), (960, 540), (960, 540), (960, 540), (960, 540), (960, 540), (960, 540), (960, 540), (960, 540), (960, 540), (960, 540), (960, 540), (960, 540), (960, 540), (960, 540), (960, 540), (960, 540), (960, 540), (960, 540), (960, 540), (960, 540), (960, 540), (960, 540), (960, 540), (960, 540), (960, 540), (960, 540), (960, 540), (960, 540), (960, 540), (960, 540), (960, 540), (960, 540), (960, 540), (960, 540), (960, 540), (960, 540), (960, 540), (962, 539), (965, 539), (966, 539), (969, 539), (975, 540), (978, 541), (981, 541), (983, 542), (984, 542), (984, 542), (984, 542), (984, 542), (984, 542), (984, 542), (984, 542), (984, 542), (984, 542), (984, 542), (984, 542), (984, 542), (984, 542), (984, 542), (984, 542), (984, 542), (984, 542), (984, 542), (984, 542), (984, 542), (984, 542), (984, 542), (984, 542), (984, 542), (984, 542), (984, 542), (984, 542), (984, 542), (984, 542), (984, 542), (984, 542), (984, 542), (984, 542), (984, 542), (984, 542), (984, 542), (984, 542), (984, 542), (984, 542), (984, 542), (984, 542), (984, 542), (984, 542), (984, 542), (984, 542), (984, 542), (984, 542), (984, 542), (984, 542), (984, 542), (984, 542), (984, 542), (984, 542), (984, 542), (984, 542), (984, 542), (984, 542), (984, 542), (984, 542), (984, 542), (984, 542), (984, 542), (984, 542), (984, 542), (984, 542), (984, 542), (984, 542), (984, 542), (984, 542), (984, 542), (984, 542), (984, 542), (984, 542), (984, 542), (984, 542), (984, 542), (984, 542), (984, 542), (984, 542), (984, 542), (984, 542), (984, 542), (984, 542), (984, 542), (984, 542), (984, 542), (984, 542), (984, 542), (984, 542), (984, 542), (984, 542), (984, 542), (984, 542), (984, 542), (984, 542), (984, 542), (984, 542), (984, 542), (984, 542), (984, 542), (984, 542), (984, 542), (984, 542), (984, 542), (984, 542), (984, 542), (984, 542), (984, 542), (984, 542), (984, 542), (984, 542), (984, 542), (996, 540), (1004, 538), (1016, 534), (1027, 532), (1057, 522), (1071, 520), (1085, 515), (1098, 511), (1121, 500), (1133, 497), (1146, 488), (1159, 482), (1182, 469), (1192, 463), (1202, 457), (1211, 452), (1224, 439), (1252, 420), (1257, 417), (1259, 416), (1265, 414), (1274, 414), (1279, 414), (1283, 414), (1288, 414), (1301, 414), (1306, 414), (1312, 414), (1316, 414), (1322, 413), (1323, 413), (1323, 413), (1323, 413), (1323, 413), (1323, 413), (1323, 413), (1323, 413), (1323, 413), (1323, 413), (1323, 413), (1323, 413), (1323, 413), (1323, 413), (1323, 413), (1323, 413), (1323, 413), (1323, 413), (1323, 413), (1323, 413), (1323, 413), (1323, 413), (1323, 413), (1323, 413), (1323, 413), (1323, 413), (1323, 413), (1323, 413), (1326, 411), (1328, 408), (1330, 407), (1335, 403), (1346, 394)]",339.2814600955109,"[1, 2, 9, 3, 8, 5, 6, 7, 4]","(0, 0.25)",THI008A,THI,A,English,Wed Aug 22 15:39:11 2018,Mouse
1,2,1,0,23,2,2,1,741,631,110,134,0,500,200,8000,"[(960, 540), (960, 540), (960, 540), (960, 540), (960, 540), (960, 540), (960, 540), (960, 540), (960, 540), (960, 540), (960, 540), (960, 540), (960, 540), (960, 540), (960, 540), (960, 540), (960, 540), (960, 540), (960, 540), (960, 540), (960, 540), (960, 540), (960, 540), (960, 540), (960, 540), (960, 540), (960, 540), (960, 540), (960, 540), (960, 540), (960, 540), (960, 540), (960, 540), (960, 540), (960, 540), (960, 540), (960, 540), (960, 540), (960, 540), (960, 540), (960, 540), (960, 540), (960, 540), (960, 540), (960, 540), (960, 540), (960, 540), (960, 540), (960, 540), (960, 540), (960, 540), (960, 540), (960, 540), (960, 540), (960, 540), (960, 540), (960, 540), (960, 540), (960, 540), (960, 540), (960, 540), (960, 540), (960, 540), (960, 553), (963, 566), (969, 580), (978, 597), (1003, 643), (1027, 674), (1051, 702), (1076, 734), (1125, 791), (1146, 817), (1169, 856), (1183, 878)]",56.58463616130879,"[1, 2, 9, 3, 8, 5, 6, 7, 4]","(0, 0.25)",THI008A,THI,A,English,Wed Aug 22 15:39:11 2018,Mouse
1,2,1,0,24,7,7,1,1491,1361,130,134,0,500,200,8000,"[(960, 540), (960, 540), (960, 540), (960, 540), (960, 540), (960, 540), (960, 540), (960, 540), (960, 540), (960, 540), (960, 540), (960, 540), (960, 540), (960, 540), (960, 540), (960, 540), (960, 540), (960, 540), (960, 540), (960, 540), (960, 540), (960, 540), (960, 540), (960, 540), (960, 540), (960, 540), (960, 540), (960, 540), (960, 540), (960, 540), (960, 540), (960, 540), (960, 540), (960, 540), (960, 540), (960, 540), (960, 540), (960, 540), (960, 540), (960, 540), (960, 540), (960, 540), (960, 540), (960, 540), (960, 540), (960, 540), (960, 540), (960, 540), (960, 540), (960, 540), (960, 540), (960, 540), (960, 540), (960, 540), (960, 540), (960, 540), (960, 540), (960, 540), (960, 540), (960, 540), (960, 540), (960, 540), (960, 540), (960, 540), (960, 540), (960, 540), (960, 540), (960, 540), (960, 540), (960, 540), (960, 540), (960, 540), (960, 540), (960, 540), (960, 540), (960, 540), (960, 540), (960, 540), (960, 540), (960, 540), (960, 540), (960, 540), (960, 540), (960, 540), (960, 540), (960, 540), (960, 540), (960, 540), (960, 540), (960, 540), (960, 540), (960, 540), (960, 540), (960, 540), (960, 540), (960, 540), (960, 540), (960, 540), (960, 540), (960, 540), (960, 540), (960, 540), (960, 540), (960, 540), (960, 540), (960, 540), (960, 540), (960, 540), (960, 540), (960, 540), (960, 540), (960, 540), (960, 540), (960, 540), (960, 540), (960, 540), (960, 540), (960, 540), (960, 540), (960, 540), (960, 540), (960, 540), (960, 540), (960, 540), (960, 540), (960, 540), (960, 540), (960, 540), (960, 540), (960, 540), (960, 540), (960, 540), (960, 540), (960, 540), (960, 540), (960, 534), (965, 522), (977, 507), (990, 487), (1022, 437), (1039, 412), (1056, 385), (1069, 360), (1102, 301), (1112, 275), (1119, 255), (1130, 231), (1142, 186), (1146, 170)]",296.68879996848443,"[1, 2, 9, 3, 8, 5, 6, 7, 4]","(0, 0.25)",THI008A,THI,A,English,Wed Aug 22 15:39:11 2018,Mouse
1,2,1,0,25,8,4,0,-1370,1260,110,133,0,500,200,8000,"[(960, 540), (960, 540), (960, 540), (960, 540), (960, 540), (960, 540), (960, 540), (960, 540), (960, 540), (960, 540), (960, 540), (960, 540), (960, 540), (960, 540), (960, 540), (960, 540), (960, 540), (960, 540), (960, 540), (960, 540), (960, 540), (960, 540), (960, 540), (960, 540), (960, 540), (960, 540), (960, 540), (960, 540), (960, 540), (960, 540), (960, 540), (960, 540), (960, 540), (960, 540), (960, 540), (960, 540), (960, 540), (960, 540), (960, 540), (960, 540), (960, 540), (960, 540), (960, 540), (960, 540), (960, 540), (960, 540), (960, 540), (960, 540), (960, 540), (960, 540), (960, 540), (960, 540), (960, 540), (960, 540), (960, 540), (960, 540), (960, 540), (960, 540), (960, 540), (960, 540), (960, 540), (960, 540), (960, 540), (960, 540), (960, 540), (960, 540), (960, 540), (960, 540), (960, 540), (960, 540), (960, 540), (960, 540), (960, 540), (960, 540), (960, 540), (960, 540), (960, 540), (960, 540), (960, 540), (960, 540), (960, 540), (960, 540), (960, 540), (960, 540), (960, 540), (960, 540), (960, 540), (960, 540), (960, 540), (960, 540), (960, 540), (960, 540), (960, 540), (960, 540), (960, 540), (960, 540), (960, 540), (960, 540), (960, 540), (960, 540), (960, 540), (960, 540), (960, 540), (960, 540), (960, 540), (960, 540), (960, 540), (960, 540), (960, 540), (960, 540), (960, 540), (960, 540), (960, 540), (960, 540), (960, 540), (960, 540), (960, 540), (960, 540), (960, 540), (960, 540), (960, 540), (960, 540), (960, 540), (960, 540), (960, 540), (966, 539), (977, 533), (987, 528), (1038, 497), (1081, 476), (1129, 456), (1170, 436), (1238, 409), (1265, 396), (1291, 386), (1314, 377), (1361, 357)]",335.4699832797819,"[1, 2, 9, 3, 8, 5, 6, 7, 4]","(0, 0.25)",THI008A,THI,A,English,Wed Aug 22 15:39:11 2018,Mouse
1,2,1,0,26,8,8,1,1510,630,880,134,0,500,200,8000,"[(960, 540), (960, 540), (960, 540), (960, 540), (960, 540), (960, 540), (960, 540), (960, 540), (960, 540), (960, 540), (960, 540), (960, 540), (960, 540), (960, 540), (960, 540), (960, 540), (960, 540), (960, 540), (960, 540), (960, 540), (960, 540), (960, 540), (960, 540), (960, 540), (960, 540), (960, 540), (960, 540), (960, 540), (960, 540), (960, 540), (960, 540), (960, 540), (960, 540), (960, 540), (960, 540), (960, 540), (960, 540), (960, 540), (960, 540), (960, 540), (960, 540), (960, 540), (960, 540), (960, 540), (960, 540), (960, 540), (960, 540), (960, 540), (960, 540), (960, 540), (960, 540), (960, 540), (960, 540), (960, 540), (960, 540), (960, 540), (960, 540), (960, 540), (960, 540), (960, 540), (960, 540), (960, 540), (958, 542), (958, 542), (958, 542), (958, 542), (958, 542), (958, 542), (958, 542), (958, 542), (958, 542), (958, 542), (958, 542), (958, 542), (958, 542), (958, 542), (958, 542), (958, 542), (958, 542), (958, 542), (958, 542), (958, 542), (958, 542), (958, 542), (958, 542), (958, 542), (958, 542), (958, 542), (958, 542), (958, 542), (958, 542), (958, 542), (958, 542), (958, 542), (958, 542), (958, 542), (958, 542), (958, 542), (958, 542), (958, 542), (958, 542), (958, 542), (958, 542), (958, 542), (958, 542), (958, 542), (958, 542), (958, 542), (958, 542), (958, 542), (958, 542), (958, 542), (958, 542), (958, 542), (958, 542), (958, 542), (958, 542), (958, 542), (958, 542), (958, 542), (958, 542), (958, 542), (958, 542), (958, 542), (958, 542), (958, 542), (958, 542), (957, 542), (956, 542), (956, 542), (955, 542), (954, 542), (953, 542), (952, 542), (948, 542), (947, 542), (944, 543), (940, 543), (928, 543), (922, 543), (915, 543), (905, 543), (883, 543), (867, 543), (850, 543), (828, 543), (766, 543), (725, 543), (686, 543), (641, 543), (547, 543)]",179.5838152168335,"[1, 2, 9, 3, 8, 5, 6, 7, 4]","(0, 0.25)",THI008A,THI,A,English,Wed Aug 22 15:39:11 2018,Mouse
1,2,1,0,27,7,7,1,3438,629,2809,134,0,500,200,8000,"[(960, 540), (960, 540), (960, 540), (960, 540), (960, 540), (960, 540), (960, 540), (960, 540), (960, 540), (960, 540), (960, 540), (960, 540), (960, 540), (960, 540), (960, 540), (960, 540), (960, 540), (960, 540), (960, 540), (960, 540), (960, 540), (960, 540), (960, 540), (960, 540), (960, 540), (960, 540), (960, 540), (960, 540), (960, 540), (960, 540), (960, 540), (960, 540), (960, 540), (960, 540), (960, 540), (960, 540), (960, 540), (960, 540), (960, 540), (960, 540), (960, 540), (960, 540), (960, 540), (960, 540), (960, 540), (960, 540), (960, 540), (960, 540), (960, 540), (960, 540), (960, 540), (960, 540), (960, 540), (960, 540), (960, 540), (960, 540), (960, 540), (960, 540), (960, 540), (960, 540), (960, 540), (960, 540), (960, 541), (960, 541), (960, 541), (960, 541), (960, 542), (960, 542), (960, 542), (960, 542), (960, 542), (960, 542), (960, 542), (960, 542), (960, 542), (960, 542), (960, 542), (960, 542), (960, 542), (960, 542), (960, 542), (960, 542), (960, 542), (960, 542), (960, 542), (960, 542), (960, 542), (959, 542), (959, 542), (959, 542), (959, 542), (959, 542), (959, 542), (959, 542), (959, 542), (959, 542), (959, 542), (959, 542), (959, 542), (959, 542), (959, 542), (959, 542), (959, 542), (959, 542), (959, 542), (959, 542), (959, 542), (959, 542), (959, 542), (959, 542), (959, 542), (959, 542), (959, 542), (959, 542), (959, 542), (959, 542), (959, 542), (959, 542), (959, 542), (959, 542), (959, 542), (959, 542), (959, 542), (959, 542), (959, 542), (959, 542), (959, 542), (959, 542), (959, 542), (959, 542), (959, 542), (959, 542), (959, 542), (959, 542), (959, 542), (959, 542), (959, 542), (959, 542), (959, 542), (959, 542), (959, 542), (959, 542), (959, 542), (959, 542), (959, 542), (959, 542), (959, 542), (959, 542), (959, 542), (959, 542), (959, 542), (959, 542), (959, 542), (959, 542), (959, 542), (959, 542), (959, 542), (959, 542), (959, 542), (959, 542), (959, 542), (959, 542), (959, 542), (959, 542), (959, 542), (959, 542), (959, 542), (959, 542), (959, 542), (959, 542), (959, 542), (959, 542), (959, 542), (959, 542), (959, 542), (959, 542), (959, 542), (959, 542), (959, 542), (959, 542), (959, 542), (959, 542), (959, 542), (959, 542), (959, 542), (959, 542), (959, 542), (959, 542), (959, 542), (959, 542), (959, 542), (959, 542), (959, 542), (959, 542), (959, 542), (959, 542), (959, 542), (959, 542), (959, 542), (959, 542), (959, 542), (959, 542), (959, 542), (959, 542), (959, 542), (959, 542), (959, 542), (959, 542), (959, 542), (959, 542), (959, 542), (959, 542), (959, 542), (959, 542), (959, 542), (959, 542), (959, 542), (959, 542), (959, 542), (959, 542), (959, 542), (959, 542), (959, 542), (959, 542), (959, 542), (959, 542), (959, 542), (959, 542), (959, 542), (959, 542), (959, 542), (959, 542), (959, 542), (959, 542), (959, 542), (959, 542), (959, 542), (959, 542), (959, 542), (959, 542), (959, 542), (959, 542), (959, 542), (959, 542), (959, 542), (959, 542), (959, 542), (959, 542), (959, 542), (959, 542), (959, 542), (959, 542), (959, 542), (959, 542), (959, 542), (959, 542), (959, 542), (959, 542), (959, 542), (959, 542), (959, 542), (959, 542), (959, 542), (959, 542), (959, 542), (959, 542), (959, 542), (959, 542), (959, 542), (959, 542), (959, 542), (959, 542), (959, 542), (959, 542), (959, 542), (959, 542), (959, 542), (959, 542), (959, 542), (959, 542), (959, 542), (959, 542), (959, 542), (959, 542), (959, 542), (959, 542), (959, 542), (959, 542), (959, 542), (959, 542), (959, 542), (959, 542), (959, 542), (959, 542), (959, 542), (959, 542), (959, 542), (959, 542), (959, 542), (959, 542), (959, 542), (959, 542), (959, 542), (959, 542), (959, 542), (959, 542), (959, 542), (959, 542), (959, 542), (959, 542), (959, 542), (959, 542), (959, 542), (959, 542), (959, 542), (959, 542), (959, 542), (959, 542), (959, 542), (959, 542), (959, 542), (959, 542), (959, 542), (959, 542), (959, 542), (959, 542), (959, 542), (959, 542), (959, 542), (959, 542), (959, 542), (960, 536), (965, 528), (973, 517), (983, 500), (1007, 465), (1014, 455), (1026, 440), (1034, 424), (1059, 375), (1087, 318), (1116, 269), (1137, 231), (1161, 183)]",299.3806078612892,"[1, 2, 9, 3, 8, 5, 6, 7, 4]","(0, 0.25)",THI008A,THI,A,English,Wed Aug 22 15:39:11 2018,Mouse
1,2,1,0,28,7,3,0,-1080,670,410,133,0,500,200,8000,"[(960, 540), (960, 540), (960, 540), (960, 540), (960, 540), (960, 540), (960, 540), (960, 540), (960, 540), (960, 540), (960, 540), (960, 540), (960, 540), (960, 540), (960, 540), (960, 540), (960, 540), (960, 540), (960, 540), (960, 540), (960, 540), (960, 540), (960, 540), (960, 540), (960, 540), (960, 540), (960, 540), (960, 540), (960, 540), (960, 540), (960, 540), (960, 540), (960, 540), (960, 540), (960, 540), (960, 540), (960, 540), (960, 540), (960, 540), (960, 540), (960, 540), (960, 540), (960, 540), (960, 540), (960, 540), (960, 540), (960, 540), (960, 540), (960, 540), (960, 540), (960, 540), (960, 540), (960, 540), (960, 540), (960, 540), (960, 540), (960, 540), (960, 540), (960, 540), (960, 540), (960, 540), (960, 540), (960, 540), (960, 540), (960, 540), (960, 540), (958, 543), (955, 546), (951, 550), (947, 554), (935, 564), (925, 571), (917, 576), (904, 585), (877, 599), (864, 606), (845, 618), (835, 624), (796, 647), (783, 654), (767, 663), (756, 670), (736, 683), (728, 689), (723, 694), (717, 701), (710, 713), (708, 716), (708, 717), (708, 717), (708, 717), (708, 717), (708, 717), (708, 717), (708, 717), (708, 717), (708, 717), (708, 717), (708, 717), (706, 720), (705, 723), (702, 728), (693, 738), (686, 746), (678, 752), (668, 759), (646, 774), (636, 780)]",143.47114463301483,"[1, 2, 9, 3, 8, 5, 6, 7, 4]","(0, 0.25)",THI008A,THI,A,English,Wed Aug 22 15:39:11 2018,Mouse
1,2,1,0,29,9,9,1,1021,781,240,134,0,500,200,8000,"[(960, 540), (960, 540), (960, 540), (960, 540), (960, 540), (960, 540), (960, 540), (960, 540), (960, 540), (960, 540), (960, 540), (960, 540), (960, 540), (960, 540), (960, 540), (960, 540), (960, 540), (960, 540), (960, 540), (960, 540), (960, 540), (960, 540), (960, 540), (960, 540), (960, 540), (960, 540), (960, 540), (960, 540), (960, 540), (960, 540), (960, 540), (960, 540), (960, 540), (960, 540), (960, 540), (960, 540), (960, 540), (960, 540), (960, 540), (960, 540), (960, 540), (960, 540), (960, 540), (960, 540), (960, 540), (960, 540), (960, 540), (960, 540), (960, 540), (960, 540), (960, 540), (960, 540), (960, 540), (960, 540), (960, 540), (960, 540), (960, 540), (960, 540), (960, 540), (960, 540), (960, 540), (960, 540), (960, 540), (960, 540), (960, 540), (960, 540), (960, 540), (960, 540), (960, 540), (960, 540), (960, 540), (960, 540), (960, 540), (960, 540), (960, 540), (960, 540), (960, 540), (960, 540), (959, 551), (958, 558), (956, 569), (955, 586), (954, 594), (954, 605), (954, 617), (954, 658), (954, 684), (948, 719), (947, 747), (943, 784), (935, 835), (931, 854), (930, 867), (930, 878), (930, 896), (930, 903), (930, 907), (929, 910), (927, 916), (926, 919), (923, 924), (922, 928), (913, 942)]",96.66848593480275,"[1, 2, 9, 3, 8, 5, 6, 7, 4]","(0, 0.25)",THI008A,THI,A,English,Wed Aug 22 15:39:11 2018,Mouse
1,2,1,0,30,2,2,1,700,570,130,134,0,500,200,8000,"[(960, 540), (960, 540), (960, 540), (960, 540), (960, 540), (960, 540), (960, 540), (960, 540), (960, 540), (960, 540), (960, 540), (960, 540), (960, 540), (960, 540), (960, 540), (960, 540), (960, 540), (960, 540), (960, 540), (960, 540), (960, 540), (960, 540), (960, 540), (960, 540), (960, 540), (960, 540), (960, 540), (960, 540), (960, 540), (960, 540), (960, 540), (960, 540), (960, 540), (960, 540), (960, 540), (960, 540), (960, 540), (960, 540), (960, 540), (960, 540), (960, 540), (960, 540), (960, 540), (960, 540), (960, 540), (960, 540), (960, 540), (960, 540), (960, 540), (960, 540), (960, 540), (960, 540), (960, 540), (960, 540), (960, 540), (960, 540), (960, 542), (961, 553), (964, 561), (969, 573), (975, 585), (993, 617), (1009, 644), (1029, 677), (1050, 718), (1093, 789), (1110, 814), (1132, 847), (1148, 868), (1173, 906)]",59.80199808343381,"[1, 2, 9, 3, 8, 5, 6, 7, 4]","(0, 0.25)",THI008A,THI,A,English,Wed Aug 22 15:39:11 2018,Mouse
1,2,1,0,31,7,1,0,-1830,1550,280,133,0,500,200,8000,"[(960, 540), (960, 540), (960, 540), (960, 540), (960, 540), (960, 540), (960, 540), (960, 540), (960, 540), (960, 540), (960, 540), (960, 540), (960, 540), (960, 540), (960, 540), (960, 540), (960, 540), (960, 540), (960, 540), (960, 540), (960, 540), (960, 540), (960, 540), (960, 540), (960, 540), (960, 540), (960, 540), (960, 540), (960, 540), (960, 540), (960, 540), (960, 540), (960, 540), (960, 540), (960, 540), (960, 540), (960, 540), (960, 540), (960, 540), (960, 540), (960, 540), (960, 540), (960, 540), (960, 540), (960, 540), (960, 540), (960, 540), (960, 540), (960, 540), (960, 540), (960, 540), (960, 540), (960, 540), (960, 540), (960, 540), (960, 540), (960, 540), (960, 540), (960, 540), (960, 540), (960, 540), (960, 540), (960, 540), (960, 540), (960, 540), (960, 540), (960, 540), (960, 540), (960, 540), (960, 540), (960, 540), (960, 540), (960, 540), (960, 540), (960, 540), (960, 540), (960, 540), (960, 540), (960, 540), (960, 540), (960, 540), (960, 540), (960, 540), (960, 540), (960, 540), (960, 540), (960, 540), (960, 540), (960, 540), (960, 540), (960, 540), (960, 540), (960, 540), (960, 540), (960, 540), (960, 540), (960, 540), (960, 540), (960, 540), (960, 540), (960, 540), (960, 540), (960, 540), (960, 540), (960, 540), (960, 540), (960, 540), (960, 540), (960, 540), (960, 540), (960, 540), (960, 540), (960, 540), (960, 540), (960, 540), (960, 540), (960, 540), (960, 540), (960, 540), (960, 540), (960, 540), (960, 540), (960, 540), (960, 540), (960, 540), (960, 540), (960, 540), (960, 540), (960, 540), (960, 540), (960, 540), (960, 540), (960, 540), (960, 540), (960, 540), (960, 540), (960, 540), (960, 540), (960, 540), (960, 540), (960, 540), (960, 540), (960, 540), (960, 540), (960, 540), (960, 540), (960, 540), (960, 540), (960, 540), (960, 540), (960, 540), (960, 540), (960, 540), (960, 540), (971, 542), (981, 545), (990, 546), (1005, 551), (1027, 556), (1038, 557), (1046, 558), (1056, 560), (1067, 562), (1070, 562), (1070, 562), (1071, 562), (1071, 562), (1071, 562), (1071, 562), (1071, 562), (1073, 562), (1075, 562), (1077, 562), (1084, 563), (1103, 566), (1118, 569), (1143, 573), (1163, 575), (1223, 586), (1255, 591), (1284, 595), (1314, 601), (1361, 607)]",9.48549073871313,"[1, 2, 9, 3, 8, 5, 6, 7, 4]","(0, 0.25)",THI008A,THI,A,English,Wed Aug 22 15:39:11 2018,Mouse
1,2,1,0,32,4,7,0,-1498,278,1220,134,0,500,200,8000,"[(960, 540), (960, 540), (960, 540), (960, 540), (960, 540), (960, 540), (960, 540), (960, 540), (960, 540), (960, 540), (960, 540), (960, 540), (960, 540), (960, 540), (960, 540), (960, 540), (960, 540), (960, 540), (960, 540), (960, 540), (960, 540), (960, 540), (960, 540), (960, 540), (960, 540), (960, 540), (960, 540), (960, 547), (964, 552), (968, 559), (973, 567), (986, 580), (994, 592), (1002, 602), (1012, 616), (1032, 647), (1041, 660), (1047, 668), (1055, 678), (1062, 688), (1063, 689), (1063, 689), (1063, 689), (1063, 689), (1063, 689), (1063, 689), (1063, 689), (1063, 689), (1063, 689), (1063, 689), (1063, 689), (1063, 689), (1063, 689), (1063, 689), (1063, 689), (1063, 689), (1063, 689), (1063, 688), (1063, 688), (1063, 687), (1063, 687), (1063, 687), (1063, 687), (1062, 686), (1062, 686), (1062, 686), (1062, 686), (1062, 686), (1062, 686), (1062, 686), (1062, 686), (1062, 686), (1062, 686), (1062, 686), (1062, 686), (1062, 686), (1062, 686), (1062, 686), (1062, 686), (1062, 686), (1062, 686), (1062, 686), (1062, 686), (1062, 686), (1062, 686), (1062, 686), (1062, 686), (1062, 686), (1062, 686), (1062, 686), (1062, 686), (1062, 686), (1062, 686), (1062, 686), (1062, 686), (1062, 686), (1062, 686), (1062, 686), (1062, 686), (1062, 686), (1062, 686), (1062, 686), (1062, 685), (1061, 684), (1061, 684), (1061, 682), (1061, 682), (1061, 682), (1061, 682), (1061, 682), (1061, 682), (1061, 682), (1061, 682), (1061, 682), (1061, 682), (1061, 682), (1061, 682), (1061, 682), (1061, 682), (1061, 682), (1061, 682), (1061, 682), (1061, 682), (1061, 682), (1060, 682), (1060, 681), (1060, 681), (1059, 681), (1059, 681), (1058, 679), (1058, 679), (1058, 679), (1058, 679), (1058, 678), (1058, 676), (1058, 666), (1058, 658), (1058, 646), (1058, 632), (1063, 582), (1068, 558), (1071, 529), (1077, 507), (1107, 433), (1127, 387), (1151, 341), (1166, 304), (1190, 251), (1203, 227), (1211, 207)]",307.0072973333293,"[1, 2, 9, 3, 8, 5, 6, 7, 4]","(0, 0.25)",THI008A,THI,A,English,Wed Aug 22 15:39:11 2018,Mouse
1,2,1,0,33,9,9,1,630,440,190,135,0,500,200,8000,"[(960, 540), (960, 540), (960, 540), (960, 540), (960, 540), (960, 540), (960, 540), (960, 540), (960, 540), (960, 540), (960, 540), (960, 540), (960, 540), (960, 540), (960, 540), (960, 540), (960, 540), (960, 540), (960, 540), (960, 540), (960, 540), (960, 540), (960, 540), (960, 540), (960, 540), (960, 540), (960, 540), (960, 540), (960, 540), (960, 540), (960, 540), (960, 540), (960, 540), (960, 540), (960, 540), (960, 540), (960, 540), (960, 540), (960, 540), (960, 540), (960, 540), (960, 540), (960, 540), (959, 542), (958, 545), (957, 548), (956, 549), (955, 551), (953, 560), (952, 567), (949, 577), (945, 590), (941, 628), (934, 655), (933, 686), (925, 724), (901, 810), (893, 836), (887, 860), (881, 880), (878, 906), (874, 920), (870, 936)]",102.80426606528675,"[1, 2, 9, 3, 8, 5, 6, 7, 4]","(0, 0.25)",THI008A,THI,A,English,Wed Aug 22 15:39:11 2018,Mouse
1,2,1,0,34,4,9,0,-711,521,190,135,0,500,200,8000,"[(960, 540), (960, 540), (960, 540), (960, 540), (960, 540), (960, 540), (960, 540), (960, 540), (960, 540), (960, 540), (960, 540), (960, 540), (960, 540), (960, 540), (960, 540), (960, 540), (960, 540), (960, 540), (960, 540), (960, 540), (960, 540), (960, 540), (960, 540), (960, 540), (960, 540), (960, 540), (960, 540), (960, 540), (960, 540), (960, 540), (960, 540), (960, 540), (960, 540), (960, 540), (960, 540), (960, 540), (960, 540), (960, 540), (960, 540), (960, 540), (960, 540), (960, 540), (960, 540), (960, 540), (960, 540), (960, 540), (960, 540), (960, 540), (960, 540), (960, 540), (960, 540), (960, 540), (960, 541), (959, 549), (956, 558), (954, 564), (950, 574), (947, 600), (947, 618), (947, 641), (947, 674), (941, 759), (938, 785), (934, 812), (930, 838), (926, 866), (924, 878), (922, 888), (919, 899), (911, 920), (908, 931), (906, 940)]",97.68844776990288,"[1, 2, 9, 3, 8, 5, 6, 7, 4]","(0, 0.25)",THI008A,THI,A,English,Wed Aug 22 15:39:11 2018,Mouse
1,2,1,0,35,3,3,1,870,700,170,136,0,500,200,8000,"[(960, 540), (960, 540), (960, 540), (960, 540), (960, 540), (960, 540), (960, 540), (960, 540), (960, 540), (960, 540), (960, 540), (960, 540), (960, 540), (960, 540), (960, 540), (960, 540), (960, 540), (960, 540), (960, 540), (960, 540), (960, 540), (960, 540), (960, 540), (960, 540), (960, 540), (960, 540), (960, 540), (960, 540), (960, 540), (960, 540), (960, 540), (960, 540), (960, 540), (960, 540), (960, 540), (960, 540), (960, 540), (960, 540), (960, 540), (960, 540), (960, 540), (960, 540), (960, 540), (960, 540), (960, 540), (960, 540), (960, 540), (960, 540), (960, 540), (960, 540), (960, 540), (960, 540), (960, 540), (960, 540), (960, 540), (960, 540), (960, 540), (960, 540), (960, 540), (960, 540), (960, 540), (960, 540), (960, 540), (960, 540), (960, 540), (960, 540), (960, 540), (960, 540), (960, 540), (958, 541), (955, 543), (943, 551), (935, 555), (929, 560), (921, 564), (903, 573), (893, 579), (880, 586), (858, 598), (809, 635), (783, 660), (760, 686), (737, 715), (692, 767), (677, 785), (663, 800), (655, 816)]",137.85748671127166,"[1, 2, 9, 3, 8, 5, 6, 7, 4]","(0, 0.25)",THI008A,THI,A,English,Wed Aug 22 15:39:11 2018,Mouse
1,2,1,0,36,2,2,1,1720,680,1040,136,0,500,200,8000,"[(960, 540), (960, 540), (960, 540), (960, 540), (960, 540), (960, 540), (960, 540), (960, 540), (960, 540), (960, 540), (960, 540), (960, 540), (960, 540), (960, 540), (960, 540), (960, 540), (960, 540), (960, 540), (960, 540), (960, 540), (960, 540), (960, 540), (960, 540), (960, 540), (960, 540), (960, 540), (960, 540), (960, 540), (960, 540), (960, 540), (960, 540), (960, 540), (960, 540), (960, 540), (960, 540), (960, 540), (960, 540), (960, 540), (960, 540), (960, 540), (960, 540), (960, 540), (960, 540), (960, 540), (960, 540), (960, 540), (960, 540), (960, 540), (960, 540), (960, 540), (960, 540), (960, 540), (960, 540), (960, 540), (960, 540), (960, 540), (960, 540), (960, 540), (960, 540), (960, 540), (960, 540), (960, 540), (960, 540), (960, 540), (960, 540), (960, 540), (960, 540), (963, 541), (963, 542), (963, 543), (963, 543), (963, 545), (963, 545), (964, 545), (964, 545), (964, 545), (964, 545), (964, 545), (964, 545), (964, 545), (964, 545), (964, 545), (964, 545), (964, 545), (964, 545), (964, 545), (964, 545), (964, 545), (964, 545), (964, 545), (964, 545), (964, 545), (964, 545), (964, 545), (964, 545), (964, 545), (964, 545), (964, 545), (964, 545), (964, 545), (964, 545), (964, 545), (964, 545), (964, 545), (964, 545), (964, 545), (964, 545), (964, 545), (964, 545), (964, 545), (964, 545), (964, 545), (964, 545), (964, 545), (964, 545), (964, 545), (964, 545), (964, 545), (964, 545), (964, 545), (964, 545), (964, 545), (964, 545), (964, 545), (964, 545), (964, 545), (964, 545), (964, 545), (964, 545), (964, 545), (964, 545), (964, 545), (964, 545), (964, 545), (964, 545), (966, 547), (966, 548), (966, 548), (968, 551), (969, 552), (970, 554), (973, 556), (974, 557), (978, 562), (982, 566), (987, 571), (992, 577), (1006, 591), (1011, 599), (1017, 605), (1023, 614), (1035, 630), (1042, 638), (1046, 647), (1050, 654), (1062, 673), (1068, 684), (1077, 698), (1088, 710), (1108, 745), (1114, 763), (1124, 789), (1135, 810), (1145, 839), (1148, 850), (1150, 860), (1153, 868), (1154, 878), (1155, 881), (1155, 883), (1155, 885), (1157, 890)]",60.62670440428379,"[1, 2, 9, 3, 8, 5, 6, 7, 4]","(0, 0.25)",THI008A,THI,A,English,Wed Aug 22 15:39:11 2018,Mouse
1,2,1,0,37,5,7,0,-3719,3489,230,135,0,500,200,8000,"[(960, 540), (960, 540), (960, 540), (960, 540), (960, 540), (960, 540), (960, 540), (960, 540), (960, 540), (960, 540), (960, 540), (960, 540), (960, 540), (960, 540), (960, 540), (960, 540), (960, 540), (960, 540), (960, 540), (960, 540), (960, 540), (960, 540), (960, 540), (960, 540), (960, 540), (960, 540), (960, 540), (960, 540), (960, 540), (960, 540), (960, 540), (960, 540), (960, 540), (960, 540), (960, 540), (960, 540), (960, 540), (960, 540), (960, 540), (960, 540), (960, 540), (960, 540), (960, 540), (960, 540), (960, 540), (960, 540), (960, 540), (960, 540), (960, 540), (960, 540), (960, 540), (960, 540), (960, 540), (960, 540), (960, 540), (960, 540), (960, 540), (960, 540), (960, 540), (960, 540), (960, 540), (960, 540), (960, 540), (960, 540), (960, 540), (960, 540), (960, 540), (960, 540), (960, 540), (960, 540), (960, 540), (960, 540), (960, 540), (960, 540), (960, 540), (960, 540), (960, 540), (960, 540), (960, 540), (960, 540), (960, 540), (960, 540), (960, 540), (960, 540), (960, 540), (960, 540), (960, 540), (960, 540), (960, 540), (960, 540), (960, 540), (960, 540), (960, 540), (960, 540), (960, 540), (960, 540), (960, 540), (960, 540), (960, 540), (960, 540), (960, 540), (960, 540), (960, 540), (960, 540), (960, 540), (960, 540), (960, 540), (960, 540), (960, 540), (960, 540), (960, 540), (960, 540), (960, 540), (960, 540), (960, 540), (960, 540), (960, 540), (960, 540), (960, 540), (960, 540), (960, 540), (960, 540), (960, 540), (960, 540), (960, 540), (960, 540), (960, 540), (960, 540), (960, 540), (960, 540), (960, 540), (960, 540), (960, 540), (960, 540), (960, 540), (960, 540), (960, 540), (960, 540), (960, 540), (960, 540), (960, 540), (960, 540), (960, 540), (960, 540), (960, 540), (960, 540), (960, 540), (960, 540), (960, 540), (960, 540), (960, 540), (960, 540), (960, 540), (960, 540), (960, 540), (960, 540), (960, 540), (960, 540), (960, 540), (960, 540), (960, 540), (960, 540), (960, 540), (960, 540), (960, 540), (960, 540), (960, 540), (960, 540), (960, 540), (960, 540), (960, 540), (960, 540), (960, 540), (960, 540), (960, 540), (960, 540), (960, 540), (960, 540), (960, 540), (960, 540), (960, 540), (960, 540), (960, 540), (960, 540), (960, 540), (960, 540), (960, 540), (960, 540), (960, 540), (960, 540), (960, 540), (960, 540), (960, 540), (960, 540), (960, 540), (960, 540), (960, 540), (960, 540), (960, 540), (960, 540), (960, 540), (960, 540), (960, 540), (960, 540), (960, 540), (960, 540), (960, 540), (960, 540), (960, 540), (960, 540), (960, 540), (960, 540), (960, 540), (960, 540), (960, 540), (960, 540), (960, 540), (960, 540), (960, 540), (960, 540), (960, 540), (960, 540), (960, 540), (960, 540), (960, 540), (960, 540), (960, 540), (960, 540), (960, 540), (960, 540), (960, 540), (960, 540), (960, 540), (960, 540), (960, 540), (960, 540), (960, 540), (960, 540), (960, 540), (960, 540), (960, 540), (960, 540), (960, 540), (960, 540), (960, 540), (960, 540), (960, 540), (960, 540), (960, 540), (960, 540), (960, 540), (960, 540), (960, 540), (960, 540), (960, 540), (960, 540), (960, 540), (960, 540), (960, 540), (960, 540), (960, 540), (960, 540), (960, 540), (960, 540), (960, 540), (960, 540), (960, 540), (960, 540), (960, 540), (960, 540), (960, 540), (960, 540), (960, 540), (960, 540), (960, 540), (960, 540), (960, 540), (960, 540), (960, 540), (960, 540), (960, 540), (960, 540), (960, 540), (960, 540), (960, 540), (960, 540), (960, 540), (960, 540), (960, 540), (960, 540), (960, 540), (960, 540), (960, 540), (960, 540), (960, 540), (960, 540), (960, 540), (960, 540), (960, 540), (960, 540), (960, 540), (960, 540), (960, 540), (960, 540), (960, 540), (960, 540), (960, 540), (960, 540), (960, 540), (960, 540), (960, 540), (960, 540), (960, 540), (960, 540), (960, 540), (960, 540), (960, 540), (960, 540), (960, 540), (960, 540), (960, 540), (960, 540), (960, 540), (960, 540), (960, 540), (960, 540), (960, 540), (960, 540), (960, 540), (960, 540), (960, 540), (960, 540), (960, 540), (960, 540), (960, 540), (960, 540), (960, 540), (960, 540), (960, 540), (960, 540), (960, 540), (960, 540), (960, 540), (960, 540), (960, 540), (960, 540), (960, 540), (960, 540), (960, 538), (960, 535), (960, 532), (960, 529), (960, 527), (961, 525), (962, 524), (964, 519), (966, 517), (969, 512), (974, 504), (984, 490), (990, 482), (995, 475), (1002, 466), (1016, 439), (1023, 424), (1036, 397), (1048, 366), (1083, 280), (1099, 246), (1112, 214), (1122, 186), (1143, 134)]",294.26294288464135,"[1, 2, 9, 3, 8, 5, 6, 7, 4]","(0, 0.25)",THI008A,THI,A,English,Wed Aug 22 15:39:11 2018,Mouse
1,2,1,0,38,5,9,0,-2591,1421,1170,136,0,500,200,8000,"[(960, 540), (960, 540), (960, 540), (960, 540), (960, 540), (960, 540), (960, 540), (960, 540), (960, 540), (960, 540), (960, 540), (960, 540), (960, 540), (960, 540), (960, 540), (960, 540), (960, 540), (960, 540), (960, 540), (960, 540), (960, 540), (960, 540), (960, 540), (960, 540), (960, 540), (960, 540), (960, 540), (960, 540), (960, 540), (960, 540), (960, 540), (960, 540), (960, 540), (960, 540), (960, 540), (960, 540), (960, 540), (960, 540), (960, 540), (960, 540), (960, 540), (960, 540), (960, 540), (960, 540), (960, 540), (960, 540), (960, 540), (960, 540), (960, 540), (960, 540), (960, 540), (960, 540), (960, 540), (960, 540), (960, 540), (960, 540), (960, 540), (960, 540), (960, 540), (960, 540), (960, 540), (960, 540), (960, 540), (960, 540), (960, 540), (960, 540), (960, 540), (960, 540), (960, 540), (960, 540), (960, 540), (960, 540), (960, 540), (960, 540), (960, 540), (960, 540), (960, 540), (960, 540), (960, 540), (960, 540), (960, 540), (960, 540), (960, 540), (960, 540), (960, 540), (960, 540), (960, 540), (960, 540), (960, 540), (960, 540), (960, 540), (960, 540), (960, 540), (960, 540), (960, 540), (960, 540), (960, 540), (960, 540), (960, 540), (960, 540), (960, 540), (960, 540), (960, 540), (960, 540), (960, 540), (960, 540), (960, 540), (960, 540), (960, 540), (960, 540), (960, 540), (960, 540), (960, 540), (960, 540), (960, 540), (960, 540), (960, 540), (960, 540), (960, 540), (960, 540), (960, 540), (960, 540), (960, 540), (960, 540), (960, 540), (960, 540), (960, 540), (960, 540), (960, 540), (960, 540), (960, 540), (960, 540), (960, 540), (960, 540), (960, 540), (960, 540), (960, 540), (960, 540), (960, 540), (960, 540), (960, 540), (959, 541), (959, 542), (959, 543), (958, 544), (958, 544), (958, 544), (958, 544), (956, 546), (955, 548), (952, 551), (948, 555), (945, 557), (942, 558), (936, 561), (936, 561), (935, 563), (935, 563), (934, 563), (934, 563), (934, 563), (934, 563), (934, 563), (934, 563), (934, 563), (934, 563), (934, 563), (934, 563), (934, 563), (934, 563), (934, 563), (934, 563), (934, 563), (934, 563), (934, 563), (934, 563), (934, 563), (934, 563), (934, 563), (934, 563), (934, 563), (934, 563), (934, 563), (934, 563), (934, 563), (934, 563), (934, 563), (934, 563), (934, 563), (934, 563), (934, 563), (934, 563), (934, 563), (934, 563), (934, 563), (934, 563), (934, 563), (934, 563), (934, 563), (934, 563), (934, 563), (934, 563), (934, 563), (934, 563), (934, 563), (934, 563), (934, 563), (934, 563), (934, 563), (934, 563), (934, 563), (934, 563), (934, 563), (934, 563), (934, 563), (934, 563), (933, 563), (933, 564), (932, 567), (931, 569), (930, 573), (930, 577), (929, 593), (929, 604), (929, 615), (928, 626), (928, 644), (928, 652), (928, 659), (928, 666), (929, 681), (929, 687), (929, 690), (929, 692), (928, 695), (928, 696), (928, 696), (928, 696), (928, 696), (928, 696), (928, 696), (928, 696), (928, 696), (928, 696), (928, 698), (928, 701), (921, 712), (919, 722), (915, 740), (913, 766), (906, 814), (903, 835), (898, 854), (894, 868), (891, 897), (888, 911), (887, 922), (886, 931), (885, 943)]",100.54237943276419,"[1, 2, 9, 3, 8, 5, 6, 7, 4]","(0, 0.25)",THI008A,THI,A,English,Wed Aug 22 15:39:11 2018,Mouse
1,2,1,0,39,2,2,1,579,279,300,137,0,500,200,8000,"[(960, 540), (960, 540), (960, 540), (960, 540), (960, 540), (960, 540), (960, 540), (960, 540), (960, 540), (960, 540), (960, 540), (960, 540), (960, 540), (960, 540), (960, 540), (960, 540), (960, 540), (960, 540), (960, 540), (960, 540), (960, 540), (960, 540), (960, 540), (960, 540), (960, 540), (960, 540), (960, 540), (960, 541), (962, 545), (962, 549), (964, 551), (965, 553), (965, 553), (966, 554), (966, 554), (966, 554), (966, 554), (966, 554), (966, 554), (966, 554), (966, 554), (966, 555), (966, 555), (966, 556), (966, 557), (968, 560), (968, 563), (969, 566), (972, 574), (979, 591), (987, 608), (1003, 645), (1024, 696), (1077, 799), (1103, 843), (1120, 875), (1131, 892), (1143, 911)]",63.74465272288084,"[1, 2, 9, 3, 8, 5, 6, 7, 4]","(0, 0.25)",THI008A,THI,A,English,Wed Aug 22 15:39:11 2018,Mouse
1,2,1,0,40,9,9,1,850,630,220,137,0,500,200,8000,"[(960, 540), (960, 540), (960, 540), (960, 540), (960, 540), (960, 540), (960, 540), (960, 540), (960, 540), (960, 540), (960, 540), (960, 540), (960, 540), (960, 540), (960, 540), (960, 540), (960, 540), (960, 540), (960, 540), (960, 540), (960, 540), (960, 540), (960, 540), (960, 540), (960, 540), (960, 540), (960, 540), (960, 540), (960, 540), (960, 540), (960, 540), (960, 540), (960, 540), (960, 540), (960, 540), (960, 540), (960, 540), (960, 540), (960, 540), (960, 540), (960, 540), (960, 540), (960, 540), (960, 540), (960, 540), (960, 540), (960, 540), (960, 540), (960, 540), (960, 540), (960, 540), (960, 540), (960, 540), (960, 540), (960, 540), (960, 540), (960, 540), (960, 540), (960, 540), (960, 540), (960, 540), (960, 540), (958, 547), (957, 554), (954, 559), (954, 568), (951, 593), (951, 608), (951, 626), (951, 649), (951, 707), (951, 749), (951, 777), (951, 796), (951, 825), (951, 836), (949, 847), (948, 858), (946, 876), (944, 886), (942, 897), (941, 906), (935, 926), (932, 936), (930, 943)]",94.2573419801064,"[1, 2, 9, 3, 8, 5, 6, 7, 4]","(0, 0.25)",THI008A,THI,A,English,Wed Aug 22 15:39:11 2018,Mouse
1,2,1,0,41,8,4,0,-1249,1099,150,136,0,500,200,8000,"[(960, 540), (960, 540), (960, 540), (960, 540), (960, 540), (960, 540), (960, 540), (960, 540), (960, 540), (960, 540), (960, 540), (960, 540), (960, 540), (960, 540), (960, 540), (960, 540), (960, 540), (960, 540), (960, 540), (960, 540), (960, 540), (960, 540), (960, 540), (960, 540), (960, 540), (960, 540), (960, 540), (960, 540), (960, 540), (960, 540), (960, 540), (960, 540), (960, 540), (960, 540), (960, 540), (960, 540), (960, 540), (960, 540), (960, 540), (960, 540), (960, 540), (960, 540), (960, 540), (960, 540), (960, 540), (960, 540), (960, 540), (960, 540), (960, 540), (960, 540), (960, 540), (960, 540), (960, 540), (960, 540), (960, 540), (960, 540), (960, 540), (960, 540), (960, 540), (960, 540), (960, 540), (960, 540), (960, 540), (960, 540), (960, 540), (960, 540), (960, 540), (960, 540), (960, 540), (960, 540), (960, 540), (960, 540), (960, 540), (960, 540), (960, 540), (960, 540), (960, 540), (960, 540), (960, 540), (960, 540), (960, 540), (960, 540), (960, 540), (960, 540), (960, 540), (960, 540), (960, 540), (960, 540), (960, 540), (960, 540), (960, 540), (960, 540), (960, 540), (960, 540), (960, 540), (960, 540), (960, 540), (960, 540), (960, 540), (960, 540), (960, 540), (960, 540), (960, 540), (960, 540), (960, 540), (960, 540), (960, 540), (960, 540), (960, 540), (966, 537), (972, 535), (980, 533), (990, 531), (1012, 524), (1025, 521), (1039, 516), (1055, 512), (1091, 498), (1114, 489), (1128, 479), (1148, 463), (1218, 414), (1260, 386), (1296, 362), (1327, 340)]",331.41142147847916,"[1, 2, 9, 3, 8, 5, 6, 7, 4]","(0, 0.25)",THI008A,THI,A,English,Wed Aug 22 15:39:11 2018,Mouse
1,2,1,0,42,7,7,1,1840,1520,320,137,0,500,200,8000,"[(960, 540), (960, 540), (960, 540), (960, 540), (960, 540), (960, 540), (960, 540), (960, 540), (960, 540), (960, 540), (960, 540), (960, 540), (960, 540), (960, 540), (960, 540), (960, 540), (960, 540), (960, 540), (960, 540), (960, 540), (960, 540), (960, 540), (960, 540), (960, 540), (960, 540), (960, 540), (960, 540), (960, 540), (960, 540), (960, 540), (960, 540), (960, 540), (960, 540), (960, 540), (960, 540), (960, 540), (960, 540), (960, 540), (960, 540), (960, 540), (960, 540), (960, 540), (960, 540), (960, 540), (960, 540), (960, 540), (960, 540), (960, 540), (960, 540), (960, 540), (960, 540), (960, 540), (960, 540), (960, 540), (960, 540), (960, 540), (960, 540), (960, 540), (960, 540), (960, 540), (960, 540), (960, 540), (960, 540), (960, 540), (960, 540), (960, 540), (960, 540), (960, 540), (960, 540), (960, 540), (960, 540), (960, 540), (960, 540), (960, 540), (960, 540), (960, 540), (960, 540), (960, 540), (960, 540), (960, 540), (960, 540), (960, 540), (960, 540), (960, 540), (960, 540), (960, 540), (960, 540), (960, 540), (960, 540), (960, 540), (960, 540), (960, 540), (960, 540), (960, 540), (960, 540), (960, 540), (960, 540), (960, 540), (960, 540), (960, 540), (960, 540), (960, 540), (960, 540), (960, 540), (960, 540), (960, 540), (960, 540), (960, 540), (960, 540), (960, 540), (960, 540), (960, 540), (960, 540), (960, 540), (960, 540), (960, 540), (960, 540), (960, 540), (960, 540), (960, 540), (960, 540), (960, 540), (960, 540), (960, 540), (960, 540), (960, 540), (960, 540), (960, 540), (960, 540), (960, 540), (960, 540), (960, 540), (960, 540), (960, 540), (960, 540), (960, 540), (960, 540), (960, 540), (960, 540), (960, 540), (960, 540), (960, 540), (960, 540), (960, 540), (960, 540), (960, 540), (960, 540), (960, 540), (960, 540), (960, 540), (960, 540), (963, 535), (975, 524), (986, 514), (997, 500), (1018, 475), (1028, 463), (1036, 454), (1043, 441), (1059, 417), (1065, 405), (1071, 390), (1077, 375), (1089, 340), (1092, 328), (1096, 317), (1102, 304), (1112, 284), (1114, 273), (1119, 264), (1122, 258), (1125, 248), (1128, 243), (1128, 241), (1129, 240), (1132, 236), (1134, 232), (1137, 228), (1140, 223), (1147, 212), (1150, 208), (1153, 202), (1155, 199), (1158, 190)]",299.49746120836835,"[1, 2, 9, 3, 8, 5, 6, 7, 4]","(0, 0.25)",THI008A,THI,A,English,Wed Aug 22 15:39:11 2018,Mouse
1,2,1,0,43,4,4,1,3850,2710,1140,137,0,500,200,8000,"[(960, 540), (960, 540), (960, 540), (960, 540), (960, 540), (960, 540), (960, 540), (960, 540), (960, 540), (960, 540), (960, 540), (960, 540), (960, 540), (960, 540), (960, 540), (960, 540), (960, 540), (960, 540), (960, 540), (960, 540), (960, 540), (960, 540), (960, 540), (960, 540), (960, 540), (960, 540), (960, 540), (960, 540), (960, 540), (960, 540), (960, 540), (960, 540), (960, 540), (960, 540), (960, 540), (960, 540), (960, 540), (960, 540), (960, 540), (960, 540), (960, 540), (960, 540), (960, 540), (960, 540), (960, 540), (960, 540), (960, 540), (960, 540), (960, 540), (960, 540), (960, 540), (960, 540), (960, 540), (960, 540), (960, 540), (960, 540), (960, 540), (960, 540), (960, 540), (960, 540), (960, 540), (960, 540), (960, 540), (960, 540), (960, 540), (960, 540), (960, 540), (960, 540), (960, 540), (960, 540), (960, 540), (960, 540), (960, 540), (960, 540), (960, 540), (960, 540), (960, 540), (960, 540), (960, 540), (960, 540), (960, 540), (960, 540), (960, 540), (960, 540), (960, 540), (960, 540), (960, 540), (960, 540), (960, 540), (960, 540), (960, 540), (960, 540), (960, 540), (960, 540), (960, 540), (960, 540), (960, 540), (960, 540), (960, 540), (960, 540), (960, 540), (960, 540), (960, 540), (960, 540), (960, 540), (960, 540), (960, 540), (960, 540), (960, 540), (960, 540), (960, 540), (960, 540), (960, 540), (960, 540), (960, 540), (960, 540), (960, 540), (960, 540), (960, 540), (960, 540), (960, 540), (960, 540), (960, 540), (960, 540), (960, 540), (960, 540), (960, 540), (960, 540), (960, 540), (960, 540), (960, 540), (960, 540), (960, 540), (960, 540), (960, 540), (960, 540), (960, 540), (960, 540), (960, 540), (960, 540), (960, 540), (960, 540), (960, 540), (960, 540), (960, 540), (960, 540), (960, 540), (960, 540), (960, 540), (960, 540), (960, 540), (960, 540), (960, 540), (960, 540), (960, 540), (960, 540), (960, 540), (960, 540), (960, 540), (960, 540), (960, 540), (960, 540), (960, 540), (960, 540), (960, 540), (960, 540), (960, 540), (960, 540), (960, 540), (960, 540), (960, 540), (960, 540), (960, 540), (960, 540), (960, 540), (960, 540), (960, 540), (960, 540), (960, 540), (960, 540), (960, 540), (960, 540), (960, 540), (960, 540), (960, 540), (960, 540), (960, 540), (960, 540), (960, 540), (960, 540), (960, 540), (960, 540), (960, 540), (960, 540), (960, 540), (960, 540), (960, 540), (960, 540), (960, 540), (960, 540), (960, 540), (960, 540), (960, 540), (960, 540), (960, 540), (960, 540), (960, 540), (960, 540), (960, 540), (960, 540), (960, 540), (960, 540), (960, 540), (960, 540), (960, 540), (960, 540), (960, 540), (960, 540), (960, 540), (960, 540), (960, 540), (960, 540), (960, 540), (960, 540), (960, 540), (960, 540), (960, 540), (960, 540), (960, 540), (960, 540), (960, 540), (960, 540), (960, 540), (960, 540), (960, 540), (960, 540), (960, 540), (960, 540), (960, 540), (960, 540), (960, 540), (960, 540), (960, 540), (960, 540), (960, 540), (960, 540), (960, 540), (960, 540), (960, 540), (960, 540), (960, 540), (960, 540), (960, 540), (960, 540), (960, 540), (960, 540), (960, 540), (960, 540), (960, 540), (960, 540), (960, 540), (960, 540), (960, 540), (960, 540), (960, 540), (960, 540), (960, 540), (960, 540), (960, 540), (960, 540), (958, 542), (958, 542), (958, 542), (958, 542), (958, 542), (958, 542), (958, 542), (958, 542), (958, 542), (958, 542), (958, 542), (958, 542), (958, 542), (958, 542), (958, 542), (958, 542), (958, 542), (958, 543), (958, 544), (957, 545), (957, 545), (957, 545), (957, 545), (957, 545), (957, 545), (957, 545), (957, 546), (957, 547), (957, 548), (956, 549), (956, 549), (955, 551), (955, 553), (955, 555), (954, 558), (953, 573), (953, 581), (951, 591), (948, 601), (943, 621), (942, 629), (941, 637), (938, 646), (937, 657), (937, 661), (936, 665), (936, 665), (936, 665), (936, 665), (936, 665), (936, 665), (936, 665), (936, 665), (936, 665), (936, 665), (936, 665), (936, 665), (936, 665), (936, 665), (936, 665), (935, 667), (935, 668), (935, 669), (935, 671), (934, 675), (933, 679), (933, 682), (932, 688), (931, 691), (931, 691), (931, 691), (931, 691), (931, 691), (931, 691), (931, 691), (931, 691), (931, 691), (931, 691), (931, 691), (931, 691), (931, 691), (931, 691), (931, 691), (931, 691), (931, 691), (931, 691), (931, 691), (931, 691), (931, 691), (931, 691), (931, 691), (931, 691), (931, 691), (931, 691), (931, 691), (931, 691), (931, 691), (931, 691), (931, 691), (931, 691), (931, 691), (931, 691), (931, 691), (931, 691), (938, 684), (946, 674), (959, 660), (1013, 620), (1047, 596), (1096, 565), (1147, 527), (1243, 468), (1281, 445), (1317, 424), (1344, 407)]",340.8962592241093,"[1, 2, 9, 3, 8, 5, 6, 7, 4]","(0, 0.25)",THI008A,THI,A,English,Wed Aug 22 15:39:11 2018,Mouse
1,2,1,0,44,7,7,1,2790,330,2460,136,0,500,200,8000,"[(960, 540), (960, 540), (960, 540), (960, 540), (960, 540), (960, 540), (960, 540), (960, 540), (960, 540), (960, 540), (960, 540), (960, 540), (960, 540), (960, 540), (960, 540), (960, 540), (960, 540), (960, 540), (960, 540), (960, 540), (960, 540), (960, 540), (960, 540), (960, 540), (960, 540), (960, 540), (960, 540), (960, 540), (960, 540), (960, 540), (960, 540), (960, 540), (958, 542), (958, 544), (958, 545), (958, 546), (958, 546), (958, 546), (958, 546), (958, 546), (958, 546), (958, 546), (958, 546), (958, 546), (958, 546), (958, 546), (958, 546), (958, 546), (958, 546), (958, 546), (958, 546), (958, 546), (958, 546), (958, 546), (958, 546), (958, 546), (958, 546), (958, 546), (958, 546), (958, 546), (958, 546), (958, 546), (958, 546), (958, 546), (958, 546), (958, 546), (958, 546), (958, 546), (958, 546), (958, 546), (958, 546), (958, 546), (958, 546), (958, 546), (958, 546), (958, 546), (958, 546), (958, 546), (958, 546), (958, 546), (958, 546), (958, 546), (958, 546), (958, 546), (958, 546), (958, 546), (958, 546), (958, 546), (958, 546), (958, 546), (958, 546), (958, 546), (958, 546), (958, 546), (958, 546), (958, 546), (958, 546), (958, 546), (958, 546), (958, 546), (958, 546), (958, 546), (958, 546), (958, 546), (958, 546), (958, 546), (958, 546), (958, 546), (958, 546), (958, 546), (958, 546), (958, 546), (958, 546), (958, 546), (958, 546), (958, 546), (958, 546), (958, 546), (958, 546), (958, 546), (958, 546), (958, 546), (958, 546), (958, 546), (958, 546), (958, 546), (958, 546), (958, 546), (958, 546), (958, 546), (958, 546), (958, 546), (958, 546), (958, 546), (958, 546), (958, 546), (958, 546), (958, 546), (958, 546), (958, 546), (958, 546), (958, 546), (958, 546), (958, 546), (958, 546), (958, 546), (958, 546), (958, 546), (958, 546), (958, 546), (958, 546), (958, 546), (958, 546), (958, 546), (958, 546), (958, 546), (958, 546), (958, 546), (958, 546), (958, 546), (958, 546), (958, 546), (958, 546), (958, 546), (958, 546), (958, 546), (958, 546), (958, 546), (958, 546), (958, 546), (958, 546), (958, 546), (958, 546), (958, 546), (958, 546), (958, 546), (958, 546), (958, 546), (958, 546), (958, 546), (958, 546), (958, 546), (958, 546), (958, 546), (958, 546), (958, 546), (958, 546), (958, 546), (958, 546), (958, 546), (958, 546), (958, 546), (958, 546), (958, 546), (958, 546), (958, 546), (958, 546), (958, 546), (958, 546), (958, 546), (958, 546), (958, 546), (958, 546), (958, 546), (958, 546), (958, 546), (958, 546), (958, 546), (958, 546), (958, 546), (958, 546), (958, 546), (958, 546), (958, 546), (958, 546), (958, 546), (958, 546), (958, 546), (958, 546), (958, 546), (958, 546), (958, 546), (958, 546), (958, 546), (958, 546), (958, 546), (958, 546), (958, 546), (958, 546), (958, 546), (958, 546), (958, 546), (958, 546), (958, 546), (958, 546), (958, 546), (958, 546), (958, 546), (958, 546), (958, 546), (958, 546), (958, 546), (958, 546), (958, 546), (958, 546), (958, 546), (958, 546), (958, 546), (958, 546), (958, 546), (958, 546), (958, 546), (958, 546), (958, 546), (958, 546), (958, 546), (958, 546), (958, 546), (958, 546), (958, 546), (958, 546), (958, 546), (958, 546), (958, 546), (958, 546), (959, 543), (964, 536), (982, 512), (994, 496), (1005, 476), (1021, 449), (1065, 370), (1090, 331), (1112, 298), (1125, 274), (1148, 231), (1155, 213), (1162, 196), (1167, 183)]",300.1065270411584,"[1, 2, 9, 3, 8, 5, 6, 7, 4]","(0, 0.25)",THI008A,THI,A,English,Wed Aug 22 15:39:11 2018,Mouse
