NativeLangNumber,LanuageNumber,SessionNumber,Block,TrialNum,ConditionNumber,Response,Accuracy,RT,MovementOnsetTime,TimeInMotion,SignalContrast,SignalContrastNumber,StimDisplayTime,MaskTime,MaxResponseTime,MousePositionXY,MouseAngle,WheelOrder,NoiseMuSigma,ParticipantID,LanuageTested,SessionTested,NativeLanuage,Date,ResponseDevice
1,2,2,0,1,2,2,1,2493,484,2009,153,0,500,200,8000,"[(960, 540), (960, 540), (960, 540), (960, 540), (960, 540), (960, 540), (960, 540), (960, 540), (960, 540), (960, 540), (960, 540), (960, 540), (960, 540), (960, 540), (960, 540), (960, 540), (960, 540), (960, 540), (960, 540), (960, 540), (960, 540), (960, 540), (960, 540), (960, 540), (960, 540), (960, 540), (960, 540), (960, 540), (960, 540), (960, 540), (960, 540), (960, 540), (960, 540), (960, 540), (960, 540), (960, 540), (960, 540), (960, 540), (960, 540), (960, 540), (960, 540), (960, 540), (960, 540), (960, 540), (960, 540), (960, 540), (960, 540), (960, 540), (957, 540), (943, 540), (936, 540), (929, 540), (925, 541), (918, 542), (918, 542), (918, 542), (917, 543), (917, 543), (917, 543), (917, 543), (917, 543), (917, 543), (918, 544), (918, 544), (918, 544), (918, 544), (918, 544), (918, 544), (918, 544), (918, 544), (918, 544), (918, 544), (918, 544), (918, 544), (918, 544), (918, 544), (918, 544), (918, 544), (918, 544), (918, 544), (918, 544), (918, 544), (918, 544), (918, 544), (918, 544), (918, 544), (918, 544), (918, 544), (918, 544), (918, 544), (918, 544), (918, 544), (918, 544), (918, 544), (918, 544), (918, 544), (918, 544), (918, 544), (918, 544), (918, 544), (918, 544), (918, 544), (918, 544), (918, 544), (918, 544), (918, 544), (918, 544), (918, 544), (918, 544), (918, 544), (918, 544), (918, 544), (918, 544), (918, 544), (918, 544), (918, 544), (918, 544), (918, 544), (918, 544), (918, 544), (918, 544), (918, 544), (918, 544), (918, 544), (918, 544), (918, 544), (918, 544), (918, 544), (918, 544), (918, 544), (918, 544), (918, 544), (918, 544), (918, 544), (918, 544), (918, 544), (918, 544), (918, 544), (918, 544), (918, 544), (918, 544), (918, 544), (918, 544), (918, 544), (918, 544), (918, 544), (918, 544), (918, 544), (918, 544), (918, 544), (918, 544), (918, 544), (918, 544), (918, 544), (918, 544), (918, 544), (918, 544), (918, 544), (918, 544), (918, 544), (918, 544), (918, 544), (918, 544), (918, 544), (918, 544), (918, 544), (918, 544), (918, 544), (918, 544), (918, 544), (918, 544), (918, 544), (918, 544), (918, 544), (918, 544), (918, 544), (918, 544), (918, 544), (918, 544), (918, 544), (918, 544), (918, 544), (918, 544), (918, 544), (918, 544), (918, 544), (918, 544), (918, 544), (918, 544), (918, 544), (918, 544), (918, 544), (918, 544), (918, 544), (918, 544), (918, 544), (918, 544), (918, 544), (918, 544), (918, 544), (918, 544), (918, 544), (918, 544), (918, 544), (918, 544), (918, 544), (918, 544), (918, 544), (918, 544), (918, 544), (918, 544), (918, 544), (918, 544), (918, 544), (918, 544), (918, 544), (918, 544), (918, 544), (918, 544), (918, 544), (918, 544), (918, 544), (918, 544), (918, 544), (918, 544), (918, 544), (918, 544), (918, 544), (918, 544), (918, 544), (918, 544), (918, 544), (918, 544), (918, 544), (918, 544), (918, 544), (919, 546), (916, 552), (913, 560), (905, 570), (897, 580), (875, 600), (863, 608), (845, 620), (820, 637), (761, 680), (730, 702), (691, 729), (661, 751), (598, 787)]",145.6934826843665,"[6, 7, 5, 2, 3, 9, 8, 4, 1]","(0, 0.25)",THI011B,THI,B,English,Fri Aug 31 09:58:19 2018,Mouse
1,2,2,0,2,7,7,1,1769,1629,140,153,0,500,200,8000,"[(960, 540), (960, 540), (960, 540), (960, 540), (960, 540), (960, 540), (960, 540), (960, 540), (960, 540), (960, 540), (960, 540), (960, 540), (960, 540), (960, 540), (960, 540), (960, 540), (960, 540), (960, 540), (960, 540), (960, 540), (960, 540), (960, 540), (960, 540), (960, 540), (960, 540), (960, 540), (960, 540), (960, 540), (960, 540), (960, 540), (960, 540), (960, 540), (960, 540), (960, 540), (960, 540), (960, 540), (960, 540), (960, 540), (960, 540), (960, 540), (960, 540), (960, 540), (960, 540), (960, 540), (960, 540), (960, 540), (960, 540), (960, 540), (960, 540), (960, 540), (960, 540), (960, 540), (960, 540), (960, 540), (960, 540), (960, 540), (960, 540), (960, 540), (960, 540), (960, 540), (960, 540), (960, 540), (960, 540), (960, 540), (960, 540), (960, 540), (960, 540), (960, 540), (960, 540), (960, 540), (960, 540), (960, 540), (960, 540), (960, 540), (960, 540), (960, 540), (960, 540), (960, 540), (960, 540), (960, 540), (960, 540), (960, 540), (960, 540), (960, 540), (960, 540), (960, 540), (960, 540), (960, 540), (960, 540), (960, 540), (960, 540), (960, 540), (960, 540), (960, 540), (960, 540), (960, 540), (960, 540), (960, 540), (960, 540), (960, 540), (960, 540), (960, 540), (960, 540), (960, 540), (960, 540), (960, 540), (960, 540), (960, 540), (960, 540), (960, 540), (960, 540), (960, 540), (960, 540), (960, 540), (960, 540), (960, 540), (960, 540), (960, 540), (960, 540), (960, 540), (960, 540), (960, 540), (960, 540), (960, 540), (960, 540), (960, 540), (960, 540), (960, 540), (960, 540), (960, 540), (960, 540), (960, 540), (960, 540), (960, 540), (960, 540), (960, 540), (960, 540), (960, 540), (960, 540), (960, 540), (960, 540), (960, 540), (960, 540), (960, 540), (960, 540), (960, 540), (960, 540), (960, 540), (960, 540), (960, 540), (960, 540), (960, 540), (960, 540), (960, 540), (960, 540), (960, 540), (960, 540), (960, 540), (960, 540), (960, 540), (960, 540), (960, 540), (960, 547), (961, 556), (962, 568), (966, 584), (978, 631), (990, 665), (1000, 693), (1013, 725), (1036, 780), (1045, 803), (1056, 827), (1069, 848), (1094, 887), (1107, 902), (1120, 920)]",67.16634582208245,"[6, 7, 5, 2, 3, 9, 8, 4, 1]","(0, 0.25)",THI011B,THI,B,English,Fri Aug 31 09:58:19 2018,Mouse
1,2,2,0,3,2,2,1,470,110,360,152,0,500,200,8000,"[(960, 540), (960, 540), (960, 540), (960, 540), (960, 540), (960, 540), (960, 540), (960, 540), (960, 540), (960, 540), (959, 540), (959, 540), (956, 541), (955, 541), (953, 542), (951, 543), (946, 547), (942, 550), (940, 553), (934, 558), (923, 569), (917, 574), (909, 581), (902, 586), (885, 601), (879, 607), (870, 615), (863, 624), (845, 639), (837, 647), (830, 654), (821, 660), (801, 675), (791, 681), (779, 685), (770, 691), (749, 703), (737, 711), (727, 719), (717, 726), (698, 743), (687, 752), (681, 760), (673, 769), (660, 785), (653, 792), (649, 797)]",140.43081129671077,"[6, 7, 5, 2, 3, 9, 8, 4, 1]","(0, 0.25)",THI011B,THI,B,English,Fri Aug 31 09:58:19 2018,Mouse
1,2,2,0,4,8,8,1,989,49,940,151,0,500,200,8000,"[(960, 540), (960, 540), (960, 540), (960, 540), (959, 540), (959, 540), (959, 540), (958, 540), (957, 540), (956, 540), (956, 540), (956, 540), (956, 540), (956, 540), (956, 540), (956, 540), (956, 540), (956, 540), (956, 540), (956, 540), (956, 540), (956, 540), (956, 540), (956, 540), (956, 540), (956, 540), (956, 540), (956, 540), (956, 540), (956, 540), (956, 540), (956, 540), (956, 540), (956, 540), (956, 540), (956, 540), (956, 540), (956, 540), (956, 540), (956, 540), (956, 540), (956, 540), (956, 540), (956, 540), (956, 540), (956, 540), (956, 540), (956, 540), (956, 540), (956, 540), (955, 540), (955, 540), (955, 540), (955, 540), (955, 540), (955, 540), (955, 540), (955, 540), (955, 540), (955, 540), (955, 540), (955, 540), (955, 540), (955, 540), (955, 540), (955, 540), (955, 540), (955, 540), (955, 540), (955, 540), (955, 540), (955, 540), (955, 540), (955, 540), (955, 540), (955, 540), (955, 540), (955, 540), (955, 540), (955, 540), (955, 540), (955, 540), (955, 540), (955, 540), (955, 540), (955, 540), (955, 531), (954, 521), (952, 510), (949, 497), (949, 464), (943, 437), (940, 410), (935, 381), (924, 306), (919, 271), (915, 239), (910, 204), (902, 140)]",261.7496127710945,"[6, 7, 5, 2, 3, 9, 8, 4, 1]","(0, 0.25)",THI011B,THI,B,English,Fri Aug 31 09:58:19 2018,Mouse
1,2,2,0,5,3,3,1,1110,990,120,150,0,500,200,8000,"[(960, 540), (960, 540), (960, 540), (960, 540), (960, 540), (960, 540), (960, 540), (960, 540), (960, 540), (960, 540), (960, 540), (960, 540), (960, 540), (960, 540), (960, 540), (960, 540), (960, 540), (960, 540), (960, 540), (960, 540), (960, 540), (960, 540), (960, 540), (960, 540), (960, 540), (960, 540), (960, 540), (960, 540), (960, 540), (960, 540), (960, 540), (960, 540), (960, 540), (960, 540), (960, 540), (960, 540), (960, 540), (960, 540), (960, 540), (960, 540), (960, 540), (960, 540), (960, 540), (960, 540), (960, 540), (960, 540), (960, 540), (960, 540), (960, 540), (960, 540), (960, 540), (960, 540), (960, 540), (960, 540), (960, 540), (960, 540), (960, 540), (960, 540), (960, 540), (960, 540), (960, 540), (960, 540), (960, 540), (960, 540), (960, 540), (960, 540), (960, 540), (960, 540), (960, 540), (960, 540), (960, 540), (960, 540), (960, 540), (960, 540), (960, 540), (960, 540), (960, 540), (960, 540), (960, 540), (960, 540), (960, 540), (960, 540), (960, 540), (960, 540), (960, 540), (960, 540), (960, 540), (960, 540), (960, 540), (960, 540), (960, 540), (960, 540), (960, 540), (960, 540), (960, 540), (960, 540), (960, 540), (960, 540), (958, 540), (952, 540), (942, 540), (934, 540), (903, 536), (879, 531), (847, 528), (813, 523), (724, 510), (678, 504), (626, 496), (576, 492), (507, 485)]",186.9225586066836,"[6, 7, 5, 2, 3, 9, 8, 4, 1]","(0, 0.25)",THI011B,THI,B,English,Fri Aug 31 09:58:19 2018,Mouse
1,2,2,0,6,5,7,0,-1818,1678,140,149,0,500,200,8000,"[(960, 540), (960, 540), (960, 540), (960, 540), (960, 540), (960, 540), (960, 540), (960, 540), (960, 540), (960, 540), (960, 540), (960, 540), (960, 540), (960, 540), (960, 540), (960, 540), (960, 540), (960, 540), (960, 540), (960, 540), (960, 540), (960, 540), (960, 540), (960, 540), (960, 540), (960, 540), (960, 540), (960, 540), (960, 540), (960, 540), (960, 540), (960, 540), (960, 540), (960, 540), (960, 540), (960, 540), (960, 540), (960, 540), (960, 540), (960, 540), (960, 540), (960, 540), (960, 540), (960, 540), (960, 540), (960, 540), (960, 540), (960, 540), (960, 540), (960, 540), (960, 540), (960, 540), (960, 540), (960, 540), (960, 540), (960, 540), (960, 540), (960, 540), (960, 540), (960, 540), (960, 540), (960, 540), (960, 540), (960, 540), (960, 540), (960, 540), (960, 540), (960, 540), (960, 540), (960, 540), (960, 540), (960, 540), (960, 540), (960, 540), (960, 540), (960, 540), (960, 540), (960, 540), (960, 540), (960, 540), (960, 540), (960, 540), (960, 540), (960, 540), (960, 540), (960, 540), (960, 540), (960, 540), (960, 540), (960, 540), (960, 540), (960, 540), (960, 540), (960, 540), (960, 540), (960, 540), (960, 540), (960, 540), (960, 540), (960, 540), (960, 540), (960, 540), (960, 540), (960, 540), (960, 540), (960, 540), (960, 540), (960, 540), (960, 540), (960, 540), (960, 540), (960, 540), (960, 540), (960, 540), (960, 540), (960, 540), (960, 540), (960, 540), (960, 540), (960, 540), (960, 540), (960, 540), (960, 540), (960, 540), (960, 540), (960, 540), (960, 540), (960, 540), (960, 540), (960, 540), (960, 540), (960, 540), (960, 540), (960, 540), (960, 540), (960, 540), (960, 540), (960, 540), (960, 540), (960, 540), (960, 540), (960, 540), (960, 540), (960, 540), (960, 540), (960, 540), (960, 540), (960, 540), (960, 540), (960, 540), (960, 540), (960, 540), (960, 540), (960, 540), (960, 540), (960, 540), (960, 540), (960, 540), (960, 540), (960, 540), (960, 540), (960, 540), (960, 540), (960, 540), (960, 540), (960, 540), (960, 540), (960, 541), (960, 545), (960, 552), (963, 567), (967, 582), (973, 593), (981, 610), (1004, 655), (1021, 680), (1039, 713), (1056, 740), (1100, 805), (1119, 830), (1137, 863), (1155, 893)]",61.083391249494646,"[6, 7, 5, 2, 3, 9, 8, 4, 1]","(0, 0.25)",THI011B,THI,B,English,Fri Aug 31 09:58:19 2018,Mouse
1,2,2,0,7,3,3,1,640,510,130,150,0,500,200,8000,"[(960, 540), (960, 540), (960, 540), (960, 540), (960, 540), (960, 540), (960, 540), (960, 540), (960, 540), (960, 540), (960, 540), (960, 540), (960, 540), (960, 540), (960, 540), (960, 540), (960, 540), (960, 540), (960, 540), (960, 540), (960, 540), (960, 540), (960, 540), (960, 540), (960, 540), (960, 540), (960, 540), (960, 540), (960, 540), (960, 540), (960, 540), (960, 540), (960, 540), (960, 540), (960, 540), (960, 540), (960, 540), (960, 540), (960, 540), (960, 540), (960, 540), (960, 540), (960, 540), (960, 540), (960, 540), (960, 540), (960, 540), (960, 540), (960, 540), (960, 540), (958, 540), (942, 537), (930, 537), (913, 537), (897, 537), (861, 537), (838, 537), (807, 537), (766, 537), (696, 537), (654, 537), (610, 537), (574, 537), (496, 537)]",180.3704416885104,"[6, 7, 5, 2, 3, 9, 8, 4, 1]","(0, 0.25)",THI011B,THI,B,English,Fri Aug 31 09:58:19 2018,Mouse
1,2,2,0,8,6,6,1,509,419,90,150,0,500,200,8000,"[(960, 540), (960, 540), (960, 540), (960, 540), (960, 540), (960, 540), (960, 540), (960, 540), (960, 540), (960, 540), (960, 540), (960, 540), (960, 540), (960, 540), (960, 540), (960, 540), (960, 540), (960, 540), (960, 540), (960, 540), (960, 540), (960, 540), (960, 540), (960, 540), (960, 540), (960, 540), (960, 540), (960, 540), (960, 540), (960, 540), (960, 540), (960, 540), (960, 540), (960, 540), (960, 540), (960, 540), (960, 540), (960, 540), (960, 540), (960, 540), (960, 540), (963, 540), (983, 543), (997, 547), (1017, 554), (1046, 564), (1118, 588), (1165, 600), (1207, 611), (1257, 627), (1350, 651)]",15.887168502763954,"[6, 7, 5, 2, 3, 9, 8, 4, 1]","(0, 0.25)",THI011B,THI,B,English,Fri Aug 31 09:58:19 2018,Mouse
1,2,2,0,9,8,8,1,831,701,130,149,0,500,200,8000,"[(960, 540), (960, 540), (960, 540), (960, 540), (960, 540), (960, 540), (960, 540), (960, 540), (960, 540), (960, 540), (960, 540), (960, 540), (960, 540), (960, 540), (960, 540), (960, 540), (960, 540), (960, 540), (960, 540), (960, 540), (960, 540), (960, 540), (960, 540), (960, 540), (960, 540), (960, 540), (960, 540), (960, 540), (960, 540), (960, 540), (960, 540), (960, 540), (960, 540), (960, 540), (960, 540), (960, 540), (960, 540), (960, 540), (960, 540), (960, 540), (960, 540), (960, 540), (960, 540), (960, 540), (960, 540), (960, 540), (960, 540), (960, 540), (960, 540), (960, 540), (960, 540), (960, 540), (960, 540), (960, 540), (960, 540), (960, 540), (960, 540), (960, 540), (960, 540), (960, 540), (960, 540), (960, 540), (960, 540), (960, 540), (960, 540), (960, 540), (960, 540), (960, 540), (960, 540), (960, 540), (960, 536), (956, 519), (952, 506), (947, 490), (937, 469), (927, 437), (919, 412), (911, 387), (902, 351), (880, 281), (875, 243), (868, 205), (863, 176), (859, 119)]",256.50941412548923,"[6, 7, 5, 2, 3, 9, 8, 4, 1]","(0, 0.25)",THI011B,THI,B,English,Fri Aug 31 09:58:19 2018,Mouse
1,2,2,0,10,4,4,1,3211,3111,100,148,0,500,200,8000,"[(960, 540), (960, 540), (960, 540), (960, 540), (960, 540), (960, 540), (960, 540), (960, 540), (960, 540), (960, 540), (960, 540), (960, 540), (960, 540), (960, 540), (960, 540), (960, 540), (960, 540), (960, 540), (960, 540), (960, 540), (960, 540), (960, 540), (960, 540), (960, 540), (960, 540), (960, 540), (960, 540), (960, 540), (960, 540), (960, 540), (960, 540), (960, 540), (960, 540), (960, 540), (960, 540), (960, 540), (960, 540), (960, 540), (960, 540), (960, 540), (960, 540), (960, 540), (960, 540), (960, 540), (960, 540), (960, 540), (960, 540), (960, 540), (960, 540), (960, 540), (960, 540), (960, 540), (960, 540), (960, 540), (960, 540), (960, 540), (960, 540), (960, 540), (960, 540), (960, 540), (960, 540), (960, 540), (960, 540), (960, 540), (960, 540), (960, 540), (960, 540), (960, 540), (960, 540), (960, 540), (960, 540), (960, 540), (960, 540), (960, 540), (960, 540), (960, 540), (960, 540), (960, 540), (960, 540), (960, 540), (960, 540), (960, 540), (960, 540), (960, 540), (960, 540), (960, 540), (960, 540), (960, 540), (960, 540), (960, 540), (960, 540), (960, 540), (960, 540), (960, 540), (960, 540), (960, 540), (960, 540), (960, 540), (960, 540), (960, 540), (960, 540), (960, 540), (960, 540), (960, 540), (960, 540), (960, 540), (960, 540), (960, 540), (960, 540), (960, 540), (960, 540), (960, 540), (960, 540), (960, 540), (960, 540), (960, 540), (960, 540), (960, 540), (960, 540), (960, 540), (960, 540), (960, 540), (960, 540), (960, 540), (960, 540), (960, 540), (960, 540), (960, 540), (960, 540), (960, 540), (960, 540), (960, 540), (960, 540), (960, 540), (960, 540), (960, 540), (960, 540), (960, 540), (960, 540), (960, 540), (960, 540), (960, 540), (960, 540), (960, 540), (960, 540), (960, 540), (960, 540), (960, 540), (960, 540), (960, 540), (960, 540), (960, 540), (960, 540), (960, 540), (960, 540), (960, 540), (960, 540), (960, 540), (960, 540), (960, 540), (960, 540), (960, 540), (960, 540), (960, 540), (960, 540), (960, 540), (960, 540), (960, 540), (960, 540), (960, 540), (960, 540), (960, 540), (960, 540), (960, 540), (960, 540), (960, 540), (960, 540), (960, 540), (960, 540), (960, 540), (960, 540), (960, 540), (960, 540), (960, 540), (960, 540), (960, 540), (960, 540), (960, 540), (960, 540), (960, 540), (960, 540), (960, 540), (960, 540), (960, 540), (960, 540), (960, 540), (960, 540), (960, 540), (960, 540), (960, 540), (960, 540), (960, 540), (960, 540), (960, 540), (960, 540), (960, 540), (960, 540), (960, 540), (960, 540), (960, 540), (960, 540), (960, 540), (960, 540), (960, 540), (960, 540), (960, 540), (960, 540), (960, 540), (960, 540), (960, 540), (960, 540), (960, 540), (960, 540), (960, 540), (960, 540), (960, 540), (960, 540), (960, 540), (960, 540), (960, 540), (960, 540), (960, 540), (960, 540), (960, 540), (960, 540), (960, 540), (960, 540), (960, 540), (960, 540), (960, 540), (960, 540), (960, 540), (960, 540), (960, 540), (960, 540), (960, 540), (960, 540), (960, 540), (960, 540), (960, 540), (960, 540), (960, 540), (960, 540), (960, 540), (960, 540), (960, 540), (960, 540), (960, 540), (960, 540), (960, 540), (960, 540), (960, 540), (960, 540), (960, 540), (960, 540), (960, 540), (960, 540), (960, 540), (960, 540), (960, 540), (960, 540), (960, 540), (960, 540), (960, 540), (960, 540), (960, 540), (960, 540), (960, 540), (960, 540), (960, 540), (960, 540), (960, 540), (960, 540), (960, 540), (960, 540), (960, 540), (960, 540), (960, 540), (960, 540), (960, 540), (960, 540), (960, 540), (960, 540), (960, 540), (960, 540), (960, 540), (960, 540), (960, 540), (960, 540), (960, 540), (960, 540), (960, 540), (960, 540), (960, 540), (960, 540), (960, 540), (960, 540), (960, 540), (960, 540), (960, 540), (960, 539), (965, 530), (983, 504), (999, 484), (1011, 469), (1025, 450), (1059, 380), (1081, 349), (1104, 320), (1133, 286), (1191, 212)]",305.1558222667274,"[6, 7, 5, 2, 3, 9, 8, 4, 1]","(0, 0.25)",THI011B,THI,B,English,Fri Aug 31 09:58:19 2018,Mouse
1,2,2,0,11,8,8,1,469,349,120,147,0,500,200,8000,"[(960, 540), (960, 540), (960, 540), (960, 540), (960, 540), (960, 540), (960, 540), (960, 540), (960, 540), (960, 540), (960, 540), (960, 540), (960, 540), (960, 540), (960, 540), (960, 540), (960, 540), (960, 540), (960, 540), (960, 540), (960, 540), (960, 540), (960, 540), (960, 540), (960, 540), (960, 540), (960, 540), (960, 540), (960, 540), (960, 540), (960, 540), (960, 540), (960, 540), (960, 540), (960, 533), (960, 523), (962, 513), (965, 499), (968, 474), (971, 455), (971, 433), (971, 402), (971, 327), (970, 285), (962, 236), (957, 188), (943, 90)]",267.83652159285384,"[6, 7, 5, 2, 3, 9, 8, 4, 1]","(0, 0.25)",THI011B,THI,B,English,Fri Aug 31 09:58:19 2018,Mouse
1,2,2,0,12,9,9,1,1838,1628,210,146,0,500,200,8000,"[(960, 540), (960, 540), (960, 540), (960, 540), (960, 540), (960, 540), (960, 540), (960, 540), (960, 540), (960, 540), (960, 540), (960, 540), (960, 540), (960, 540), (960, 540), (960, 540), (960, 540), (960, 540), (960, 540), (960, 540), (960, 540), (960, 540), (960, 540), (960, 540), (960, 540), (960, 540), (960, 540), (960, 540), (960, 540), (960, 540), (960, 540), (960, 540), (960, 540), (960, 540), (960, 540), (960, 540), (960, 540), (960, 540), (960, 540), (960, 540), (960, 540), (960, 540), (960, 540), (960, 540), (960, 540), (960, 540), (960, 540), (960, 540), (960, 540), (960, 540), (960, 540), (960, 540), (960, 540), (960, 540), (960, 540), (960, 540), (960, 540), (960, 540), (960, 540), (960, 540), (960, 540), (960, 540), (960, 540), (960, 540), (960, 540), (960, 540), (960, 540), (960, 540), (960, 540), (960, 540), (960, 540), (960, 540), (960, 540), (960, 540), (960, 540), (960, 540), (960, 540), (960, 540), (960, 540), (960, 540), (960, 540), (960, 540), (960, 540), (960, 540), (960, 540), (960, 540), (960, 540), (960, 540), (960, 540), (960, 540), (960, 540), (960, 540), (960, 540), (960, 540), (960, 540), (960, 540), (960, 540), (960, 540), (960, 540), (960, 540), (960, 540), (960, 540), (960, 540), (960, 540), (960, 540), (960, 540), (960, 540), (960, 540), (960, 540), (960, 540), (960, 540), (960, 540), (960, 540), (960, 540), (960, 540), (960, 540), (960, 540), (960, 540), (960, 540), (960, 540), (960, 540), (960, 540), (960, 540), (960, 540), (960, 540), (960, 540), (960, 540), (960, 540), (960, 540), (960, 540), (960, 540), (960, 540), (960, 540), (960, 540), (960, 540), (960, 540), (960, 540), (960, 540), (960, 540), (960, 540), (960, 540), (960, 540), (960, 540), (960, 540), (960, 540), (960, 540), (960, 540), (960, 540), (960, 540), (960, 540), (960, 540), (960, 540), (960, 540), (960, 540), (960, 540), (960, 540), (960, 540), (960, 540), (960, 540), (960, 540), (960, 540), (960, 540), (960, 541), (959, 541), (956, 541), (950, 537), (934, 521), (924, 513), (913, 505), (900, 494), (880, 476), (870, 468), (859, 459), (847, 448), (818, 426), (801, 413), (789, 405), (773, 393), (749, 367), (736, 350), (720, 330), (704, 307), (682, 273), (672, 255)]",224.70002483769608,"[6, 7, 5, 2, 3, 9, 8, 4, 1]","(0, 0.25)",THI011B,THI,B,English,Fri Aug 31 09:58:19 2018,Mouse
1,2,2,0,13,7,7,1,3441,2191,1250,145,0,500,200,8000,"[(960, 540), (960, 540), (960, 540), (960, 540), (960, 540), (960, 540), (960, 540), (960, 540), (960, 540), (960, 540), (960, 540), (960, 540), (960, 540), (960, 540), (960, 540), (960, 540), (960, 540), (960, 540), (960, 540), (960, 540), (960, 540), (960, 540), (960, 540), (960, 540), (960, 540), (960, 540), (960, 540), (960, 540), (960, 540), (960, 540), (960, 540), (960, 540), (960, 540), (960, 540), (960, 540), (960, 540), (960, 540), (960, 540), (960, 540), (960, 540), (960, 540), (960, 540), (960, 540), (960, 540), (960, 540), (960, 540), (960, 540), (960, 540), (960, 540), (960, 540), (960, 540), (960, 540), (960, 540), (960, 540), (960, 540), (960, 540), (960, 540), (960, 540), (960, 540), (960, 540), (960, 540), (960, 540), (960, 540), (960, 540), (960, 540), (960, 540), (960, 540), (960, 540), (960, 540), (960, 540), (960, 540), (960, 540), (960, 540), (960, 540), (960, 540), (960, 540), (960, 540), (960, 540), (960, 540), (960, 540), (960, 540), (960, 540), (960, 540), (960, 540), (960, 540), (960, 540), (960, 540), (960, 540), (960, 540), (960, 540), (960, 540), (960, 540), (960, 540), (960, 540), (960, 540), (960, 540), (960, 540), (960, 540), (960, 540), (960, 540), (960, 540), (960, 540), (960, 540), (960, 540), (960, 540), (960, 540), (960, 540), (960, 540), (960, 540), (960, 540), (960, 540), (960, 540), (960, 540), (960, 540), (960, 540), (960, 540), (960, 540), (960, 540), (960, 540), (960, 540), (960, 540), (960, 540), (960, 540), (960, 540), (960, 540), (960, 540), (960, 540), (960, 540), (960, 540), (960, 540), (960, 540), (960, 540), (960, 540), (960, 540), (960, 540), (960, 540), (960, 540), (960, 540), (960, 540), (960, 540), (960, 540), (960, 540), (960, 540), (960, 540), (960, 540), (960, 540), (960, 540), (960, 540), (960, 540), (960, 540), (960, 540), (960, 540), (960, 540), (960, 540), (960, 540), (960, 540), (960, 540), (960, 540), (960, 540), (960, 540), (960, 540), (960, 540), (960, 540), (960, 540), (960, 540), (960, 540), (960, 540), (960, 540), (960, 540), (960, 540), (960, 540), (960, 540), (960, 540), (960, 540), (960, 540), (960, 540), (960, 540), (960, 540), (960, 540), (960, 540), (960, 540), (960, 540), (960, 540), (960, 540), (960, 540), (960, 540), (960, 540), (960, 540), (960, 540), (960, 540), (960, 540), (960, 540), (960, 540), (960, 540), (960, 540), (960, 540), (960, 540), (960, 540), (960, 540), (960, 540), (960, 540), (960, 540), (960, 540), (960, 540), (960, 540), (960, 540), (960, 540), (960, 540), (960, 540), (960, 540), (960, 540), (960, 540), (960, 540), (960, 540), (960, 540), (960, 540), (960, 540), (960, 540), (960, 540), (960, 544), (957, 550), (953, 557), (942, 572), (933, 583), (921, 592), (903, 609), (862, 642), (841, 661), (820, 678), (808, 693), (788, 716), (780, 727), (771, 738), (763, 748), (750, 766), (746, 771), (739, 778), (735, 784), (727, 793), (725, 797), (722, 799), (722, 799), (721, 801), (721, 801), (721, 801), (721, 801), (721, 801), (721, 801), (721, 801), (721, 801), (722, 801), (722, 800), (723, 800), (724, 799), (726, 798), (727, 797), (727, 797), (729, 796), (730, 795), (730, 795), (731, 795), (732, 795), (733, 794), (734, 793), (735, 793), (738, 791), (739, 790), (741, 789), (741, 789), (743, 788), (743, 786), (745, 785), (745, 785), (745, 785), (745, 784), (745, 784), (745, 784), (745, 784), (745, 784), (745, 784), (745, 784), (745, 784), (745, 784), (745, 784), (745, 784), (745, 784), (745, 784), (745, 784), (745, 784), (745, 784), (746, 783), (746, 783), (747, 783), (747, 783), (748, 781), (748, 781), (750, 781), (751, 780), (752, 779), (754, 777), (754, 777), (756, 776), (761, 774), (763, 772), (767, 769), (770, 769), (778, 764), (785, 760), (789, 758), (793, 756), (801, 751), (806, 749), (810, 746), (815, 745), (822, 743), (825, 743), (828, 743), (829, 742), (831, 742), (832, 742), (832, 742), (832, 742), (832, 742), (832, 742), (833, 742), (834, 742), (837, 742), (837, 742), (837, 742), (838, 742), (840, 742), (841, 742), (844, 742), (847, 742), (858, 742), (863, 742), (872, 743), (886, 749), (930, 768), (965, 782), (1002, 799), (1039, 814), (1119, 850), (1154, 866), (1183, 880)]",56.73983816777098,"[6, 7, 5, 2, 3, 9, 8, 4, 1]","(0, 0.25)",THI011B,THI,B,English,Fri Aug 31 09:58:19 2018,Mouse
1,2,2,0,14,7,7,1,530,79,451,144,0,500,200,8000,"[(960, 540), (960, 540), (960, 540), (960, 540), (960, 540), (960, 540), (960, 540), (960, 541), (960, 542), (960, 543), (960, 544), (960, 544), (960, 544), (960, 545), (960, 545), (960, 546), (960, 547), (960, 547), (960, 548), (960, 549), (961, 550), (961, 553), (962, 556), (964, 559), (967, 566), (970, 572), (973, 582), (977, 589), (989, 612), (995, 622), (1005, 636), (1009, 644), (1021, 665), (1026, 672), (1031, 683), (1036, 691), (1043, 705), (1045, 714), (1048, 720), (1052, 729), (1060, 747), (1065, 760), (1070, 770), (1076, 781), (1089, 804), (1094, 814), (1101, 826), (1108, 839), (1123, 861), (1130, 868), (1138, 880), (1147, 890), (1163, 904)]",60.85192815428696,"[6, 7, 5, 2, 3, 9, 8, 4, 1]","(0, 0.25)",THI011B,THI,B,English,Fri Aug 31 09:58:19 2018,Mouse
1,2,2,0,15,1,1,1,499,179,320,143,0,500,200,8000,"[(960, 540), (960, 540), (960, 540), (960, 540), (960, 540), (960, 540), (960, 540), (960, 540), (960, 540), (960, 540), (960, 540), (960, 540), (960, 540), (960, 540), (960, 540), (960, 540), (960, 540), (960, 539), (960, 539), (960, 538), (960, 538), (960, 538), (960, 538), (960, 538), (960, 538), (960, 538), (960, 538), (960, 538), (960, 538), (960, 538), (960, 538), (960, 538), (960, 538), (960, 538), (964, 538), (968, 535), (974, 534), (980, 533), (996, 528), (1008, 522), (1023, 516), (1043, 509), (1099, 493), (1130, 484), (1170, 477), (1198, 469), (1260, 450), (1293, 441), (1326, 432), (1351, 424)]",343.4756836240103,"[6, 7, 5, 2, 3, 9, 8, 4, 1]","(0, 0.25)",THI011B,THI,B,English,Fri Aug 31 09:58:19 2018,Mouse
1,2,2,0,16,8,8,1,848,438,410,142,0,500,200,8000,"[(960, 540), (960, 540), (960, 540), (960, 540), (960, 540), (960, 540), (960, 540), (960, 540), (960, 540), (960, 540), (960, 540), (960, 540), (960, 540), (960, 540), (960, 540), (960, 540), (960, 540), (960, 540), (960, 540), (960, 540), (960, 540), (960, 540), (960, 540), (960, 540), (960, 540), (960, 540), (960, 540), (960, 540), (960, 540), (960, 540), (960, 540), (960, 540), (960, 540), (960, 540), (960, 540), (960, 540), (960, 540), (960, 540), (960, 540), (960, 540), (960, 540), (960, 540), (960, 540), (959, 540), (959, 540), (957, 540), (957, 540), (956, 537), (956, 534), (956, 533), (955, 531), (954, 525), (954, 523), (954, 521), (954, 519), (954, 514), (954, 511), (954, 508), (954, 507), (953, 500), (952, 495), (951, 491), (948, 485), (947, 471), (946, 460), (944, 450), (943, 444), (941, 428), (938, 416), (935, 404), (930, 390), (925, 366), (919, 348), (918, 334), (913, 318), (906, 287), (902, 274), (899, 255), (895, 238), (891, 211), (891, 199), (888, 185), (887, 170), (887, 147), (887, 135)]",259.7823237436099,"[6, 7, 5, 2, 3, 9, 8, 4, 1]","(0, 0.25)",THI011B,THI,B,English,Fri Aug 31 09:58:19 2018,Mouse
1,2,2,0,17,9,9,1,1109,899,210,141,0,500,200,8000,"[(960, 540), (960, 540), (960, 540), (960, 540), (960, 540), (960, 540), (960, 540), (960, 540), (960, 540), (960, 540), (960, 540), (960, 540), (960, 540), (960, 540), (960, 540), (960, 540), (960, 540), (960, 540), (960, 540), (960, 540), (960, 540), (960, 540), (960, 540), (960, 540), (960, 540), (960, 540), (960, 540), (960, 540), (960, 540), (960, 540), (960, 540), (960, 540), (960, 540), (960, 540), (960, 540), (960, 540), (960, 540), (960, 540), (960, 540), (960, 540), (960, 540), (960, 540), (960, 540), (960, 540), (960, 540), (960, 540), (960, 540), (960, 540), (960, 540), (960, 540), (960, 540), (960, 540), (960, 540), (960, 540), (960, 540), (960, 540), (960, 540), (960, 540), (960, 540), (960, 540), (960, 540), (960, 540), (960, 540), (960, 540), (960, 540), (960, 540), (960, 540), (960, 540), (960, 540), (960, 540), (960, 540), (960, 540), (960, 540), (960, 540), (960, 540), (960, 540), (960, 540), (960, 540), (960, 540), (960, 540), (960, 540), (960, 540), (960, 540), (960, 540), (960, 540), (960, 540), (960, 540), (960, 540), (960, 540), (959, 541), (957, 541), (954, 541), (953, 541), (948, 539), (945, 539), (931, 529), (923, 524), (914, 517), (903, 508), (879, 487), (861, 469), (845, 455), (832, 442), (808, 407), (794, 388), (779, 368), (764, 343), (736, 305), (716, 284), (695, 263), (674, 244)]",225.98436670305472,"[6, 7, 5, 2, 3, 9, 8, 4, 1]","(0, 0.25)",THI011B,THI,B,English,Fri Aug 31 09:58:19 2018,Mouse
1,2,2,0,18,8,8,1,719,249,470,140,0,500,200,8000,"[(960, 540), (960, 540), (960, 540), (960, 540), (960, 540), (960, 540), (960, 540), (960, 540), (960, 540), (960, 540), (960, 540), (960, 540), (960, 540), (960, 540), (960, 540), (960, 540), (960, 540), (960, 540), (960, 540), (960, 540), (960, 540), (960, 540), (960, 540), (960, 540), (961, 540), (961, 540), (962, 540), (964, 539), (966, 538), (969, 536), (973, 532), (980, 520), (985, 511), (991, 501), (997, 491), (1008, 468), (1012, 457), (1017, 447), (1020, 436), (1025, 413), (1025, 404), (1025, 397), (1025, 389), (1017, 367), (1011, 360), (1006, 352), (1000, 347), (993, 339), (991, 336), (990, 336), (989, 334), (988, 333), (988, 332), (987, 332), (987, 330), (985, 325), (984, 322), (984, 318), (980, 313), (975, 302), (971, 295), (968, 290), (963, 282), (957, 267), (954, 257), (952, 246), (948, 234), (940, 209), (934, 197), (928, 180), (916, 161), (902, 134)]",261.86989764584405,"[6, 7, 5, 2, 3, 9, 8, 4, 1]","(0, 0.25)",THI011B,THI,B,English,Fri Aug 31 09:58:19 2018,Mouse
1,2,2,0,19,9,9,1,950,710,240,139,0,500,200,8000,"[(960, 540), (960, 540), (960, 540), (960, 540), (960, 540), (960, 540), (960, 540), (960, 540), (960, 540), (960, 540), (960, 540), (960, 540), (960, 540), (960, 540), (960, 540), (960, 540), (960, 540), (960, 540), (960, 540), (960, 540), (960, 540), (960, 540), (960, 540), (960, 540), (960, 540), (960, 540), (960, 540), (960, 540), (960, 540), (960, 540), (960, 540), (960, 540), (960, 540), (960, 540), (960, 540), (960, 540), (960, 540), (960, 540), (960, 540), (960, 540), (960, 540), (960, 540), (960, 540), (960, 540), (960, 540), (960, 540), (960, 540), (960, 540), (960, 540), (960, 540), (960, 540), (960, 540), (960, 540), (960, 540), (960, 540), (960, 540), (960, 540), (960, 540), (960, 540), (960, 540), (960, 540), (960, 540), (960, 540), (960, 540), (960, 540), (960, 540), (960, 540), (960, 540), (960, 540), (960, 540), (954, 535), (945, 526), (933, 515), (921, 505), (900, 487), (893, 478), (887, 469), (881, 458), (870, 440), (860, 427), (854, 415), (844, 402), (826, 376), (816, 364), (805, 352), (794, 337), (771, 314), (757, 304), (747, 295), (739, 287), (717, 272), (710, 267), (701, 261), (694, 257), (679, 250)]",225.9030110668105,"[6, 7, 5, 2, 3, 9, 8, 4, 1]","(0, 0.25)",THI011B,THI,B,English,Fri Aug 31 09:58:19 2018,Mouse
1,2,2,0,20,4,4,1,890,550,340,138,0,500,200,8000,"[(960, 540), (960, 540), (960, 540), (960, 540), (960, 540), (960, 540), (960, 540), (960, 540), (960, 540), (960, 540), (960, 540), (960, 540), (960, 540), (960, 540), (960, 540), (960, 540), (960, 540), (960, 540), (960, 540), (960, 540), (960, 540), (960, 540), (960, 540), (960, 540), (960, 540), (960, 540), (960, 540), (960, 540), (960, 540), (960, 540), (960, 540), (960, 540), (960, 540), (960, 540), (960, 540), (960, 540), (960, 540), (960, 540), (960, 540), (960, 540), (960, 540), (960, 540), (960, 540), (960, 540), (960, 540), (960, 540), (960, 540), (960, 540), (960, 540), (960, 540), (960, 540), (960, 540), (960, 540), (960, 540), (961, 541), (961, 541), (961, 541), (961, 541), (963, 540), (965, 537), (969, 532), (971, 529), (980, 519), (984, 514), (988, 507), (993, 498), (1001, 479), (1007, 469), (1013, 459), (1020, 446), (1029, 425), (1033, 412), (1039, 401), (1048, 386), (1061, 364), (1071, 351), (1078, 339), (1085, 329), (1099, 307), (1104, 297), (1110, 287), (1115, 277), (1124, 257), (1129, 247), (1135, 237), (1141, 227), (1151, 208), (1155, 198), (1158, 190)]",299.49746120836835,"[6, 7, 5, 2, 3, 9, 8, 4, 1]","(0, 0.25)",THI011B,THI,B,English,Fri Aug 31 09:58:19 2018,Mouse
1,2,2,0,21,5,9,0,-5538,5338,200,137,0,500,200,8000,"[(960, 540), (960, 540), (960, 540), (960, 540), (960, 540), (960, 540), (960, 540), (960, 540), (960, 540), (960, 540), (960, 540), (960, 540), (960, 540), (960, 540), (960, 540), (960, 540), (960, 540), (960, 540), (960, 540), (960, 540), (960, 540), (960, 540), (960, 540), (960, 540), (960, 540), (960, 540), (960, 540), (960, 540), (960, 540), (960, 540), (960, 540), (960, 540), (960, 540), (960, 540), (960, 540), (960, 540), (960, 540), (960, 540), (960, 540), (960, 540), (960, 540), (960, 540), (960, 540), (960, 540), (960, 540), (960, 540), (960, 540), (960, 540), (960, 540), (960, 540), (960, 540), (960, 540), (960, 540), (960, 540), (960, 540), (960, 540), (960, 540), (960, 540), (960, 540), (960, 540), (960, 540), (960, 540), (960, 540), (960, 540), (960, 540), (960, 540), (960, 540), (960, 540), (960, 540), (960, 540), (960, 540), (960, 540), (960, 540), (960, 540), (960, 540), (960, 540), (960, 540), (960, 540), (960, 540), (960, 540), (960, 540), (960, 540), (960, 540), (960, 540), (960, 540), (960, 540), (960, 540), (960, 540), (960, 540), (960, 540), (960, 540), (960, 540), (960, 540), (960, 540), (960, 540), (960, 540), (960, 540), (960, 540), (960, 540), (960, 540), (960, 540), (960, 540), (960, 540), (960, 540), (960, 540), (960, 540), (960, 540), (960, 540), (960, 540), (960, 540), (960, 540), (960, 540), (960, 540), (960, 540), (960, 540), (960, 540), (960, 540), (960, 540), (960, 540), (960, 540), (960, 540), (960, 540), (960, 540), (960, 540), (960, 540), (960, 540), (960, 540), (960, 540), (960, 540), (960, 540), (960, 540), (960, 540), (960, 540), (960, 540), (960, 540), (960, 540), (960, 540), (960, 540), (960, 540), (960, 540), (960, 540), (960, 540), (960, 540), (960, 540), (960, 540), (960, 540), (960, 540), (960, 540), (960, 540), (960, 540), (960, 540), (960, 540), (960, 540), (960, 540), (960, 540), (960, 540), (960, 540), (960, 540), (960, 540), (960, 540), (960, 540), (960, 540), (960, 540), (960, 540), (960, 540), (960, 540), (960, 540), (960, 540), (960, 540), (960, 540), (960, 540), (960, 540), (960, 540), (960, 540), (960, 540), (960, 540), (960, 540), (960, 540), (960, 540), (960, 540), (960, 540), (960, 540), (960, 540), (960, 540), (960, 540), (960, 540), (960, 540), (960, 540), (960, 540), (960, 540), (960, 540), (960, 540), (960, 540), (960, 540), (960, 540), (960, 540), (960, 540), (960, 540), (960, 540), (960, 540), (960, 540), (960, 540), (960, 540), (960, 540), (960, 540), (960, 540), (960, 540), (960, 540), (960, 540), (960, 540), (960, 540), (960, 540), (960, 540), (960, 540), (960, 540), (960, 540), (960, 540), (960, 540), (960, 540), (960, 540), (960, 540), (960, 540), (960, 540), (960, 540), (960, 540), (960, 540), (960, 540), (960, 540), (960, 540), (960, 540), (960, 540), (960, 540), (960, 540), (960, 540), (960, 540), (960, 540), (960, 540), (960, 540), (960, 540), (960, 540), (960, 540), (960, 540), (960, 540), (960, 540), (960, 540), (960, 540), (960, 540), (960, 540), (960, 540), (960, 540), (960, 540), (960, 540), (960, 540), (960, 540), (960, 540), (960, 540), (960, 540), (960, 540), (960, 540), (960, 540), (960, 540), (960, 540), (960, 540), (960, 540), (960, 540), (960, 540), (960, 540), (960, 540), (960, 540), (960, 540), (960, 540), (960, 540), (960, 540), (960, 540), (960, 540), (960, 540), (960, 540), (960, 540), (960, 540), (960, 540), (960, 540), (960, 540), (960, 540), (960, 540), (960, 540), (960, 540), (960, 540), (960, 540), (960, 540), (960, 540), (960, 540), (960, 540), (960, 540), (960, 540), (960, 540), (960, 540), (960, 540), (960, 540), (960, 540), (960, 540), (960, 540), (960, 540), (960, 540), (960, 540), (960, 540), (960, 540), (960, 540), (960, 540), (960, 540), (960, 540), (960, 540), (960, 540), (960, 540), (960, 540), (960, 540), (960, 540), (960, 540), (960, 540), (960, 540), (960, 540), (960, 540), (960, 540), (960, 540), (960, 540), (960, 540), (960, 540), (960, 540), (960, 540), (960, 540), (960, 540), (960, 540), (960, 540), (960, 540), (960, 540), (960, 540), (960, 540), (960, 540), (960, 540), (960, 540), (960, 540), (960, 540), (960, 540), (960, 540), (960, 540), (960, 540), (960, 540), (960, 540), (960, 540), (960, 540), (960, 540), (960, 540), (960, 540), (960, 540), (960, 540), (960, 540), (960, 540), (960, 540), (960, 540), (960, 540), (960, 540), (960, 540), (960, 540), (960, 540), (960, 540), (960, 540), (960, 540), (960, 540), (960, 540), (960, 540), (960, 540), (960, 540), (960, 540), (960, 540), (960, 540), (960, 540), (960, 540), (960, 540), (960, 540), (960, 540), (960, 540), (960, 540), (960, 540), (960, 540), (960, 540), (960, 540), (960, 540), (960, 540), (960, 540), (960, 540), (960, 540), (960, 540), (960, 540), (960, 540), (960, 540), (960, 540), (960, 540), (960, 540), (960, 540), (960, 540), (960, 540), (960, 540), (960, 540), (960, 540), (960, 540), (960, 540), (960, 540), (960, 540), (960, 540), (960, 540), (960, 540), (960, 540), (960, 540), (960, 540), (960, 540), (960, 540), (960, 540), (960, 540), (960, 540), (960, 540), (960, 540), (960, 540), (960, 540), (960, 540), (960, 540), (960, 540), (960, 540), (960, 540), (960, 540), (960, 540), (960, 540), (960, 540), (960, 540), (960, 540), (960, 540), (960, 540), (960, 540), (960, 540), (960, 540), (960, 540), (960, 540), (960, 540), (960, 540), (960, 540), (960, 540), (960, 540), (960, 540), (960, 540), (960, 540), (960, 540), (960, 540), (960, 540), (960, 540), (960, 540), (960, 540), (960, 540), (960, 540), (960, 540), (960, 540), (960, 540), (960, 540), (960, 540), (960, 540), (960, 540), (960, 540), (960, 540), (960, 540), (960, 540), (960, 540), (960, 540), (960, 540), (960, 540), (960, 540), (960, 540), (960, 540), (960, 540), (960, 540), (960, 540), (960, 540), (960, 540), (960, 540), (960, 540), (960, 540), (960, 540), (960, 540), (960, 540), (960, 540), (960, 540), (960, 540), (960, 540), (960, 540), (960, 540), (960, 540), (960, 540), (960, 540), (960, 540), (960, 540), (960, 540), (960, 540), (960, 540), (960, 540), (960, 540), (960, 540), (960, 540), (960, 540), (960, 540), (960, 540), (960, 540), (960, 540), (960, 540), (960, 540), (960, 540), (960, 540), (960, 540), (960, 540), (960, 540), (960, 540), (960, 540), (960, 540), (960, 540), (960, 540), (960, 540), (960, 540), (960, 540), (960, 540), (960, 540), (960, 540), (960, 540), (960, 540), (960, 540), (960, 540), (960, 540), (960, 540), (960, 540), (955, 538), (948, 533), (940, 527), (918, 509), (903, 497), (881, 482), (861, 467), (825, 435), (812, 422), (804, 412), (796, 401), (779, 373), (769, 361), (761, 351), (752, 341), (732, 321), (718, 310), (706, 300), (695, 292), (672, 279), (661, 274)]",221.657318451002,"[6, 7, 5, 2, 3, 9, 8, 4, 1]","(0, 0.25)",THI011B,THI,B,English,Fri Aug 31 09:58:19 2018,Mouse
1,2,2,0,22,5,4,0,-1370,1110,260,138,0,500,200,8000,"[(960, 540), (960, 540), (960, 540), (960, 540), (960, 540), (960, 540), (960, 540), (960, 540), (960, 540), (960, 540), (960, 540), (960, 540), (960, 540), (960, 540), (960, 540), (960, 540), (960, 540), (960, 540), (960, 540), (960, 540), (960, 540), (960, 540), (960, 540), (960, 540), (960, 540), (960, 540), (960, 540), (960, 540), (960, 540), (960, 540), (960, 540), (960, 540), (960, 540), (960, 540), (960, 540), (960, 540), (960, 540), (960, 540), (960, 540), (960, 540), (960, 540), (960, 540), (960, 540), (960, 540), (960, 540), (960, 540), (960, 540), (960, 540), (960, 540), (960, 540), (960, 540), (960, 540), (960, 540), (960, 540), (960, 540), (960, 540), (960, 540), (960, 540), (960, 540), (960, 540), (960, 540), (960, 540), (960, 540), (960, 540), (960, 540), (960, 540), (960, 540), (960, 540), (960, 540), (960, 540), (960, 540), (960, 540), (960, 540), (960, 540), (960, 540), (960, 540), (960, 540), (960, 540), (960, 540), (960, 540), (960, 540), (960, 540), (960, 540), (960, 540), (960, 540), (960, 540), (960, 540), (960, 540), (960, 540), (960, 540), (960, 540), (960, 540), (960, 540), (960, 540), (960, 540), (960, 540), (960, 540), (960, 540), (960, 540), (960, 540), (960, 540), (960, 540), (960, 540), (960, 540), (960, 540), (960, 540), (960, 540), (960, 540), (960, 540), (960, 540), (960, 541), (964, 540), (967, 537), (972, 532), (974, 526), (983, 515), (989, 507), (993, 500), (998, 492), (1015, 469), (1023, 457), (1033, 443), (1048, 426), (1075, 389), (1089, 371), (1103, 355), (1116, 341), (1135, 312), (1146, 295), (1153, 284), (1159, 268), (1167, 245), (1170, 235), (1173, 227), (1175, 217), (1176, 207), (1176, 203)]",302.65782283441405,"[6, 7, 5, 2, 3, 9, 8, 4, 1]","(0, 0.25)",THI011B,THI,B,English,Fri Aug 31 09:58:19 2018,Mouse
1,2,2,0,23,9,9,1,649,539,110,139,0,500,200,8000,"[(960, 540), (960, 540), (960, 540), (960, 540), (960, 540), (960, 540), (960, 540), (960, 540), (960, 540), (960, 540), (960, 540), (960, 540), (960, 540), (960, 540), (960, 540), (960, 540), (960, 540), (960, 540), (960, 540), (960, 540), (960, 540), (960, 540), (960, 540), (960, 540), (960, 540), (960, 540), (960, 540), (960, 540), (960, 540), (960, 540), (960, 540), (960, 540), (960, 540), (960, 540), (960, 540), (960, 540), (960, 540), (960, 540), (960, 540), (960, 540), (960, 540), (960, 540), (960, 540), (960, 540), (960, 540), (960, 540), (960, 540), (960, 540), (960, 540), (960, 540), (960, 540), (960, 540), (960, 540), (956, 540), (950, 538), (939, 532), (929, 525), (890, 498), (865, 481), (835, 463), (797, 440), (714, 389), (673, 359), (634, 334), (600, 305)]",213.1356095487189,"[6, 7, 5, 2, 3, 9, 8, 4, 1]","(0, 0.25)",THI011B,THI,B,English,Fri Aug 31 09:58:19 2018,Mouse
1,2,2,0,24,2,2,1,630,360,270,139,0,500,200,8000,"[(960, 540), (960, 540), (960, 540), (960, 540), (960, 540), (960, 540), (960, 540), (960, 540), (960, 540), (960, 540), (960, 540), (960, 540), (960, 540), (960, 540), (960, 540), (960, 540), (960, 540), (960, 540), (960, 540), (960, 540), (960, 540), (960, 540), (960, 540), (960, 540), (960, 540), (960, 540), (960, 540), (960, 540), (960, 540), (960, 540), (960, 540), (960, 540), (960, 540), (960, 540), (960, 540), (960, 542), (960, 543), (959, 545), (958, 547), (954, 556), (952, 560), (948, 568), (943, 575), (931, 593), (921, 607), (913, 617), (903, 629), (879, 653), (873, 659), (862, 667), (851, 675), (827, 689), (813, 699), (795, 709), (778, 720), (739, 738), (720, 748), (700, 755), (684, 763), (663, 774), (654, 779), (648, 784), (643, 786)]",142.18763466223658,"[6, 7, 5, 2, 3, 9, 8, 4, 1]","(0, 0.25)",THI011B,THI,B,English,Fri Aug 31 09:58:19 2018,Mouse
1,2,2,0,25,7,7,1,559,429,130,138,0,500,200,8000,"[(960, 540), (960, 540), (960, 540), (960, 540), (960, 540), (960, 540), (960, 540), (960, 540), (960, 540), (960, 540), (960, 540), (960, 540), (960, 540), (960, 540), (960, 540), (960, 540), (960, 540), (960, 540), (960, 540), (960, 540), (960, 540), (960, 540), (960, 540), (960, 540), (960, 540), (960, 540), (960, 540), (960, 540), (960, 540), (960, 540), (960, 540), (960, 540), (960, 540), (960, 540), (960, 540), (960, 540), (960, 540), (960, 540), (960, 540), (960, 540), (960, 540), (960, 540), (961, 541), (964, 551), (966, 557), (972, 568), (983, 585), (1021, 632), (1044, 658), (1062, 677), (1087, 703), (1132, 760), (1150, 785), (1168, 816), (1182, 847), (1201, 896)]",55.903324090650045,"[6, 7, 5, 2, 3, 9, 8, 4, 1]","(0, 0.25)",THI011B,THI,B,English,Fri Aug 31 09:58:19 2018,Mouse
1,2,2,0,26,2,2,1,510,310,200,137,0,500,200,8000,"[(960, 540), (960, 540), (960, 540), (960, 540), (960, 540), (960, 540), (960, 540), (960, 540), (960, 540), (960, 540), (960, 540), (960, 540), (960, 540), (960, 540), (960, 540), (960, 540), (960, 540), (960, 540), (960, 540), (960, 540), (960, 540), (960, 540), (960, 540), (960, 540), (960, 540), (960, 540), (960, 540), (960, 540), (960, 540), (960, 540), (960, 542), (960, 546), (957, 552), (954, 558), (940, 578), (929, 589), (915, 600), (900, 616), (858, 660), (843, 681), (824, 706), (808, 726), (779, 759), (765, 775), (753, 784), (741, 796), (720, 809), (709, 816), (698, 822), (688, 827), (668, 842)]",134.03551569777346,"[6, 7, 5, 2, 3, 9, 8, 4, 1]","(0, 0.25)",THI011B,THI,B,English,Fri Aug 31 09:58:19 2018,Mouse
1,2,2,0,27,3,9,0,-340,190,150,136,0,500,200,8000,"[(960, 540), (960, 540), (960, 540), (960, 540), (960, 540), (960, 540), (960, 540), (960, 540), (960, 540), (960, 540), (960, 540), (960, 540), (960, 540), (960, 540), (960, 540), (960, 540), (960, 540), (960, 540), (952, 537), (947, 533), (941, 529), (933, 524), (914, 511), (904, 502), (888, 490), (871, 479), (823, 440), (800, 422), (774, 403), (747, 388), (698, 347), (680, 333), (668, 318), (645, 291)]",218.32553095288242,"[6, 7, 5, 2, 3, 9, 8, 4, 1]","(0, 0.25)",THI011B,THI,B,English,Fri Aug 31 09:58:19 2018,Mouse
1,2,2,0,28,6,6,1,579,479,100,137,0,500,200,8000,"[(960, 540), (960, 540), (960, 540), (960, 540), (960, 540), (960, 540), (960, 540), (960, 540), (960, 540), (960, 540), (960, 540), (960, 540), (960, 540), (960, 540), (960, 540), (960, 540), (960, 540), (960, 540), (960, 540), (960, 540), (960, 540), (960, 540), (960, 540), (960, 540), (960, 540), (960, 540), (960, 540), (960, 540), (960, 540), (960, 540), (960, 540), (960, 540), (960, 540), (960, 540), (960, 540), (960, 540), (960, 540), (960, 540), (960, 540), (960, 540), (960, 540), (960, 540), (960, 540), (960, 540), (960, 540), (960, 540), (960, 540), (962, 542), (964, 544), (969, 548), (981, 553), (1026, 567), (1057, 577), (1099, 591), (1140, 604), (1240, 647), (1288, 667), (1336, 687)]",21.353383543703572,"[6, 7, 5, 2, 3, 9, 8, 4, 1]","(0, 0.25)",THI011B,THI,B,English,Fri Aug 31 09:58:19 2018,Mouse
1,2,2,0,29,3,3,1,810,600,210,137,0,500,200,8000,"[(960, 540), (960, 540), (960, 540), (960, 540), (960, 540), (960, 540), (960, 540), (960, 540), (960, 540), (960, 540), (960, 540), (960, 540), (960, 540), (960, 540), (960, 540), (960, 540), (960, 540), (960, 540), (960, 540), (960, 540), (960, 540), (960, 540), (960, 540), (960, 540), (960, 540), (960, 540), (960, 540), (960, 540), (960, 540), (960, 540), (960, 540), (960, 540), (960, 540), (960, 540), (960, 540), (960, 540), (960, 540), (960, 540), (960, 540), (960, 540), (960, 540), (960, 540), (960, 540), (960, 540), (960, 540), (960, 540), (960, 540), (960, 540), (960, 540), (960, 540), (960, 540), (960, 540), (960, 540), (960, 540), (960, 540), (960, 540), (960, 540), (960, 540), (960, 540), (959, 541), (958, 541), (958, 541), (958, 541), (958, 541), (956, 542), (955, 542), (953, 543), (953, 543), (946, 543), (939, 546), (931, 547), (920, 547), (894, 552), (876, 554), (862, 554), (841, 554), (780, 554), (738, 554), (694, 554), (646, 554), (535, 553)]",178.24796950197847,"[6, 7, 5, 2, 3, 9, 8, 4, 1]","(0, 0.25)",THI011B,THI,B,English,Fri Aug 31 09:58:19 2018,Mouse
1,2,2,0,30,8,5,0,-3930,1400,2530,136,0,500,200,8000,"[(960, 540), (960, 540), (960, 540), (960, 540), (960, 540), (960, 540), (960, 540), (960, 540), (960, 540), (960, 540), (960, 540), (960, 540), (960, 540), (960, 540), (960, 540), (960, 540), (960, 540), (960, 540), (960, 540), (960, 540), (960, 540), (960, 540), (960, 540), (960, 540), (960, 540), (960, 540), (960, 540), (960, 540), (960, 540), (960, 540), (960, 540), (960, 540), (960, 540), (960, 540), (960, 540), (960, 540), (960, 540), (960, 540), (960, 540), (960, 540), (960, 540), (960, 540), (960, 540), (960, 540), (960, 540), (960, 540), (960, 540), (960, 540), (960, 540), (960, 540), (960, 540), (960, 540), (960, 540), (960, 540), (960, 540), (960, 540), (960, 540), (960, 540), (960, 540), (960, 540), (960, 540), (960, 540), (960, 540), (960, 540), (960, 540), (960, 540), (960, 540), (960, 540), (960, 540), (960, 540), (960, 540), (960, 540), (960, 540), (960, 540), (960, 540), (960, 540), (960, 540), (960, 540), (960, 540), (960, 540), (960, 540), (960, 540), (960, 540), (960, 540), (960, 540), (960, 540), (960, 540), (960, 540), (960, 540), (960, 540), (960, 540), (960, 540), (960, 540), (960, 540), (960, 540), (960, 540), (960, 540), (960, 540), (960, 540), (960, 540), (960, 540), (960, 540), (960, 540), (960, 540), (960, 540), (960, 540), (960, 540), (960, 540), (960, 540), (960, 540), (960, 540), (960, 540), (960, 540), (960, 540), (960, 540), (960, 540), (960, 540), (960, 540), (960, 540), (960, 540), (960, 540), (960, 540), (960, 540), (960, 540), (960, 540), (960, 540), (960, 540), (960, 540), (960, 540), (960, 540), (960, 540), (960, 540), (960, 540), (960, 540), (960, 540), (960, 540), (960, 540), (960, 540), (960, 540), (960, 539), (965, 528), (967, 522), (971, 514), (976, 505), (986, 480), (990, 467), (996, 453), (1002, 435), (1014, 406), (1020, 388), (1027, 370), (1032, 360), (1043, 335), (1048, 324), (1051, 312), (1055, 304), (1062, 289), (1065, 283), (1065, 279), (1065, 279), (1066, 277), (1066, 277), (1066, 277), (1066, 277), (1066, 277), (1066, 277), (1066, 277), (1066, 277), (1066, 277), (1066, 277), (1066, 277), (1066, 277), (1066, 277), (1066, 277), (1066, 277), (1066, 277), (1066, 277), (1066, 277), (1066, 277), (1066, 277), (1066, 277), (1066, 277), (1066, 277), (1066, 277), (1066, 277), (1065, 277), (1065, 277), (1065, 277), (1065, 277), (1065, 277), (1065, 277), (1065, 277), (1065, 277), (1065, 277), (1065, 277), (1065, 277), (1065, 277), (1065, 277), (1065, 277), (1065, 277), (1065, 277), (1065, 277), (1065, 277), (1065, 277), (1065, 277), (1065, 277), (1065, 277), (1065, 277), (1065, 277), (1065, 277), (1065, 277), (1065, 277), (1065, 277), (1065, 277), (1065, 277), (1065, 277), (1065, 277), (1065, 277), (1065, 277), (1065, 277), (1065, 277), (1065, 277), (1065, 277), (1065, 277), (1065, 277), (1065, 277), (1065, 277), (1065, 277), (1065, 277), (1065, 277), (1065, 277), (1065, 277), (1065, 277), (1065, 277), (1065, 277), (1065, 277), (1065, 278), (1065, 278), (1065, 278), (1065, 278), (1065, 278), (1065, 278), (1065, 278), (1065, 278), (1065, 278), (1065, 278), (1065, 278), (1065, 278), (1065, 278), (1065, 278), (1065, 278), (1065, 278), (1065, 278), (1065, 278), (1065, 278), (1065, 278), (1065, 278), (1065, 278), (1065, 278), (1065, 278), (1065, 278), (1065, 278), (1065, 278), (1065, 278), (1065, 278), (1065, 278), (1065, 278), (1065, 278), (1065, 278), (1065, 278), (1065, 278), (1065, 278), (1065, 278), (1065, 278), (1065, 278), (1065, 278), (1065, 278), (1065, 278), (1065, 278), (1065, 278), (1065, 278), (1065, 278), (1065, 278), (1065, 278), (1065, 278), (1065, 278), (1065, 278), (1065, 278), (1065, 278), (1065, 278), (1065, 278), (1065, 278), (1065, 278), (1065, 278), (1065, 278), (1065, 278), (1065, 278), (1065, 278), (1065, 278), (1065, 278), (1065, 278), (1065, 278), (1065, 278), (1065, 278), (1065, 278), (1065, 278), (1065, 278), (1065, 278), (1065, 278), (1065, 278), (1065, 278), (1065, 278), (1065, 278), (1065, 278), (1065, 278), (1065, 278), (1065, 278), (1065, 278), (1065, 278), (1065, 278), (1065, 278), (1065, 278), (1065, 278), (1065, 278), (1065, 278), (1065, 278), (1065, 278), (1065, 278), (1065, 278), (1065, 278), (1065, 278), (1065, 278), (1061, 283), (1060, 286), (1057, 292), (1052, 302), (1043, 325), (1033, 345), (1024, 369), (1016, 399), (999, 460), (991, 486), (981, 514), (971, 540), (949, 587), (939, 611), (935, 623), (930, 637), (922, 664), (918, 675), (917, 683), (915, 694), (911, 708), (909, 716), (909, 725), (908, 730), (907, 740), (906, 743), (906, 749), (905, 754), (903, 760), (902, 763), (902, 766), (901, 770), (900, 776), (899, 780), (899, 785), (899, 789), (899, 800), (899, 803), (899, 807), (899, 811), (899, 821), (899, 825), (899, 827), (899, 831), (899, 836), (899, 838), (899, 841), (899, 844), (898, 849), (897, 851), (897, 854), (896, 857), (895, 864), (895, 869), (894, 873), (893, 880), (891, 895), (890, 905), (889, 913), (887, 922), (885, 937)]",100.69805906112602,"[6, 7, 5, 2, 3, 9, 8, 4, 1]","(0, 0.25)",THI011B,THI,B,English,Fri Aug 31 09:58:19 2018,Mouse
1,2,2,0,31,1,1,1,405,235,170,137,0,500,200,8000,"[(960, 540), (960, 540), (960, 540), (960, 540), (960, 540), (960, 540), (960, 540), (960, 540), (960, 540), (960, 540), (960, 540), (960, 540), (960, 540), (960, 540), (960, 540), (960, 540), (960, 540), (960, 540), (960, 540), (960, 540), (960, 540), (960, 540), (960, 540), (961, 540), (962, 540), (965, 540), (972, 540), (979, 540), (988, 537), (995, 534), (1017, 529), (1034, 524), (1056, 518), (1082, 515), (1138, 507), (1171, 500), (1204, 491), (1239, 486), (1306, 467), (1339, 458), (1375, 447)]",347.3689046013555,"[6, 7, 5, 2, 3, 9, 8, 4, 1]","(0, 0.25)",THI011B,THI,B,English,Fri Aug 31 09:58:19 2018,Mouse
1,2,2,0,32,4,4,1,648,518,130,137,0,500,200,8000,"[(960, 540), (960, 540), (960, 540), (960, 540), (960, 540), (960, 540), (960, 540), (960, 540), (960, 540), (960, 540), (960, 540), (960, 540), (960, 540), (960, 540), (960, 540), (960, 540), (960, 540), (960, 540), (960, 540), (960, 540), (960, 540), (960, 540), (960, 540), (960, 540), (960, 540), (960, 540), (960, 540), (960, 540), (960, 540), (960, 540), (960, 540), (960, 540), (960, 540), (960, 540), (960, 540), (960, 540), (960, 540), (960, 540), (960, 540), (960, 540), (960, 540), (960, 540), (960, 540), (960, 540), (960, 540), (960, 540), (960, 540), (960, 540), (960, 540), (960, 540), (960, 540), (965, 535), (978, 520), (987, 509), (994, 498), (1006, 482), (1026, 449), (1037, 425), (1045, 410), (1055, 384), (1078, 329), (1091, 297), (1101, 269), (1110, 233), (1135, 160)]",294.7273143866901,"[6, 7, 5, 2, 3, 9, 8, 4, 1]","(0, 0.25)",THI011B,THI,B,English,Fri Aug 31 09:58:19 2018,Mouse
1,2,2,0,33,6,3,0,-3988,2198,1790,136,0,500,200,8000,"[(960, 540), (960, 540), (960, 540), (960, 540), (960, 540), (960, 540), (960, 540), (960, 540), (960, 540), (960, 540), (960, 540), (960, 540), (960, 540), (960, 540), (960, 540), (960, 540), (960, 540), (960, 540), (960, 540), (960, 540), (960, 540), (960, 540), (960, 540), (960, 540), (960, 540), (960, 540), (960, 540), (960, 540), (960, 540), (960, 540), (960, 540), (960, 540), (960, 540), (960, 540), (960, 540), (960, 540), (960, 540), (960, 540), (960, 540), (960, 540), (960, 540), (960, 540), (960, 540), (960, 540), (960, 540), (960, 540), (960, 540), (960, 540), (960, 540), (960, 540), (960, 540), (960, 540), (960, 540), (960, 540), (960, 540), (960, 540), (960, 540), (960, 540), (960, 540), (960, 540), (960, 540), (960, 540), (960, 540), (960, 540), (960, 540), (960, 540), (960, 540), (960, 540), (960, 540), (960, 540), (960, 540), (960, 540), (960, 540), (960, 540), (960, 540), (960, 540), (960, 540), (960, 540), (960, 540), (960, 540), (960, 540), (960, 540), (960, 540), (960, 540), (960, 540), (960, 540), (960, 540), (960, 540), (960, 540), (960, 540), (960, 540), (960, 540), (960, 540), (960, 540), (960, 540), (960, 540), (960, 540), (960, 540), (960, 540), (960, 540), (960, 540), (960, 540), (960, 540), (960, 540), (960, 540), (960, 540), (960, 540), (960, 540), (960, 540), (960, 540), (960, 540), (960, 540), (960, 540), (960, 540), (960, 540), (960, 540), (960, 540), (960, 540), (960, 540), (960, 540), (960, 540), (960, 540), (960, 540), (960, 540), (960, 540), (960, 540), (960, 540), (960, 540), (960, 540), (960, 540), (960, 540), (960, 540), (960, 540), (960, 540), (960, 540), (960, 540), (960, 540), (960, 540), (960, 540), (960, 540), (960, 540), (960, 540), (960, 540), (960, 540), (960, 540), (960, 540), (960, 540), (960, 540), (960, 540), (960, 540), (960, 540), (960, 540), (960, 540), (960, 540), (960, 540), (960, 540), (960, 540), (960, 540), (960, 540), (960, 540), (960, 540), (960, 540), (960, 540), (960, 540), (960, 540), (960, 540), (960, 540), (960, 540), (960, 540), (960, 540), (960, 540), (960, 540), (960, 540), (960, 540), (960, 540), (960, 540), (960, 540), (960, 540), (960, 540), (960, 540), (960, 540), (960, 540), (960, 540), (960, 540), (960, 540), (960, 540), (960, 540), (960, 540), (960, 540), (960, 540), (960, 540), (960, 540), (960, 540), (960, 540), (960, 540), (960, 540), (960, 540), (960, 540), (960, 540), (960, 540), (960, 540), (960, 540), (960, 540), (960, 540), (960, 540), (960, 540), (960, 540), (960, 540), (960, 540), (960, 540), (960, 540), (960, 540), (960, 540), (960, 540), (960, 540), (960, 540), (960, 540), (960, 540), (960, 540), (959, 541), (959, 541), (959, 541), (958, 542), (957, 543), (956, 543), (956, 543), (955, 543), (955, 543), (955, 543), (955, 543), (955, 543), (955, 543), (955, 543), (955, 543), (955, 543), (955, 543), (955, 543), (955, 543), (955, 543), (955, 543), (955, 543), (955, 543), (955, 543), (955, 543), (955, 543), (955, 543), (955, 543), (955, 543), (955, 543), (955, 543), (955, 543), (955, 543), (955, 543), (955, 543), (955, 543), (955, 543), (955, 543), (955, 543), (955, 543), (955, 543), (955, 543), (955, 543), (955, 543), (955, 543), (955, 543), (955, 543), (955, 543), (955, 543), (955, 543), (955, 543), (955, 543), (955, 543), (955, 543), (955, 543), (955, 543), (955, 543), (955, 543), (955, 543), (955, 543), (955, 543), (955, 543), (955, 543), (955, 543), (955, 543), (955, 543), (955, 543), (955, 543), (955, 543), (955, 543), (955, 543), (955, 543), (955, 543), (955, 543), (955, 543), (955, 543), (955, 543), (955, 543), (955, 543), (955, 543), (955, 543), (955, 543), (955, 543), (955, 543), (955, 543), (955, 543), (955, 543), (955, 543), (955, 543), (955, 543), (955, 543), (955, 543), (955, 543), (955, 543), (955, 543), (955, 543), (955, 543), (955, 543), (955, 543), (955, 543), (955, 543), (955, 543), (955, 543), (955, 543), (955, 543), (955, 543), (955, 543), (955, 543), (955, 543), (955, 543), (955, 543), (955, 543), (955, 543), (955, 543), (955, 543), (955, 543), (955, 543), (955, 543), (955, 543), (955, 543), (955, 543), (955, 543), (955, 543), (953, 543), (952, 543), (952, 543), (950, 543), (944, 543), (939, 543), (934, 543), (928, 544), (914, 544), (907, 544), (902, 544), (895, 544), (880, 544), (873, 544), (865, 544), (858, 544), (841, 544), (833, 544), (826, 544), (818, 544), (803, 544), (798, 544), (789, 544), (784, 544), (776, 544), (774, 544), (771, 544), (768, 544), (764, 543), (761, 543), (759, 543), (756, 543), (749, 543), (745, 543), (742, 543), (740, 543), (731, 543), (727, 543), (723, 543), (719, 543), (709, 543), (702, 543), (695, 543), (687, 543), (676, 543), (668, 543), (657, 541), (647, 539), (623, 537), (616, 536), (609, 534), (604, 534), (588, 533), (581, 532), (572, 531), (562, 529), (545, 529)]",181.51832780214792,"[6, 7, 5, 2, 3, 9, 8, 4, 1]","(0, 0.25)",THI011B,THI,B,English,Fri Aug 31 09:58:19 2018,Mouse
1,2,2,0,34,8,8,1,621,401,220,137,0,500,200,8000,"[(960, 540), (960, 540), (960, 540), (960, 540), (960, 540), (960, 540), (960, 540), (960, 540), (960, 540), (960, 540), (960, 540), (960, 540), (960, 540), (960, 540), (960, 540), (960, 540), (960, 540), (960, 540), (960, 540), (960, 540), (960, 540), (960, 540), (960, 540), (960, 540), (960, 540), (960, 540), (960, 540), (960, 540), (960, 540), (960, 540), (960, 540), (960, 540), (960, 540), (960, 540), (960, 540), (960, 540), (960, 540), (960, 540), (960, 540), (960, 540), (960, 537), (960, 533), (959, 527), (955, 516), (953, 510), (952, 503), (950, 494), (947, 467), (943, 456), (941, 440), (938, 426), (935, 394), (933, 381), (933, 364), (933, 342), (926, 302), (925, 279), (922, 255), (917, 228), (915, 180), (915, 160), (915, 143), (915, 124)]",263.8261454945264,"[6, 7, 5, 2, 3, 9, 8, 4, 1]","(0, 0.25)",THI011B,THI,B,English,Fri Aug 31 09:58:19 2018,Mouse
1,2,2,0,35,6,1,0,-1109,999,110,137,0,500,200,8000,"[(960, 540), (960, 540), (960, 540), (960, 540), (960, 540), (960, 540), (960, 540), (960, 540), (960, 540), (960, 540), (960, 540), (960, 540), (960, 540), (960, 540), (960, 540), (960, 540), (960, 540), (960, 540), (960, 540), (960, 540), (960, 540), (960, 540), (960, 540), (960, 540), (960, 540), (960, 540), (960, 540), (960, 540), (960, 540), (960, 540), (960, 540), (960, 540), (960, 540), (960, 540), (960, 540), (960, 540), (960, 540), (960, 540), (960, 540), (960, 540), (960, 540), (960, 540), (960, 540), (960, 540), (960, 540), (960, 540), (960, 540), (960, 540), (960, 540), (960, 540), (960, 540), (960, 540), (960, 540), (960, 540), (960, 540), (960, 540), (960, 540), (960, 540), (960, 540), (960, 540), (960, 540), (960, 540), (960, 540), (960, 540), (960, 540), (960, 540), (960, 540), (960, 540), (960, 540), (960, 540), (960, 540), (960, 540), (960, 540), (960, 540), (960, 540), (960, 540), (960, 540), (960, 540), (960, 540), (960, 540), (960, 540), (960, 540), (960, 540), (960, 540), (960, 540), (960, 540), (960, 540), (960, 540), (960, 540), (960, 540), (960, 540), (960, 540), (960, 540), (960, 540), (960, 540), (960, 540), (960, 540), (960, 540), (960, 540), (975, 539), (988, 535), (1004, 530), (1032, 522), (1088, 505), (1128, 499), (1159, 487), (1192, 478), (1264, 459), (1298, 448), (1334, 439), (1359, 431)]",344.72058283380477,"[6, 7, 5, 2, 3, 9, 8, 4, 1]","(0, 0.25)",THI011B,THI,B,English,Fri Aug 31 09:58:19 2018,Mouse
1,2,2,0,36,4,4,1,959,129,830,138,0,500,200,8000,"[(960, 540), (960, 540), (960, 540), (960, 540), (960, 540), (960, 540), (960, 540), (960, 540), (960, 540), (960, 540), (960, 540), (960, 540), (958, 540), (958, 540), (958, 540), (958, 540), (957, 540), (957, 540), (957, 540), (957, 540), (956, 540), (955, 539), (955, 537), (953, 534), (952, 530), (948, 515), (947, 503), (943, 489), (939, 476), (930, 446), (927, 435), (926, 423), (926, 415), (924, 397), (924, 388), (922, 382), (922, 379), (922, 373), (922, 373), (922, 372), (922, 371), (922, 371), (922, 371), (922, 371), (922, 371), (922, 371), (922, 371), (922, 371), (922, 371), (922, 371), (922, 371), (922, 371), (922, 371), (922, 371), (922, 371), (922, 371), (922, 371), (922, 371), (922, 371), (922, 371), (922, 371), (922, 371), (922, 371), (922, 371), (922, 371), (922, 371), (922, 371), (922, 371), (922, 371), (922, 371), (922, 371), (922, 371), (922, 371), (922, 371), (922, 371), (922, 371), (922, 371), (922, 371), (922, 371), (922, 371), (922, 371), (922, 371), (922, 371), (922, 371), (922, 372), (935, 363), (945, 357), (958, 350), (969, 343), (1006, 322), (1031, 306), (1056, 287), (1084, 268), (1130, 220), (1154, 196), (1171, 171)]",299.76160022833614,"[6, 7, 5, 2, 3, 9, 8, 4, 1]","(0, 0.25)",THI011B,THI,B,English,Fri Aug 31 09:58:19 2018,Mouse
1,2,2,0,37,1,1,1,380,140,240,138,0,500,200,8000,"[(960, 540), (960, 540), (960, 540), (960, 540), (960, 540), (960, 540), (960, 540), (960, 540), (960, 540), (960, 540), (960, 540), (960, 540), (960, 540), (960, 542), (963, 542), (966, 543), (975, 545), (981, 547), (985, 548), (991, 548), (1010, 549), (1022, 549), (1036, 549), (1051, 548), (1087, 538), (1104, 533), (1125, 524), (1148, 517), (1186, 493), (1207, 482), (1222, 472), (1236, 461), (1263, 444), (1276, 437), (1290, 430), (1306, 419), (1335, 403), (1347, 397)]",339.72027270960393,"[6, 7, 5, 2, 3, 9, 8, 4, 1]","(0, 0.25)",THI011B,THI,B,English,Fri Aug 31 09:58:19 2018,Mouse
1,2,2,0,38,4,4,1,939,709,230,137,0,500,200,8000,"[(960, 540), (960, 540), (960, 540), (960, 540), (960, 540), (960, 540), (960, 540), (960, 540), (960, 540), (960, 540), (960, 540), (960, 540), (960, 540), (960, 540), (960, 540), (960, 540), (960, 540), (960, 540), (960, 540), (960, 540), (960, 540), (960, 540), (960, 540), (960, 540), (960, 540), (960, 540), (960, 540), (960, 540), (960, 540), (960, 540), (960, 540), (960, 540), (960, 540), (960, 540), (960, 540), (960, 540), (960, 540), (960, 540), (960, 540), (960, 540), (960, 540), (960, 540), (960, 540), (960, 540), (960, 540), (960, 540), (960, 540), (960, 540), (960, 540), (960, 540), (960, 540), (960, 540), (960, 540), (960, 540), (960, 540), (960, 540), (960, 540), (960, 540), (960, 540), (960, 540), (960, 540), (960, 540), (960, 540), (960, 540), (960, 540), (960, 540), (960, 540), (960, 540), (960, 540), (960, 540), (961, 539), (966, 533), (973, 524), (986, 504), (994, 493), (1003, 480), (1012, 464), (1026, 437), (1034, 422), (1045, 400), (1053, 382), (1066, 353), (1072, 335), (1079, 320), (1087, 304), (1097, 279), (1103, 267), (1107, 255), (1113, 243), (1121, 220), (1124, 211), (1128, 202), (1131, 193), (1136, 177)]",295.8663567940945,"[6, 7, 5, 2, 3, 9, 8, 4, 1]","(0, 0.25)",THI011B,THI,B,English,Fri Aug 31 09:58:19 2018,Mouse
1,2,2,0,39,9,5,0,-4519,4349,170,136,0,500,200,8000,"[(960, 540), (960, 540), (960, 540), (960, 540), (960, 540), (960, 540), (960, 540), (960, 540), (960, 540), (960, 540), (960, 540), (960, 540), (960, 540), (960, 540), (960, 540), (960, 540), (960, 540), (960, 540), (960, 540), (960, 540), (960, 540), (960, 540), (960, 540), (960, 540), (960, 540), (960, 540), (960, 540), (960, 540), (960, 540), (960, 540), (960, 540), (960, 540), (960, 540), (960, 540), (960, 540), (960, 540), (960, 540), (960, 540), (960, 540), (960, 540), (960, 540), (960, 540), (960, 540), (960, 540), (960, 540), (960, 540), (960, 540), (960, 540), (960, 540), (960, 540), (960, 540), (960, 540), (960, 540), (960, 540), (960, 540), (960, 540), (960, 540), (960, 540), (960, 540), (960, 540), (960, 540), (960, 540), (960, 540), (960, 540), (960, 540), (960, 540), (960, 540), (960, 540), (960, 540), (960, 540), (960, 540), (960, 540), (960, 540), (960, 540), (960, 540), (960, 540), (960, 540), (960, 540), (960, 540), (960, 540), (960, 540), (960, 540), (960, 540), (960, 540), (960, 540), (960, 540), (960, 540), (960, 540), (960, 540), (960, 540), (960, 540), (960, 540), (960, 540), (960, 540), (960, 540), (960, 540), (960, 540), (960, 540), (960, 540), (960, 540), (960, 540), (960, 540), (960, 540), (960, 540), (960, 540), (960, 540), (960, 540), (960, 540), (960, 540), (960, 540), (960, 540), (960, 540), (960, 540), (960, 540), (960, 540), (960, 540), (960, 540), (960, 540), (960, 540), (960, 540), (960, 540), (960, 540), (960, 540), (960, 540), (960, 540), (960, 540), (960, 540), (960, 540), (960, 540), (960, 540), (960, 540), (960, 540), (960, 540), (960, 540), (960, 540), (960, 540), (960, 540), (960, 540), (960, 540), (960, 540), (960, 540), (960, 540), (960, 540), (960, 540), (960, 540), (960, 540), (960, 540), (960, 540), (960, 540), (960, 540), (960, 540), (960, 540), (960, 540), (960, 540), (960, 540), (960, 540), (960, 540), (960, 540), (960, 540), (960, 540), (960, 540), (960, 540), (960, 540), (960, 540), (960, 540), (960, 540), (960, 540), (960, 540), (960, 540), (960, 540), (960, 540), (960, 540), (960, 540), (960, 540), (960, 540), (960, 540), (960, 540), (960, 540), (960, 540), (960, 540), (960, 540), (960, 540), (960, 540), (960, 540), (960, 540), (960, 540), (960, 540), (960, 540), (960, 540), (960, 540), (960, 540), (960, 540), (960, 540), (960, 540), (960, 540), (960, 540), (960, 540), (960, 540), (960, 540), (960, 540), (960, 540), (960, 540), (960, 540), (960, 540), (960, 540), (960, 540), (960, 540), (960, 540), (960, 540), (960, 540), (960, 540), (960, 540), (960, 540), (960, 540), (960, 540), (960, 540), (960, 540), (960, 540), (960, 540), (960, 540), (960, 540), (960, 540), (960, 540), (960, 540), (960, 540), (960, 540), (960, 540), (960, 540), (960, 540), (960, 540), (960, 540), (960, 540), (960, 540), (960, 540), (960, 540), (960, 540), (960, 540), (960, 540), (960, 540), (960, 540), (960, 540), (960, 540), (960, 540), (960, 540), (960, 540), (960, 540), (960, 540), (960, 540), (960, 540), (960, 540), (960, 540), (960, 540), (960, 540), (960, 540), (960, 540), (960, 540), (960, 540), (960, 540), (960, 540), (960, 540), (960, 540), (960, 540), (960, 540), (960, 540), (960, 540), (960, 540), (960, 540), (960, 540), (960, 540), (960, 540), (960, 540), (960, 540), (960, 540), (960, 540), (960, 540), (960, 540), (960, 540), (960, 540), (960, 540), (960, 540), (960, 540), (960, 540), (960, 540), (960, 540), (960, 540), (960, 540), (960, 540), (960, 540), (960, 540), (960, 540), (960, 540), (960, 540), (960, 540), (960, 540), (960, 540), (960, 540), (960, 540), (960, 540), (960, 540), (960, 540), (960, 540), (960, 540), (960, 540), (960, 540), (960, 540), (960, 540), (960, 540), (960, 540), (960, 540), (960, 540), (960, 540), (960, 540), (960, 540), (960, 540), (960, 540), (960, 540), (960, 540), (960, 540), (960, 540), (960, 540), (960, 540), (960, 540), (960, 540), (960, 540), (960, 540), (960, 540), (960, 540), (960, 540), (960, 540), (960, 540), (960, 540), (960, 540), (960, 540), (960, 540), (960, 540), (960, 540), (960, 540), (960, 540), (960, 540), (960, 540), (960, 540), (960, 540), (960, 540), (960, 540), (960, 540), (960, 540), (960, 540), (960, 540), (960, 540), (960, 540), (960, 540), (960, 540), (960, 540), (960, 540), (960, 540), (960, 540), (960, 540), (960, 540), (960, 540), (960, 540), (960, 540), (960, 540), (960, 540), (960, 540), (960, 540), (960, 540), (960, 540), (960, 540), (960, 540), (960, 540), (960, 540), (960, 540), (960, 540), (960, 540), (960, 540), (960, 540), (960, 540), (960, 540), (960, 540), (960, 540), (960, 540), (960, 540), (960, 540), (960, 540), (960, 540), (960, 540), (960, 540), (960, 540), (960, 540), (960, 540), (960, 540), (960, 540), (960, 540), (960, 540), (960, 540), (960, 540), (960, 540), (960, 540), (960, 540), (960, 540), (960, 540), (960, 540), (960, 540), (960, 540), (960, 540), (960, 540), (960, 540), (960, 540), (960, 540), (960, 540), (960, 540), (960, 540), (960, 540), (960, 540), (960, 540), (960, 540), (960, 540), (960, 540), (960, 540), (960, 540), (960, 540), (960, 540), (960, 540), (960, 540), (960, 540), (960, 540), (960, 540), (960, 540), (960, 540), (960, 540), (960, 540), (960, 540), (960, 540), (960, 540), (959, 541), (959, 543), (959, 544), (959, 548), (959, 561), (959, 570), (959, 582), (959, 595), (959, 628), (956, 652), (950, 677), (939, 736), (926, 773), (921, 795), (909, 831), (900, 867), (884, 918), (879, 945)]",101.30993247402021,"[6, 7, 5, 2, 3, 9, 8, 4, 1]","(0, 0.25)",THI011B,THI,B,English,Fri Aug 31 09:58:19 2018,Mouse
1,2,2,0,40,1,1,1,338,108,230,137,0,500,200,8000,"[(960, 540), (960, 540), (960, 540), (960, 540), (960, 540), (960, 540), (960, 540), (960, 540), (960, 540), (960, 540), (960, 539), (960, 539), (962, 539), (967, 535), (969, 533), (971, 530), (973, 528), (982, 521), (987, 517), (993, 514), (1002, 509), (1023, 502), (1039, 497), (1056, 491), (1078, 485), (1125, 467), (1146, 458), (1169, 447), (1193, 436), (1238, 414), (1264, 404), (1290, 393), (1314, 382), (1355, 366)]",336.22620498288285,"[6, 7, 5, 2, 3, 9, 8, 4, 1]","(0, 0.25)",THI011B,THI,B,English,Fri Aug 31 09:58:19 2018,Mouse
1,2,2,0,41,5,4,0,-741,611,130,137,0,500,200,8000,"[(960, 540), (960, 540), (960, 540), (960, 540), (960, 540), (960, 540), (960, 540), (960, 540), (960, 540), (960, 540), (960, 540), (960, 540), (960, 540), (960, 540), (960, 540), (960, 540), (960, 540), (960, 540), (960, 540), (960, 540), (960, 540), (960, 540), (960, 540), (960, 540), (960, 540), (960, 540), (960, 540), (960, 540), (960, 540), (960, 540), (960, 540), (960, 540), (960, 540), (960, 540), (960, 540), (960, 540), (960, 540), (960, 540), (960, 540), (960, 540), (960, 540), (960, 540), (960, 540), (960, 540), (960, 540), (960, 540), (960, 540), (960, 540), (960, 540), (960, 540), (960, 540), (960, 540), (960, 540), (960, 540), (960, 540), (960, 540), (960, 540), (960, 540), (960, 540), (960, 540), (960, 540), (962, 540), (971, 538), (986, 520), (997, 508), (1008, 491), (1017, 475), (1048, 427), (1064, 405), (1080, 378), (1095, 350), (1126, 291), (1141, 257), (1157, 222), (1168, 198)]",301.30742889419776,"[6, 7, 5, 2, 3, 9, 8, 4, 1]","(0, 0.25)",THI011B,THI,B,English,Fri Aug 31 09:58:19 2018,Mouse
1,2,2,0,42,3,3,1,3410,2540,870,138,0,500,200,8000,"[(960, 540), (960, 540), (960, 540), (960, 540), (960, 540), (960, 540), (960, 540), (960, 540), (960, 540), (960, 540), (960, 540), (960, 540), (960, 540), (960, 540), (960, 540), (960, 540), (960, 540), (960, 540), (960, 540), (960, 540), (960, 540), (960, 540), (960, 540), (960, 540), (960, 540), (960, 540), (960, 540), (960, 540), (960, 540), (960, 540), (960, 540), (960, 540), (960, 540), (960, 540), (960, 540), (960, 540), (960, 540), (960, 540), (960, 540), (960, 540), (960, 540), (960, 540), (960, 540), (960, 540), (960, 540), (960, 540), (960, 540), (960, 540), (960, 540), (960, 540), (960, 540), (960, 540), (960, 540), (960, 540), (960, 540), (960, 540), (960, 540), (960, 540), (960, 540), (960, 540), (960, 540), (960, 540), (960, 540), (960, 540), (960, 540), (960, 540), (960, 540), (960, 540), (960, 540), (960, 540), (960, 540), (960, 540), (960, 540), (960, 540), (960, 540), (960, 540), (960, 540), (960, 540), (960, 540), (960, 540), (960, 540), (960, 540), (960, 540), (960, 540), (960, 540), (960, 540), (960, 540), (960, 540), (960, 540), (960, 540), (960, 540), (960, 540), (960, 540), (960, 540), (960, 540), (960, 540), (960, 540), (960, 540), (960, 540), (960, 540), (960, 540), (960, 540), (960, 540), (960, 540), (960, 540), (960, 540), (960, 540), (960, 540), (960, 540), (960, 540), (960, 540), (960, 540), (960, 540), (960, 540), (960, 540), (960, 540), (960, 540), (960, 540), (960, 540), (960, 540), (960, 540), (960, 540), (960, 540), (960, 540), (960, 540), (960, 540), (960, 540), (960, 540), (960, 540), (960, 540), (960, 540), (960, 540), (960, 540), (960, 540), (960, 540), (960, 540), (960, 540), (960, 540), (960, 540), (960, 540), (960, 540), (960, 540), (960, 540), (960, 540), (960, 540), (960, 540), (960, 540), (960, 540), (960, 540), (960, 540), (960, 540), (960, 540), (960, 540), (960, 540), (960, 540), (960, 540), (960, 540), (960, 540), (960, 540), (960, 540), (960, 540), (960, 540), (960, 540), (960, 540), (960, 540), (960, 540), (960, 540), (960, 540), (960, 540), (960, 540), (960, 540), (960, 540), (960, 540), (960, 540), (960, 540), (960, 540), (960, 540), (960, 540), (960, 540), (960, 540), (960, 540), (960, 540), (960, 540), (960, 540), (960, 540), (960, 540), (960, 540), (960, 540), (960, 540), (960, 540), (960, 540), (960, 540), (960, 540), (960, 540), (960, 540), (960, 540), (960, 540), (960, 540), (960, 540), (960, 540), (960, 540), (960, 540), (960, 540), (960, 540), (960, 540), (960, 540), (960, 540), (960, 540), (960, 540), (960, 540), (960, 540), (960, 540), (960, 540), (960, 540), (960, 540), (960, 540), (960, 540), (960, 540), (960, 540), (960, 540), (960, 540), (960, 540), (960, 540), (960, 540), (960, 540), (960, 540), (960, 540), (960, 540), (960, 540), (960, 540), (960, 540), (960, 540), (960, 540), (960, 540), (960, 540), (960, 540), (960, 540), (960, 540), (960, 540), (960, 540), (960, 540), (960, 540), (960, 540), (960, 540), (960, 540), (960, 540), (960, 540), (960, 540), (960, 540), (960, 540), (960, 540), (960, 540), (960, 540), (959, 542), (957, 542), (956, 542), (950, 542), (947, 542), (943, 542), (941, 542), (932, 542), (930, 542), (926, 542), (925, 542), (921, 542), (918, 542), (915, 542), (911, 544), (902, 544), (897, 544), (893, 544), (887, 544), (875, 544), (870, 544), (866, 544), (862, 544), (855, 544), (850, 545), (846, 545), (840, 545), (832, 545), (826, 545), (823, 545), (819, 545), (811, 545), (807, 545), (801, 545), (797, 545), (788, 545), (784, 545), (780, 545), (777, 545), (770, 545), (766, 545), (760, 545), (753, 545), (738, 545), (731, 545), (724, 545), (716, 545), (702, 545), (694, 545), (687, 545), (678, 545), (657, 545), (649, 545), (638, 545), (629, 545), (609, 545), (600, 545), (593, 545), (586, 545), (576, 546), (575, 546), (573, 546), (572, 546), (570, 546), (570, 546), (569, 546), (569, 546), (569, 546), (569, 546), (569, 546), (569, 546), (569, 546), (569, 546), (569, 546), (569, 546), (569, 546), (569, 546), (569, 546), (569, 546), (569, 546), (569, 546), (569, 546), (569, 546), (569, 546), (568, 546), (565, 548), (561, 548), (552, 548)]",178.87669728592456,"[6, 7, 5, 2, 3, 9, 8, 4, 1]","(0, 0.25)",THI011B,THI,B,English,Fri Aug 31 09:58:19 2018,Mouse
1,2,2,0,43,2,2,1,449,149,300,138,0,500,200,8000,"[(960, 540), (960, 540), (960, 540), (960, 540), (960, 540), (960, 540), (960, 540), (960, 540), (960, 540), (960, 540), (960, 540), (960, 540), (960, 540), (960, 540), (960, 541), (958, 542), (954, 546), (951, 547), (945, 551), (943, 553), (937, 557), (930, 562), (919, 574), (912, 578), (905, 583), (898, 590), (882, 603), (873, 611), (865, 619), (855, 628), (834, 646), (823, 659), (814, 668), (801, 684), (774, 717), (764, 729), (756, 739), (749, 749), (733, 771), (726, 781), (717, 793), (710, 803), (695, 824), (689, 833), (677, 846)]",132.7637797507055,"[6, 7, 5, 2, 3, 9, 8, 4, 1]","(0, 0.25)",THI011B,THI,B,English,Fri Aug 31 09:58:19 2018,Mouse
1,2,2,0,44,4,4,1,1391,1251,140,137,0,500,200,8000,"[(960, 540), (960, 540), (960, 540), (960, 540), (960, 540), (960, 540), (960, 540), (960, 540), (960, 540), (960, 540), (960, 540), (960, 540), (960, 540), (960, 540), (960, 540), (960, 540), (960, 540), (960, 540), (960, 540), (960, 540), (960, 540), (960, 540), (960, 540), (960, 540), (960, 540), (960, 540), (960, 540), (960, 540), (960, 540), (960, 540), (960, 540), (960, 540), (960, 540), (960, 540), (960, 540), (960, 540), (960, 540), (960, 540), (960, 540), (960, 540), (960, 540), (960, 540), (960, 540), (960, 540), (960, 540), (960, 540), (960, 540), (960, 540), (960, 540), (960, 540), (960, 540), (960, 540), (960, 540), (960, 540), (960, 540), (960, 540), (960, 540), (960, 540), (960, 540), (960, 540), (960, 540), (960, 540), (960, 540), (960, 540), (960, 540), (960, 540), (960, 540), (960, 540), (960, 540), (960, 540), (960, 540), (960, 540), (960, 540), (960, 540), (960, 540), (960, 540), (960, 540), (960, 540), (960, 540), (960, 540), (960, 540), (960, 540), (960, 540), (960, 540), (960, 540), (960, 540), (960, 540), (960, 540), (960, 540), (960, 540), (960, 540), (960, 540), (960, 540), (960, 540), (960, 540), (960, 540), (960, 540), (960, 540), (960, 540), (960, 540), (960, 540), (960, 540), (960, 540), (960, 540), (960, 540), (960, 540), (960, 540), (960, 540), (960, 540), (960, 540), (960, 540), (960, 540), (960, 540), (960, 540), (960, 540), (960, 540), (960, 540), (960, 540), (960, 540), (960, 540), (960, 540), (960, 540), (960, 540), (960, 540), (960, 540), (965, 536), (973, 531), (981, 524), (993, 515), (1015, 490), (1027, 475), (1040, 456), (1051, 437), (1074, 379), (1086, 353), (1095, 330), (1112, 292), (1133, 238), (1147, 208), (1164, 171)]",298.93581550732836,"[6, 7, 5, 2, 3, 9, 8, 4, 1]","(0, 0.25)",THI011B,THI,B,English,Fri Aug 31 09:58:19 2018,Mouse
1,2,2,0,45,6,3,0,-1169,1059,110,136,0,500,200,8000,"[(960, 540), (960, 540), (960, 540), (960, 540), (960, 540), (960, 540), (960, 540), (960, 540), (960, 540), (960, 540), (960, 540), (960, 540), (960, 540), (960, 540), (960, 540), (960, 540), (960, 540), (960, 540), (960, 540), (960, 540), (960, 540), (960, 540), (960, 540), (960, 540), (960, 540), (960, 540), (960, 540), (960, 540), (960, 540), (960, 540), (960, 540), (960, 540), (960, 540), (960, 540), (960, 540), (960, 540), (960, 540), (960, 540), (960, 540), (960, 540), (960, 540), (960, 540), (960, 540), (960, 540), (960, 540), (960, 540), (960, 540), (960, 540), (960, 540), (960, 540), (960, 540), (960, 540), (960, 540), (960, 540), (960, 540), (960, 540), (960, 540), (960, 540), (960, 540), (960, 540), (960, 540), (960, 540), (960, 540), (960, 540), (960, 540), (960, 540), (960, 540), (960, 540), (960, 540), (960, 540), (960, 540), (960, 540), (960, 540), (960, 540), (960, 540), (960, 540), (960, 540), (960, 540), (960, 540), (960, 540), (960, 540), (960, 540), (960, 540), (960, 540), (960, 540), (960, 540), (960, 540), (960, 540), (960, 540), (960, 540), (960, 540), (960, 540), (960, 540), (960, 540), (960, 540), (960, 540), (960, 540), (960, 540), (960, 540), (960, 540), (960, 540), (960, 540), (960, 540), (960, 540), (960, 540), (958, 542), (952, 544), (944, 546), (924, 550), (908, 552), (891, 553), (856, 557), (767, 557), (720, 557), (681, 557), (637, 557), (554, 557)]",177.60231623419241,"[6, 7, 5, 2, 3, 9, 8, 4, 1]","(0, 0.25)",THI011B,THI,B,English,Fri Aug 31 09:58:19 2018,Mouse
1,2,2,0,46,7,7,1,1229,249,980,137,0,500,200,8000,"[(960, 540), (960, 540), (960, 540), (960, 540), (960, 540), (960, 540), (960, 540), (960, 540), (960, 540), (960, 540), (960, 540), (960, 540), (960, 540), (960, 540), (960, 540), (960, 540), (960, 540), (960, 540), (960, 540), (960, 540), (960, 540), (960, 540), (960, 540), (960, 540), (961, 540), (961, 540), (961, 541), (961, 541), (961, 541), (961, 541), (961, 542), (961, 542), (961, 542), (961, 542), (961, 542), (961, 542), (961, 542), (961, 542), (961, 542), (961, 542), (961, 542), (961, 542), (961, 542), (961, 542), (961, 542), (961, 542), (961, 542), (961, 542), (961, 542), (961, 542), (961, 542), (961, 542), (961, 542), (961, 542), (961, 542), (961, 542), (961, 542), (961, 542), (961, 543), (960, 544), (959, 545), (959, 548), (957, 550), (956, 550), (954, 552), (954, 552), (954, 554), (954, 554), (954, 554), (954, 554), (954, 554), (954, 554), (954, 554), (954, 554), (954, 554), (954, 554), (954, 554), (954, 554), (954, 554), (954, 554), (954, 554), (954, 554), (954, 554), (954, 554), (954, 554), (954, 554), (954, 554), (954, 554), (954, 554), (954, 554), (954, 554), (954, 554), (954, 554), (954, 554), (954, 554), (954, 554), (954, 554), (954, 554), (954, 554), (954, 554), (954, 554), (954, 554), (954, 554), (954, 554), (954, 554), (954, 554), (954, 555), (954, 558), (955, 559), (957, 562), (966, 577), (973, 586), (981, 598), (991, 613), (1018, 650), (1035, 678), (1052, 703), (1068, 725), (1106, 779), (1120, 808), (1141, 834), (1163, 857), (1197, 896)]",56.347089264863875,"[6, 7, 5, 2, 3, 9, 8, 4, 1]","(0, 0.25)",THI011B,THI,B,English,Fri Aug 31 09:58:19 2018,Mouse
1,2,2,0,47,7,3,0,-879,729,150,137,0,500,200,8000,"[(960, 540), (960, 540), (960, 540), (960, 540), (960, 540), (960, 540), (960, 540), (960, 540), (960, 540), (960, 540), (960, 540), (960, 540), (960, 540), (960, 540), (960, 540), (960, 540), (960, 540), (960, 540), (960, 540), (960, 540), (960, 540), (960, 540), (960, 540), (960, 540), (960, 540), (960, 540), (960, 540), (960, 540), (960, 540), (960, 540), (960, 540), (960, 540), (960, 540), (960, 540), (960, 540), (960, 540), (960, 540), (960, 540), (960, 540), (960, 540), (960, 540), (960, 540), (960, 540), (960, 540), (960, 540), (960, 540), (960, 540), (960, 540), (960, 540), (960, 540), (960, 540), (960, 540), (960, 540), (960, 540), (960, 540), (960, 540), (960, 540), (960, 540), (960, 540), (960, 540), (960, 540), (960, 540), (960, 540), (960, 540), (960, 540), (960, 540), (960, 540), (960, 540), (960, 540), (960, 540), (960, 540), (960, 540), (960, 539), (960, 539), (956, 539), (953, 539), (947, 540), (939, 541), (912, 541), (889, 541), (856, 541), (817, 541), (734, 541), (703, 541), (672, 541), (642, 541), (583, 541), (554, 537)]",180.42336012391135,"[6, 7, 5, 2, 3, 9, 8, 4, 1]","(0, 0.25)",THI011B,THI,B,English,Fri Aug 31 09:58:19 2018,Mouse
1,2,2,0,48,2,2,1,390,60,330,138,0,500,200,8000,"[(960, 541), (960, 541), (960, 541), (960, 541), (960, 541), (960, 543), (959, 545), (959, 545), (959, 547), (956, 550), (956, 551), (954, 556), (953, 558), (947, 567), (944, 573), (940, 578), (937, 583), (928, 596), (924, 601), (922, 603), (918, 607), (910, 618), (903, 624), (895, 630), (883, 635), (862, 645), (851, 649), (843, 653), (837, 656), (818, 669), (808, 679), (796, 688), (786, 698), (757, 727), (739, 748), (724, 765), (708, 784), (680, 808), (667, 818)]",136.50479698110848,"[6, 7, 5, 2, 3, 9, 8, 4, 1]","(0, 0.25)",THI011B,THI,B,English,Fri Aug 31 09:58:19 2018,Mouse
1,2,2,0,49,9,9,1,959,769,190,138,0,500,200,8000,"[(960, 540), (960, 540), (960, 540), (960, 540), (960, 540), (960, 540), (960, 540), (960, 540), (960, 540), (960, 540), (960, 540), (960, 540), (960, 540), (960, 540), (960, 540), (960, 540), (960, 540), (960, 540), (960, 540), (960, 540), (960, 540), (960, 540), (960, 540), (960, 540), (960, 540), (960, 540), (960, 540), (960, 540), (960, 540), (960, 540), (960, 540), (960, 540), (960, 540), (960, 540), (960, 540), (960, 540), (960, 540), (960, 540), (960, 540), (960, 540), (960, 540), (960, 540), (960, 540), (960, 540), (960, 540), (960, 540), (960, 540), (960, 540), (960, 540), (960, 540), (960, 540), (960, 540), (960, 540), (960, 540), (960, 540), (960, 540), (960, 540), (960, 540), (960, 540), (960, 540), (960, 540), (960, 540), (960, 540), (960, 540), (960, 540), (960, 540), (960, 540), (960, 540), (960, 540), (960, 540), (960, 540), (960, 540), (960, 540), (960, 540), (960, 540), (960, 540), (960, 541), (958, 543), (958, 543), (954, 543), (948, 542), (944, 541), (937, 540), (921, 533), (908, 525), (889, 515), (865, 501), (815, 469), (789, 451), (761, 431), (740, 412), (698, 371), (680, 353), (660, 332), (642, 313), (608, 274)]",217.0776783469993,"[6, 7, 5, 2, 3, 9, 8, 4, 1]","(0, 0.25)",THI011B,THI,B,English,Fri Aug 31 09:58:19 2018,Mouse
1,2,2,0,50,3,3,1,830,680,150,137,0,500,200,8000,"[(960, 540), (960, 540), (960, 540), (960, 540), (960, 540), (960, 540), (960, 540), (960, 540), (960, 540), (960, 540), (960, 540), (960, 540), (960, 540), (960, 540), (960, 540), (960, 540), (960, 540), (960, 540), (960, 540), (960, 540), (960, 540), (960, 540), (960, 540), (960, 540), (960, 540), (960, 540), (960, 540), (960, 540), (960, 540), (960, 540), (960, 540), (960, 540), (960, 540), (960, 540), (960, 540), (960, 540), (960, 540), (960, 540), (960, 540), (960, 540), (960, 540), (960, 540), (960, 540), (960, 540), (960, 540), (960, 540), (960, 540), (960, 540), (960, 540), (960, 540), (960, 540), (960, 540), (960, 540), (960, 540), (960, 540), (960, 540), (960, 540), (960, 540), (960, 540), (960, 540), (960, 540), (960, 540), (960, 540), (960, 540), (960, 540), (960, 540), (960, 540), (960, 541), (958, 542), (955, 544), (950, 545), (944, 549), (935, 550), (912, 554), (895, 556), (875, 557), (849, 557), (785, 557), (749, 557), (708, 557), (671, 557), (577, 557), (535, 557)]",177.70938995736148,"[6, 7, 5, 2, 3, 9, 8, 4, 1]","(0, 0.25)",THI011B,THI,B,English,Fri Aug 31 09:58:19 2018,Mouse
1,2,2,0,51,8,3,0,-1720,1590,130,136,0,500,200,8000,"[(960, 540), (960, 540), (960, 540), (960, 540), (960, 540), (960, 540), (960, 540), (960, 540), (960, 540), (960, 540), (960, 540), (960, 540), (960, 540), (960, 540), (960, 540), (960, 540), (960, 540), (960, 540), (960, 540), (960, 540), (960, 540), (960, 540), (960, 540), (960, 540), (960, 540), (960, 540), (960, 540), (960, 540), (960, 540), (960, 540), (960, 540), (960, 540), (960, 540), (960, 540), (960, 540), (960, 540), (960, 540), (960, 540), (960, 540), (960, 540), (960, 540), (960, 540), (960, 540), (960, 540), (960, 540), (960, 540), (960, 540), (960, 540), (960, 540), (960, 540), (960, 540), (960, 540), (960, 540), (960, 540), (960, 540), (960, 540), (960, 540), (960, 540), (960, 540), (960, 540), (960, 540), (960, 540), (960, 540), (960, 540), (960, 540), (960, 540), (960, 540), (960, 540), (960, 540), (960, 540), (960, 540), (960, 540), (960, 540), (960, 540), (960, 540), (960, 540), (960, 540), (960, 540), (960, 540), (960, 540), (960, 540), (960, 540), (960, 540), (960, 540), (960, 540), (960, 540), (960, 540), (960, 540), (960, 540), (960, 540), (960, 540), (960, 540), (960, 540), (960, 540), (960, 540), (960, 540), (960, 540), (960, 540), (960, 540), (960, 540), (960, 540), (960, 540), (960, 540), (960, 540), (960, 540), (960, 540), (960, 540), (960, 540), (960, 540), (960, 540), (960, 540), (960, 540), (960, 540), (960, 540), (960, 540), (960, 540), (960, 540), (960, 540), (960, 540), (960, 540), (960, 540), (960, 540), (960, 540), (960, 540), (960, 540), (960, 540), (960, 540), (960, 540), (960, 540), (960, 540), (960, 540), (960, 540), (960, 540), (960, 540), (960, 540), (960, 540), (960, 540), (960, 540), (960, 540), (960, 540), (960, 540), (960, 540), (960, 540), (960, 540), (960, 540), (960, 540), (960, 540), (960, 540), (960, 540), (960, 540), (960, 540), (960, 540), (960, 540), (960, 540), (960, 540), (960, 540), (960, 540), (960, 540), (961, 540), (959, 543), (949, 546), (936, 550), (891, 553), (857, 553), (818, 553), (785, 553), (721, 553), (693, 553), (654, 553), (629, 553), (565, 553), (529, 553)]",178.27234483213599,"[6, 7, 5, 2, 3, 9, 8, 4, 1]","(0, 0.25)",THI011B,THI,B,English,Fri Aug 31 09:58:19 2018,Mouse
1,2,2,0,52,1,1,1,419,249,170,137,0,500,200,8000,"[(960, 540), (960, 540), (960, 540), (960, 540), (960, 540), (960, 540), (960, 540), (960, 540), (960, 540), (960, 540), (960, 540), (960, 540), (960, 540), (960, 540), (960, 540), (960, 540), (960, 540), (960, 540), (960, 540), (960, 540), (960, 540), (960, 540), (960, 540), (960, 540), (963, 540), (972, 540), (982, 540), (993, 540), (1004, 538), (1029, 535), (1046, 532), (1060, 530), (1075, 526), (1114, 522), (1136, 518), (1161, 510), (1186, 502), (1237, 488), (1259, 480), (1285, 472), (1310, 465), (1352, 453)]",347.48666927035134,"[6, 7, 5, 2, 3, 9, 8, 4, 1]","(0, 0.25)",THI011B,THI,B,English,Fri Aug 31 09:58:19 2018,Mouse
1,2,2,0,53,1,1,1,329,149,180,137,0,500,200,8000,"[(960, 540), (960, 540), (960, 540), (960, 540), (960, 540), (960, 540), (960, 540), (960, 540), (960, 540), (960, 540), (960, 540), (960, 540), (960, 540), (960, 540), (962, 540), (963, 540), (963, 540), (965, 539), (971, 536), (977, 534), (987, 532), (999, 529), (1029, 522), (1049, 516), (1071, 510), (1093, 506), (1154, 489), (1184, 480), (1216, 468), (1246, 461), (1305, 443), (1333, 435), (1357, 430)]",344.51311338698514,"[6, 7, 5, 2, 3, 9, 8, 4, 1]","(0, 0.25)",THI011B,THI,B,English,Fri Aug 31 09:58:19 2018,Mouse
1,2,2,0,54,7,3,0,-2852,2652,200,136,0,500,200,8000,"[(960, 540), (960, 540), (960, 540), (960, 540), (960, 540), (960, 540), (960, 540), (960, 540), (960, 540), (960, 540), (960, 540), (960, 540), (960, 540), (960, 540), (960, 540), (960, 540), (960, 540), (960, 540), (960, 540), (960, 540), (960, 540), (960, 540), (960, 540), (960, 540), (960, 540), (960, 540), (960, 540), (960, 540), (960, 540), (960, 540), (960, 540), (960, 540), (960, 540), (960, 540), (960, 540), (960, 540), (960, 540), (960, 540), (960, 540), (960, 540), (960, 540), (960, 540), (960, 540), (960, 540), (960, 540), (960, 540), (960, 540), (960, 540), (960, 540), (960, 540), (960, 540), (960, 540), (960, 540), (960, 540), (960, 540), (960, 540), (960, 540), (960, 540), (960, 540), (960, 540), (960, 540), (960, 540), (960, 540), (960, 540), (960, 540), (960, 540), (960, 540), (960, 540), (960, 540), (960, 540), (960, 540), (960, 540), (960, 540), (960, 540), (960, 540), (960, 540), (960, 540), (960, 540), (960, 540), (960, 540), (960, 540), (960, 540), (960, 540), (960, 540), (960, 540), (960, 540), (960, 540), (960, 540), (960, 540), (960, 540), (960, 540), (960, 540), (960, 540), (960, 540), (960, 540), (960, 540), (960, 540), (960, 540), (960, 540), (960, 540), (960, 540), (960, 540), (960, 540), (960, 540), (960, 540), (960, 540), (960, 540), (960, 540), (960, 540), (960, 540), (960, 540), (960, 540), (960, 540), (960, 540), (960, 540), (960, 540), (960, 540), (960, 540), (960, 540), (960, 540), (960, 540), (960, 540), (960, 540), (960, 540), (960, 540), (960, 540), (960, 540), (960, 540), (960, 540), (960, 540), (960, 540), (960, 540), (960, 540), (960, 540), (960, 540), (960, 540), (960, 540), (960, 540), (960, 540), (960, 540), (960, 540), (960, 540), (960, 540), (960, 540), (960, 540), (960, 540), (960, 540), (960, 540), (960, 540), (960, 540), (960, 540), (960, 540), (960, 540), (960, 540), (960, 540), (960, 540), (960, 540), (960, 540), (960, 540), (960, 540), (960, 540), (960, 540), (960, 540), (960, 540), (960, 540), (960, 540), (960, 540), (960, 540), (960, 540), (960, 540), (960, 540), (960, 540), (960, 540), (960, 540), (960, 540), (960, 540), (960, 540), (960, 540), (960, 540), (960, 540), (960, 540), (960, 540), (960, 540), (960, 540), (960, 540), (960, 540), (960, 540), (960, 540), (960, 540), (960, 540), (960, 540), (960, 540), (960, 540), (960, 540), (960, 540), (960, 540), (960, 540), (960, 540), (960, 540), (960, 540), (960, 540), (960, 540), (960, 540), (960, 540), (960, 540), (960, 540), (960, 540), (960, 540), (960, 540), (960, 540), (960, 540), (960, 540), (960, 540), (960, 540), (960, 540), (960, 540), (960, 540), (960, 540), (960, 540), (960, 540), (960, 540), (960, 540), (960, 540), (960, 540), (960, 540), (960, 540), (960, 540), (960, 540), (960, 540), (960, 540), (960, 540), (960, 540), (960, 540), (960, 540), (960, 540), (960, 540), (960, 540), (960, 540), (960, 540), (960, 540), (960, 540), (960, 540), (960, 540), (960, 540), (960, 540), (960, 540), (960, 540), (960, 540), (960, 540), (960, 540), (960, 540), (960, 540), (960, 540), (960, 540), (960, 540), (960, 540), (960, 540), (960, 540), (960, 540), (960, 540), (960, 540), (960, 540), (960, 540), (960, 540), (960, 540), (957, 541), (956, 542), (953, 543), (950, 543), (939, 545), (928, 546), (916, 548), (905, 549), (878, 549), (862, 549), (839, 549), (822, 549), (769, 549), (747, 549), (722, 549), (699, 549), (649, 549), (625, 547), (607, 545), (586, 540), (557, 537)]",180.42651157211426,"[6, 7, 5, 2, 3, 9, 8, 4, 1]","(0, 0.25)",THI011B,THI,B,English,Fri Aug 31 09:58:19 2018,Mouse
1,2,2,0,55,3,3,1,350,260,90,137,0,500,200,8000,"[(960, 540), (960, 540), (960, 540), (960, 540), (960, 540), (960, 540), (960, 540), (960, 540), (960, 540), (960, 540), (960, 540), (960, 540), (960, 540), (960, 540), (960, 540), (960, 540), (960, 540), (960, 540), (960, 540), (960, 540), (960, 540), (960, 540), (960, 540), (960, 540), (960, 540), (960, 541), (950, 544), (940, 546), (923, 547), (899, 552), (815, 552), (766, 552), (705, 552), (645, 545), (523, 526)]",181.83493514353054,"[6, 7, 5, 2, 3, 9, 8, 4, 1]","(0, 0.25)",THI011B,THI,B,English,Fri Aug 31 09:58:19 2018,Mouse
1,2,2,0,56,5,4,0,-918,818,100,137,0,500,200,8000,"[(960, 540), (960, 540), (960, 540), (960, 540), (960, 540), (960, 540), (960, 540), (960, 540), (960, 540), (960, 540), (960, 540), (960, 540), (960, 540), (960, 540), (960, 540), (960, 540), (960, 540), (960, 540), (960, 540), (960, 540), (960, 540), (960, 540), (960, 540), (960, 540), (960, 540), (960, 540), (960, 540), (960, 540), (960, 540), (960, 540), (960, 540), (960, 540), (960, 540), (960, 540), (960, 540), (960, 540), (960, 540), (960, 540), (960, 540), (960, 540), (960, 540), (960, 540), (960, 540), (960, 540), (960, 540), (960, 540), (960, 540), (960, 540), (960, 540), (960, 540), (960, 540), (960, 540), (960, 540), (960, 540), (960, 540), (960, 540), (960, 540), (960, 540), (960, 540), (960, 540), (960, 540), (960, 540), (960, 540), (960, 540), (960, 540), (960, 540), (960, 540), (960, 540), (960, 540), (960, 540), (960, 540), (960, 540), (960, 540), (960, 540), (960, 540), (960, 540), (960, 540), (960, 540), (960, 540), (960, 540), (960, 540), (962, 540), (966, 540), (973, 531), (992, 494), (1008, 465), (1017, 442), (1031, 410), (1065, 309), (1084, 259), (1102, 208), (1122, 160)]",293.08931706791714,"[6, 7, 5, 2, 3, 9, 8, 4, 1]","(0, 0.25)",THI011B,THI,B,English,Fri Aug 31 09:58:19 2018,Mouse
1,2,2,0,57,2,2,1,409,19,390,138,0,500,200,8000,"[(957, 545), (953, 550), (947, 556), (935, 571), (929, 582), (920, 592), (913, 598), (899, 613), (894, 621), (891, 625), (887, 631), (882, 638), (882, 638), (882, 640), (882, 641), (882, 642), (882, 642), (882, 642), (882, 642), (882, 642), (882, 642), (882, 642), (882, 642), (882, 642), (882, 642), (882, 642), (882, 642), (882, 642), (880, 642), (877, 642), (873, 647), (859, 656), (850, 662), (840, 669), (827, 676), (791, 697), (764, 712), (735, 726), (706, 738), (645, 764), (622, 775)]",145.19041350774435,"[6, 7, 5, 2, 3, 9, 8, 4, 1]","(0, 0.25)",THI011B,THI,B,English,Fri Aug 31 09:58:19 2018,Mouse
