NativeLangNumber,LanuageNumber,SessionNumber,Block,TrialNum,ConditionNumber,Response,Accuracy,RT,MovementOnsetTime,TimeInMotion,SignalContrast,SignalContrastNumber,StimDisplayTime,MaskTime,MaxResponseTime,MousePositionXY,MouseAngle,WheelOrder,NoiseMuSigma,ParticipantID,LanuageTested,SessionTested,NativeLanuage,Date,ResponseDevice
2,2,3,0,1,3,3,1,829,429,400,153,0,500,200,8000,"[(512, 384), (512, 384), (512, 384), (512, 384), (512, 384), (512, 384), (512, 384), (512, 384), (512, 384), (512, 384), (512, 384), (512, 384), (512, 384), (512, 384), (512, 384), (512, 384), (512, 384), (512, 384), (512, 384), (512, 384), (512, 384), (512, 384), (512, 384), (512, 384), (512, 384), (512, 384), (512, 384), (512, 384), (512, 384), (512, 384), (512, 384), (512, 384), (512, 384), (512, 384), (512, 384), (512, 384), (512, 384), (512, 384), (512, 384), (512, 384), (512, 384), (512, 384), (511, 384), (510, 384), (508, 384), (508, 384), (507, 384), (505, 384), (504, 382), (504, 382), (501, 381), (498, 380), (493, 378), (493, 377), (485, 373), (480, 370), (475, 368), (467, 366), (459, 363), (455, 360), (450, 357), (446, 354), (442, 350), (438, 347), (435, 343), (433, 341), (423, 331), (416, 324), (409, 320), (400, 313), (386, 301), (380, 294), (375, 288), (369, 282), (358, 268), (352, 261), (347, 256), (343, 251), (334, 242), (331, 238), (327, 234), (322, 230), (316, 224)]",219.22567409733674,"[4, 9, 5, 2, 7, 3, 8, 1, 6]","(0, 0.25)",THI005C,THI,C,Chinese,Fri Aug 17 13:00:47 2018,Mouse
2,2,3,0,2,4,4,1,1422,351,1071,153,0,500,200,8000,"[(512, 384), (512, 384), (512, 384), (512, 384), (512, 384), (512, 384), (512, 384), (512, 384), (512, 384), (512, 384), (512, 384), (512, 384), (512, 384), (512, 384), (512, 384), (512, 384), (512, 384), (512, 384), (512, 384), (512, 384), (512, 384), (512, 384), (512, 384), (512, 384), (512, 384), (512, 384), (512, 384), (512, 384), (512, 384), (512, 384), (512, 384), (512, 384), (512, 384), (512, 384), (512, 384), (512, 385), (512, 385), (512, 385), (512, 385), (512, 386), (512, 386), (512, 387), (512, 387), (512, 387), (512, 388), (512, 389), (512, 390), (512, 390), (512, 390), (512, 391), (512, 391), (512, 392), (512, 393), (512, 393), (512, 393), (512, 393), (512, 394), (512, 395), (512, 395), (512, 396), (512, 397), (512, 397), (513, 398), (513, 398), (513, 399), (513, 400), (514, 401), (514, 401), (514, 402), (515, 403), (515, 403), (515, 403), (515, 403), (515, 403), (515, 403), (515, 403), (515, 405), (515, 405), (515, 405), (515, 405), (515, 405), (516, 406), (516, 406), (517, 406), (517, 406), (517, 406), (517, 406), (517, 406), (517, 406), (517, 406), (517, 406), (517, 406), (518, 406), (519, 406), (520, 406), (522, 406), (525, 406), (527, 407), (528, 407), (528, 407), (528, 407), (530, 407), (530, 407), (531, 407), (532, 407), (533, 407), (534, 407), (535, 407), (538, 408), (539, 408), (540, 408), (540, 408), (543, 408), (543, 408), (545, 409), (548, 410), (552, 410), (555, 410), (560, 412), (562, 412), (567, 414), (570, 415), (573, 416), (576, 417), (579, 418), (583, 419), (586, 420), (588, 420), (595, 422), (600, 425), (606, 426), (613, 427), (629, 431), (637, 433), (647, 437), (658, 441), (674, 445), (683, 449), (691, 454), (704, 457), (725, 465), (736, 468), (747, 470)]",20.10047565683416,"[4, 9, 5, 2, 7, 3, 8, 1, 6]","(0, 0.25)",THI005C,THI,C,Chinese,Fri Aug 17 13:00:47 2018,Mouse
2,2,3,0,3,6,6,1,852,592,260,152,0,500,200,8000,"[(512, 384), (512, 384), (512, 384), (512, 384), (512, 384), (512, 384), (512, 384), (512, 384), (512, 384), (512, 384), (512, 384), (512, 384), (512, 384), (512, 384), (512, 384), (512, 384), (512, 384), (512, 384), (512, 384), (512, 384), (512, 384), (512, 384), (512, 384), (512, 384), (512, 384), (512, 384), (512, 384), (512, 384), (512, 384), (512, 384), (512, 384), (512, 384), (512, 384), (512, 384), (512, 384), (512, 384), (512, 384), (512, 384), (512, 384), (512, 384), (512, 384), (512, 384), (512, 384), (512, 384), (512, 384), (512, 384), (512, 384), (512, 384), (512, 384), (512, 384), (512, 384), (512, 384), (512, 384), (512, 384), (512, 384), (512, 384), (512, 384), (512, 384), (512, 384), (512, 385), (513, 385), (517, 385), (525, 385), (531, 384), (540, 383), (550, 382), (572, 378), (581, 377), (590, 375), (598, 372), (615, 368), (619, 366), (624, 365), (627, 362), (638, 356), (645, 352), (651, 350), (661, 346), (680, 339), (691, 335), (702, 331), (713, 329), (733, 324), (743, 320), (750, 318), (756, 314)]",343.9925957039002,"[4, 9, 5, 2, 7, 3, 8, 1, 6]","(0, 0.25)",THI005C,THI,C,Chinese,Fri Aug 17 13:00:47 2018,Mouse
2,2,3,0,4,4,4,1,776,296,480,151,0,500,200,8000,"[(512, 384), (512, 384), (512, 384), (512, 384), (512, 384), (512, 384), (512, 384), (512, 384), (512, 384), (512, 384), (512, 384), (512, 384), (512, 384), (512, 384), (512, 384), (512, 384), (512, 384), (512, 384), (512, 384), (512, 384), (512, 384), (512, 384), (512, 384), (512, 384), (512, 384), (512, 384), (512, 384), (512, 384), (512, 384), (513, 386), (514, 386), (517, 389), (519, 390), (521, 391), (521, 392), (522, 393), (524, 394), (526, 396), (528, 397), (531, 399), (535, 401), (538, 402), (539, 404), (541, 404), (544, 404), (546, 404), (546, 405), (546, 405), (548, 406), (549, 408), (551, 409), (553, 410), (565, 416), (570, 417), (576, 420), (581, 422), (594, 425), (599, 426), (603, 429), (607, 431), (617, 435), (623, 438), (628, 440), (637, 443), (656, 451), (667, 456), (678, 461), (685, 463), (703, 467), (709, 470), (714, 471), (717, 472), (722, 475), (722, 475), (726, 479), (728, 480), (739, 485), (743, 487)]",24.031492288683413,"[4, 9, 5, 2, 7, 3, 8, 1, 6]","(0, 0.25)",THI005C,THI,C,Chinese,Fri Aug 17 13:00:47 2018,Mouse
2,2,3,0,5,7,7,1,1321,251,1070,150,0,500,200,8000,"[(512, 384), (512, 384), (512, 384), (512, 384), (512, 384), (512, 384), (512, 384), (512, 384), (512, 384), (512, 384), (512, 384), (512, 384), (512, 384), (512, 384), (512, 384), (512, 384), (512, 384), (512, 384), (512, 384), (512, 384), (512, 384), (512, 384), (512, 384), (512, 384), (512, 384), (512, 385), (512, 385), (512, 385), (512, 385), (512, 385), (512, 385), (512, 385), (512, 385), (512, 385), (512, 385), (512, 385), (512, 385), (512, 385), (512, 385), (510, 385), (510, 385), (510, 385), (510, 385), (510, 385), (510, 385), (509, 385), (509, 385), (508, 384), (508, 384), (508, 384), (508, 384), (507, 384), (507, 384), (507, 384), (507, 384), (507, 384), (507, 384), (507, 384), (507, 384), (507, 384), (506, 384), (506, 384), (506, 384), (506, 384), (506, 384), (506, 384), (506, 384), (506, 384), (506, 384), (506, 384), (506, 384), (506, 384), (506, 384), (504, 384), (504, 384), (503, 384), (503, 384), (501, 384), (501, 384), (499, 384), (499, 384), (499, 384), (499, 384), (499, 385), (498, 385), (498, 385), (498, 385), (498, 385), (498, 385), (498, 385), (498, 385), (498, 385), (498, 385), (498, 385), (498, 385), (498, 385), (498, 385), (498, 385), (498, 385), (498, 385), (498, 385), (497, 385), (496, 385), (495, 385), (494, 385), (493, 387), (492, 387), (490, 387), (488, 387), (487, 387), (485, 387), (480, 388), (477, 388), (474, 388), (470, 388), (461, 389), (455, 391), (449, 391), (440, 391), (423, 391), (413, 391), (403, 391), (393, 391), (371, 391), (360, 391), (352, 391), (343, 391), (327, 391), (318, 391), (307, 391), (296, 391), (273, 391), (259, 391)]",178.4151456069495,"[4, 9, 5, 2, 7, 3, 8, 1, 6]","(0, 0.25)",THI005C,THI,C,Chinese,Fri Aug 17 13:00:47 2018,Mouse
2,2,3,0,6,1,1,1,1371,381,990,149,0,500,200,8000,"[(512, 384), (512, 384), (512, 384), (512, 384), (512, 384), (512, 384), (512, 384), (512, 384), (512, 384), (512, 384), (512, 384), (512, 384), (512, 384), (512, 384), (512, 384), (512, 384), (512, 384), (512, 384), (512, 384), (512, 384), (512, 384), (512, 384), (512, 384), (512, 384), (512, 384), (512, 384), (512, 384), (512, 384), (512, 384), (512, 384), (512, 384), (512, 384), (512, 384), (512, 384), (512, 384), (512, 384), (512, 384), (512, 384), (512, 385), (512, 385), (512, 385), (512, 385), (512, 385), (512, 385), (512, 387), (512, 387), (512, 387), (512, 387), (512, 387), (512, 387), (512, 387), (513, 387), (515, 387), (516, 387), (518, 387), (519, 387), (521, 387), (521, 387), (521, 387), (522, 387), (522, 387), (522, 387), (522, 387), (524, 387), (525, 387), (525, 387), (525, 387), (527, 387), (528, 387), (528, 387), (529, 387), (530, 386), (531, 386), (531, 386), (533, 385), (533, 385), (533, 384), (533, 384), (535, 384), (535, 384), (535, 384), (535, 383), (535, 383), (535, 382), (536, 382), (536, 382), (537, 381), (537, 381), (537, 381), (537, 381), (538, 378), (538, 378), (538, 378), (538, 378), (538, 378), (538, 378), (538, 378), (538, 378), (539, 377), (539, 377), (539, 377), (539, 376), (539, 376), (540, 375), (540, 375), (540, 374), (541, 374), (541, 374), (542, 373), (542, 373), (542, 372), (544, 369), (545, 367), (546, 366), (548, 363), (553, 355), (554, 352), (558, 347), (561, 341), (568, 330), (572, 324), (576, 317), (578, 312), (587, 299), (590, 293), (594, 286), (599, 280), (608, 260), (611, 251), (616, 242), (620, 232), (628, 215), (631, 208), (635, 199), (638, 193), (645, 180), (647, 175), (650, 170)]",302.81634341401264,"[4, 9, 5, 2, 7, 3, 8, 1, 6]","(0, 0.25)",THI005C,THI,C,Chinese,Fri Aug 17 13:00:47 2018,Mouse
2,2,3,0,7,5,5,1,2525,334,2191,148,0,500,200,8000,"[(512, 384), (512, 384), (512, 384), (512, 384), (512, 384), (512, 384), (512, 384), (512, 384), (512, 384), (512, 384), (512, 384), (512, 384), (512, 384), (512, 384), (512, 384), (512, 384), (512, 384), (512, 384), (512, 384), (512, 384), (512, 384), (512, 384), (512, 384), (512, 384), (512, 384), (512, 384), (512, 384), (512, 384), (512, 384), (512, 384), (512, 384), (512, 384), (512, 384), (511, 386), (510, 387), (510, 387), (510, 387), (508, 389), (508, 389), (508, 389), (507, 389), (507, 390), (507, 390), (507, 390), (506, 390), (506, 390), (506, 390), (506, 390), (504, 390), (503, 391), (503, 391), (503, 391), (502, 391), (502, 391), (502, 391), (502, 391), (502, 391), (502, 391), (502, 391), (502, 391), (502, 391), (502, 391), (502, 391), (502, 391), (502, 391), (502, 391), (502, 391), (502, 391), (502, 391), (502, 391), (502, 391), (502, 391), (502, 391), (502, 391), (502, 391), (502, 391), (502, 391), (502, 391), (502, 391), (502, 391), (502, 391), (502, 391), (502, 391), (502, 391), (502, 391), (502, 391), (502, 391), (502, 391), (502, 391), (502, 391), (502, 391), (502, 391), (502, 391), (502, 391), (502, 391), (502, 391), (502, 391), (502, 391), (502, 391), (502, 391), (502, 391), (502, 391), (502, 391), (502, 391), (502, 391), (502, 391), (502, 391), (502, 391), (502, 391), (502, 391), (502, 391), (502, 391), (502, 391), (502, 391), (502, 391), (502, 391), (502, 391), (502, 391), (502, 391), (502, 391), (502, 391), (502, 391), (502, 391), (502, 391), (502, 391), (502, 391), (502, 391), (502, 391), (502, 391), (502, 391), (502, 391), (502, 391), (502, 391), (502, 391), (502, 391), (502, 391), (502, 391), (502, 391), (502, 391), (502, 391), (502, 391), (502, 391), (502, 391), (502, 391), (502, 391), (502, 391), (502, 391), (502, 391), (502, 391), (502, 391), (502, 391), (502, 391), (502, 391), (502, 391), (502, 391), (502, 391), (502, 391), (502, 391), (502, 391), (502, 391), (502, 391), (502, 391), (502, 391), (502, 391), (502, 391), (502, 391), (502, 391), (502, 391), (502, 391), (502, 391), (502, 391), (502, 391), (502, 391), (502, 391), (502, 391), (502, 391), (502, 391), (502, 391), (502, 391), (502, 391), (502, 391), (502, 391), (502, 391), (502, 391), (502, 391), (502, 391), (502, 391), (502, 391), (502, 391), (502, 391), (502, 391), (502, 391), (502, 391), (502, 391), (502, 391), (502, 391), (502, 391), (502, 391), (502, 391), (502, 391), (502, 391), (502, 391), (502, 391), (502, 391), (502, 391), (502, 391), (502, 391), (502, 392), (502, 393), (498, 402), (498, 407), (494, 417), (493, 422), (489, 436), (488, 442), (487, 446), (484, 450), (483, 457), (483, 459), (480, 464), (480, 466), (479, 470), (479, 473), (477, 476), (476, 478), (475, 484), (474, 489), (474, 493), (474, 497), (472, 507), (471, 515), (467, 524), (466, 529), (464, 542), (463, 550), (463, 553), (463, 557), (463, 566), (463, 570), (463, 574), (463, 579), (463, 585), (463, 586), (463, 589), (463, 590), (463, 595), (463, 598), (463, 601), (463, 604), (463, 614), (463, 618), (463, 623), (463, 630)]",101.26513515749325,"[4, 9, 5, 2, 7, 3, 8, 1, 6]","(0, 0.25)",THI005C,THI,C,Chinese,Fri Aug 17 13:00:47 2018,Mouse
2,2,3,0,8,9,9,1,1443,363,1080,147,0,500,200,8000,"[(512, 384), (512, 384), (512, 384), (512, 384), (512, 384), (512, 384), (512, 384), (512, 384), (512, 384), (512, 384), (512, 384), (512, 384), (512, 384), (512, 384), (512, 384), (512, 384), (512, 384), (512, 384), (512, 384), (512, 384), (512, 384), (512, 384), (512, 384), (512, 384), (512, 384), (512, 384), (512, 384), (512, 384), (512, 384), (512, 384), (512, 384), (512, 384), (512, 384), (512, 384), (512, 384), (512, 384), (512, 383), (512, 383), (512, 382), (512, 382), (512, 381), (512, 380), (512, 380), (512, 380), (511, 378), (511, 378), (511, 378), (511, 378), (510, 377), (508, 377), (507, 376), (507, 376), (505, 375), (505, 375), (505, 375), (504, 375), (504, 375), (504, 375), (504, 375), (504, 375), (504, 375), (504, 375), (504, 375), (504, 375), (504, 375), (504, 375), (504, 375), (504, 375), (504, 375), (504, 375), (504, 375), (504, 375), (504, 375), (504, 375), (504, 375), (504, 375), (504, 375), (504, 375), (504, 375), (504, 375), (504, 375), (504, 375), (504, 375), (504, 375), (504, 375), (504, 375), (504, 375), (504, 375), (504, 375), (504, 375), (504, 375), (504, 375), (504, 376), (504, 377), (504, 378), (504, 379), (504, 381), (504, 381), (504, 381), (504, 382), (504, 382), (504, 382), (504, 382), (504, 382), (504, 383), (504, 383), (504, 384), (504, 384), (504, 384), (504, 385), (504, 385), (504, 386), (504, 387), (504, 388), (504, 390), (505, 392), (506, 395), (509, 399), (511, 403), (513, 407), (523, 419), (528, 424), (534, 431), (539, 436), (552, 446), (561, 454), (568, 461), (576, 467), (591, 481), (598, 489), (603, 494), (608, 499), (614, 508), (617, 510), (617, 512), (618, 514), (621, 522), (623, 529), (626, 538), (629, 548), (638, 567), (640, 574), (645, 582), (648, 589), (651, 599)]",57.11686192912259,"[4, 9, 5, 2, 7, 3, 8, 1, 6]","(0, 0.25)",THI005C,THI,C,Chinese,Fri Aug 17 13:00:47 2018,Mouse
2,2,3,0,9,3,3,1,1242,332,910,146,0,500,200,8000,"[(512, 384), (512, 384), (512, 384), (512, 384), (512, 384), (512, 384), (512, 384), (512, 384), (512, 384), (512, 384), (512, 384), (512, 384), (512, 384), (512, 384), (512, 384), (512, 384), (512, 384), (512, 384), (512, 384), (512, 384), (512, 384), (512, 384), (512, 384), (512, 384), (512, 384), (512, 384), (512, 384), (512, 384), (512, 384), (512, 384), (512, 384), (512, 384), (512, 384), (511, 383), (511, 383), (510, 383), (510, 381), (509, 381), (509, 381), (509, 381), (508, 380), (508, 380), (507, 380), (504, 378), (503, 377), (501, 377), (500, 377), (498, 376), (497, 376), (495, 375), (495, 375), (494, 374), (491, 373), (489, 373), (486, 373), (482, 373), (474, 373), (466, 373), (460, 373), (455, 373), (442, 373), (438, 373), (437, 373), (434, 373), (433, 373), (433, 373), (432, 373), (431, 373), (430, 373), (429, 373), (428, 373), (428, 373), (426, 373), (426, 373), (426, 373), (424, 371), (424, 371), (424, 371), (424, 371), (424, 371), (424, 371), (423, 371), (423, 371), (422, 371), (422, 371), (422, 371), (422, 371), (422, 371), (422, 371), (422, 371), (422, 371), (422, 371), (422, 371), (422, 371), (422, 371), (421, 371), (421, 371), (421, 371), (421, 371), (420, 370), (420, 370), (419, 369), (418, 368), (416, 364), (415, 360), (413, 356), (411, 352), (405, 341), (403, 337), (399, 331), (395, 326), (391, 320), (384, 309), (381, 303), (378, 297), (375, 291), (369, 280), (365, 272), (361, 265), (352, 253), (347, 245), (341, 239), (335, 232), (327, 222), (321, 216)]",221.33424970736962,"[4, 9, 5, 2, 7, 3, 8, 1, 6]","(0, 0.25)",THI005C,THI,C,Chinese,Fri Aug 17 13:00:47 2018,Mouse
2,2,3,0,10,7,7,1,2263,173,2090,145,0,500,200,8000,"[(512, 384), (512, 384), (512, 384), (512, 384), (512, 384), (512, 384), (512, 384), (512, 384), (512, 384), (512, 384), (512, 384), (512, 384), (512, 384), (512, 384), (512, 384), (512, 384), (512, 384), (512, 385), (512, 385), (512, 385), (512, 385), (512, 385), (512, 385), (512, 385), (512, 385), (512, 385), (512, 385), (512, 385), (512, 385), (512, 385), (512, 385), (512, 385), (512, 385), (512, 385), (512, 385), (512, 385), (512, 385), (512, 385), (512, 385), (512, 385), (512, 385), (512, 385), (512, 385), (512, 385), (512, 385), (512, 385), (512, 385), (512, 385), (512, 385), (512, 385), (512, 385), (512, 385), (512, 385), (512, 385), (512, 385), (512, 385), (512, 385), (512, 385), (512, 385), (512, 385), (512, 385), (512, 385), (512, 385), (512, 385), (512, 385), (512, 385), (512, 385), (513, 385), (513, 385), (513, 385), (513, 385), (514, 385), (514, 385), (515, 385), (515, 385), (515, 385), (515, 385), (515, 385), (515, 385), (515, 385), (515, 385), (515, 385), (515, 385), (515, 385), (515, 385), (515, 385), (515, 385), (515, 385), (515, 385), (515, 385), (515, 385), (515, 385), (515, 385), (515, 385), (515, 385), (515, 385), (515, 385), (515, 385), (515, 385), (515, 385), (515, 385), (515, 385), (515, 385), (515, 385), (515, 385), (515, 385), (515, 385), (515, 385), (515, 385), (515, 385), (515, 385), (515, 385), (515, 385), (515, 385), (515, 385), (515, 385), (515, 385), (515, 385), (515, 385), (515, 385), (515, 385), (515, 385), (515, 385), (515, 385), (515, 385), (515, 385), (515, 385), (515, 385), (515, 385), (515, 385), (515, 385), (515, 384), (514, 384), (514, 384), (514, 384), (514, 384), (514, 384), (514, 384), (514, 384), (514, 384), (514, 384), (515, 385), (515, 385), (516, 387), (518, 388), (518, 389), (518, 391), (519, 393), (519, 393), (519, 394), (519, 395), (520, 396), (520, 396), (521, 396), (521, 396), (521, 397), (521, 397), (521, 397), (521, 397), (521, 397), (521, 397), (521, 397), (521, 397), (521, 399), (521, 399), (521, 399), (521, 400), (521, 400), (521, 400), (521, 400), (521, 400), (521, 400), (521, 400), (521, 400), (521, 400), (521, 400), (521, 400), (521, 400), (521, 400), (521, 400), (521, 402), (521, 402), (521, 402), (521, 403), (521, 403), (521, 403), (521, 404), (520, 404), (519, 405), (518, 406), (518, 406), (516, 407), (515, 407), (515, 407), (515, 407), (513, 409), (512, 409), (510, 410), (510, 410), (505, 412), (502, 413), (498, 414), (495, 414), (489, 415), (487, 415), (483, 415), (477, 417), (464, 417), (456, 417), (449, 417), (440, 417), (425, 417), (418, 417), (408, 417), (400, 417), (383, 417), (377, 417), (370, 417), (359, 417), (341, 417), (331, 417), (321, 417), (311, 417), (289, 417), (277, 417), (265, 417), (254, 417)]",172.71104767638988,"[4, 9, 5, 2, 7, 3, 8, 1, 6]","(0, 0.25)",THI005C,THI,C,Chinese,Fri Aug 17 13:00:47 2018,Mouse
2,2,3,0,11,3,3,1,1092,722,370,144,0,500,200,8000,"[(512, 384), (512, 384), (512, 384), (512, 384), (512, 384), (512, 384), (512, 384), (512, 384), (512, 384), (512, 384), (512, 384), (512, 384), (512, 384), (512, 384), (512, 384), (512, 384), (512, 384), (512, 384), (512, 384), (512, 384), (512, 384), (512, 384), (512, 384), (512, 384), (512, 384), (512, 384), (512, 384), (512, 384), (512, 384), (512, 384), (512, 384), (512, 384), (512, 384), (512, 384), (512, 384), (512, 384), (512, 384), (512, 384), (512, 384), (512, 384), (512, 384), (512, 384), (512, 384), (512, 384), (512, 384), (512, 384), (512, 384), (512, 384), (512, 384), (512, 384), (512, 384), (512, 384), (512, 384), (512, 384), (512, 384), (512, 384), (512, 384), (512, 384), (512, 384), (512, 384), (512, 384), (512, 384), (512, 384), (512, 384), (512, 384), (512, 384), (512, 384), (512, 384), (512, 384), (512, 384), (512, 384), (512, 384), (508, 383), (507, 382), (506, 381), (505, 379), (503, 378), (501, 376), (501, 375), (499, 374), (499, 373), (498, 371), (497, 369), (495, 368), (494, 367), (485, 357), (481, 352), (477, 348), (475, 343), (464, 331), (459, 326), (455, 318), (450, 312), (439, 300), (435, 295), (431, 288), (428, 282), (420, 273), (415, 268), (412, 264), (405, 259), (394, 248), (385, 243), (378, 236), (369, 233), (354, 224), (348, 219), (341, 216), (336, 212), (322, 205)]",223.29250140461505,"[4, 9, 5, 2, 7, 3, 8, 1, 6]","(0, 0.25)",THI005C,THI,C,Chinese,Fri Aug 17 13:00:47 2018,Mouse
2,2,3,0,12,1,4,0,-4437,3797,640,143,0,500,200,8000,"[(512, 384), (512, 384), (512, 384), (512, 384), (512, 384), (512, 384), (512, 384), (512, 384), (512, 384), (512, 384), (512, 384), (512, 384), (512, 384), (512, 384), (512, 384), (512, 384), (512, 384), (512, 384), (512, 384), (512, 384), (512, 384), (512, 384), (512, 384), (512, 384), (512, 384), (512, 384), (512, 384), (512, 384), (512, 384), (512, 384), (512, 384), (512, 384), (512, 384), (512, 384), (512, 384), (512, 384), (512, 384), (512, 384), (512, 384), (512, 384), (512, 384), (512, 384), (512, 384), (512, 384), (512, 384), (512, 384), (512, 384), (512, 384), (512, 384), (512, 384), (512, 384), (512, 384), (512, 384), (512, 384), (512, 384), (512, 384), (512, 384), (512, 384), (512, 384), (512, 384), (512, 384), (512, 384), (512, 384), (512, 384), (512, 384), (512, 384), (512, 384), (512, 384), (512, 384), (512, 384), (512, 384), (512, 384), (512, 384), (512, 384), (512, 384), (512, 384), (512, 384), (512, 384), (512, 384), (512, 384), (512, 384), (512, 384), (512, 384), (512, 384), (512, 384), (512, 384), (512, 384), (512, 384), (512, 384), (512, 384), (512, 384), (512, 384), (512, 384), (512, 384), (512, 384), (512, 384), (512, 384), (512, 384), (512, 384), (512, 384), (512, 384), (512, 384), (512, 384), (512, 384), (512, 384), (512, 384), (512, 384), (512, 384), (512, 384), (512, 384), (512, 384), (512, 384), (512, 384), (512, 384), (512, 384), (512, 384), (512, 384), (512, 384), (512, 384), (512, 384), (512, 384), (512, 384), (512, 384), (512, 384), (512, 384), (512, 384), (512, 384), (512, 384), (512, 384), (512, 384), (512, 384), (512, 384), (512, 384), (512, 384), (512, 384), (512, 384), (512, 384), (512, 384), (512, 384), (512, 384), (512, 384), (512, 384), (512, 384), (512, 384), (512, 384), (512, 384), (512, 384), (512, 384), (512, 384), (512, 384), (512, 384), (512, 384), (512, 384), (512, 384), (512, 384), (512, 384), (512, 384), (512, 384), (512, 384), (512, 384), (512, 384), (512, 384), (512, 384), (512, 384), (512, 384), (512, 384), (512, 384), (512, 384), (512, 384), (512, 384), (512, 384), (512, 384), (512, 384), (512, 384), (512, 384), (512, 384), (512, 384), (512, 384), (512, 384), (512, 384), (512, 384), (512, 384), (512, 384), (512, 384), (512, 384), (512, 384), (512, 384), (512, 384), (512, 384), (512, 384), (512, 384), (512, 384), (512, 384), (512, 384), (512, 384), (512, 384), (512, 384), (512, 384), (512, 384), (512, 384), (512, 384), (512, 384), (512, 384), (512, 384), (512, 384), (512, 384), (512, 384), (512, 384), (512, 384), (512, 384), (512, 384), (512, 384), (512, 384), (512, 384), (512, 384), (512, 384), (512, 384), (512, 384), (512, 384), (512, 384), (512, 384), (512, 384), (512, 384), (512, 384), (512, 384), (512, 384), (512, 384), (512, 384), (512, 384), (512, 384), (512, 384), (512, 384), (512, 384), (512, 384), (512, 384), (512, 384), (512, 384), (512, 384), (512, 384), (512, 384), (512, 384), (512, 384), (512, 384), (512, 384), (512, 384), (512, 384), (512, 384), (512, 384), (512, 384), (512, 384), (512, 384), (512, 384), (512, 384), (512, 384), (512, 384), (512, 384), (512, 384), (512, 384), (512, 384), (512, 384), (512, 384), (512, 384), (512, 384), (512, 384), (512, 384), (512, 384), (512, 384), (512, 384), (512, 384), (512, 384), (512, 384), (512, 384), (512, 384), (512, 384), (512, 384), (512, 384), (512, 384), (512, 384), (512, 384), (512, 384), (512, 384), (512, 384), (512, 384), (512, 384), (512, 384), (512, 384), (512, 384), (512, 384), (512, 384), (512, 384), (512, 384), (512, 384), (512, 384), (512, 384), (512, 384), (512, 384), (512, 384), (512, 384), (512, 384), (512, 384), (512, 384), (512, 384), (512, 384), (512, 384), (512, 384), (512, 384), (512, 384), (512, 384), (512, 384), (512, 384), (512, 384), (512, 384), (512, 384), (512, 384), (512, 384), (512, 384), (512, 384), (512, 384), (512, 384), (512, 384), (512, 384), (512, 384), (512, 384), (512, 384), (512, 384), (512, 384), (512, 384), (512, 384), (512, 384), (512, 384), (512, 384), (512, 384), (512, 384), (512, 384), (512, 384), (512, 384), (512, 384), (512, 384), (512, 384), (512, 384), (512, 384), (512, 384), (512, 384), (512, 384), (512, 384), (512, 384), (512, 384), (512, 384), (512, 384), (512, 384), (512, 384), (512, 384), (512, 384), (512, 384), (512, 384), (512, 384), (512, 384), (512, 384), (512, 384), (512, 384), (512, 384), (512, 384), (512, 384), (512, 384), (512, 384), (512, 384), (512, 384), (512, 384), (512, 384), (512, 384), (512, 384), (512, 384), (512, 384), (512, 384), (512, 384), (512, 384), (512, 384), (512, 384), (512, 384), (513, 384), (514, 384), (515, 384), (520, 385), (521, 386), (523, 387), (524, 387), (527, 388), (527, 388), (527, 389), (527, 389), (528, 389), (528, 389), (529, 390), (529, 390), (530, 390), (530, 391), (531, 392), (531, 392), (533, 392), (533, 393), (534, 393), (534, 394), (535, 394), (536, 394), (537, 395), (537, 395), (537, 395), (537, 395), (537, 395), (537, 395), (537, 396), (537, 396), (537, 396), (537, 396), (539, 396), (540, 396), (543, 396), (546, 396), (551, 397), (552, 397), (553, 397), (553, 397), (554, 398), (556, 398), (560, 400), (562, 401), (573, 402), (579, 404), (586, 407), (604, 410), (613, 412), (623, 415), (631, 417), (638, 418), (653, 424), (658, 427), (664, 430), (678, 437), (686, 441), (696, 444), (706, 449), (717, 452), (741, 461), (752, 464)]",18.43494882292201,"[4, 9, 5, 2, 7, 3, 8, 1, 6]","(0, 0.25)",THI005C,THI,C,Chinese,Fri Aug 17 13:00:47 2018,Mouse
2,2,3,0,13,3,3,1,596,16,580,144,0,500,200,8000,"[(512, 384), (510, 384), (509, 384), (507, 384), (506, 384), (505, 384), (504, 384), (502, 383), (502, 383), (499, 381), (499, 381), (498, 380), (497, 379), (495, 378), (494, 377), (494, 377), (493, 377), (492, 376), (492, 376), (492, 376), (491, 375), (490, 373), (490, 372), (488, 370), (487, 369), (481, 363), (475, 360), (468, 358), (461, 354), (445, 345), (439, 341), (432, 337), (425, 333), (413, 326), (406, 320), (398, 315), (393, 312), (375, 302), (371, 299), (362, 295), (354, 291), (345, 288), (344, 287), (342, 285), (340, 283), (337, 279), (336, 277), (334, 275), (332, 272), (325, 267), (321, 265), (318, 262), (316, 261), (310, 255), (309, 254), (308, 253), (308, 252), (306, 249), (304, 248), (302, 243)]",213.87853980510963,"[4, 9, 5, 2, 7, 3, 8, 1, 6]","(0, 0.25)",THI005C,THI,C,Chinese,Fri Aug 17 13:00:47 2018,Mouse
2,2,3,0,14,2,2,1,3514,314,3200,144,0,500,200,8000,"[(512, 384), (512, 384), (512, 384), (512, 384), (512, 384), (512, 384), (512, 384), (512, 384), (512, 384), (512, 384), (512, 384), (512, 384), (512, 384), (512, 384), (512, 384), (512, 384), (512, 384), (512, 384), (512, 384), (512, 384), (512, 384), (512, 384), (512, 384), (512, 384), (512, 384), (512, 384), (512, 384), (512, 384), (512, 384), (512, 384), (512, 384), (512, 385), (512, 385), (512, 387), (512, 387), (512, 387), (512, 387), (512, 387), (512, 387), (512, 387), (512, 387), (512, 387), (512, 387), (512, 387), (512, 387), (512, 387), (512, 387), (512, 387), (512, 387), (512, 387), (512, 387), (512, 387), (512, 387), (512, 387), (512, 387), (512, 387), (512, 387), (512, 387), (512, 387), (512, 387), (512, 387), (512, 387), (512, 387), (512, 387), (512, 387), (512, 387), (512, 387), (512, 387), (512, 387), (512, 387), (512, 387), (512, 387), (512, 387), (512, 387), (512, 387), (512, 387), (512, 387), (512, 387), (512, 387), (512, 387), (512, 387), (512, 387), (512, 387), (512, 387), (512, 387), (512, 387), (513, 387), (513, 387), (513, 387), (513, 387), (516, 387), (516, 387), (516, 387), (517, 387), (518, 387), (518, 387), (518, 387), (518, 387), (519, 387), (519, 387), (519, 387), (519, 387), (519, 387), (519, 387), (519, 387), (519, 387), (519, 387), (519, 387), (519, 387), (519, 387), (519, 387), (519, 387), (519, 387), (519, 387), (519, 387), (519, 387), (519, 387), (519, 387), (519, 387), (519, 387), (519, 387), (519, 387), (519, 387), (519, 387), (519, 387), (519, 387), (519, 387), (519, 387), (519, 387), (519, 387), (519, 387), (519, 387), (519, 387), (519, 387), (519, 387), (519, 387), (519, 387), (519, 387), (519, 387), (519, 387), (519, 387), (519, 387), (519, 387), (519, 387), (519, 387), (519, 387), (519, 387), (519, 387), (519, 387), (519, 387), (519, 387), (519, 387), (519, 387), (519, 387), (519, 387), (519, 387), (519, 387), (519, 387), (519, 387), (519, 387), (519, 387), (519, 387), (519, 387), (519, 387), (519, 387), (519, 387), (519, 387), (519, 387), (519, 387), (519, 387), (519, 387), (519, 387), (519, 387), (519, 387), (519, 387), (519, 387), (519, 387), (519, 387), (519, 387), (519, 387), (519, 387), (519, 387), (519, 388), (519, 388), (519, 388), (519, 388), (519, 390), (519, 390), (519, 390), (519, 390), (519, 390), (519, 390), (519, 390), (519, 390), (519, 390), (519, 390), (519, 390), (519, 390), (519, 390), (519, 390), (519, 390), (519, 390), (519, 390), (519, 390), (519, 390), (519, 390), (519, 390), (519, 390), (519, 390), (519, 390), (519, 390), (519, 390), (519, 390), (519, 390), (519, 390), (519, 390), (519, 390), (519, 390), (519, 390), (519, 390), (519, 390), (519, 390), (519, 390), (519, 390), (519, 390), (519, 390), (519, 390), (519, 390), (519, 390), (519, 390), (519, 390), (519, 390), (519, 390), (519, 390), (519, 390), (519, 390), (519, 390), (519, 390), (519, 390), (519, 390), (519, 390), (519, 390), (519, 390), (519, 390), (519, 390), (519, 390), (519, 390), (519, 390), (519, 390), (519, 390), (519, 390), (519, 390), (519, 390), (519, 390), (519, 390), (519, 390), (519, 390), (519, 390), (519, 390), (519, 390), (519, 390), (519, 390), (519, 390), (519, 390), (519, 390), (519, 390), (519, 390), (519, 390), (519, 390), (519, 390), (519, 390), (519, 390), (519, 390), (519, 390), (519, 390), (519, 390), (519, 390), (519, 390), (519, 390), (519, 390), (519, 390), (519, 390), (519, 390), (519, 390), (519, 390), (519, 390), (519, 390), (519, 390), (519, 390), (519, 390), (519, 390), (519, 390), (519, 390), (519, 390), (519, 392), (518, 393), (518, 393), (518, 394), (518, 394), (518, 394), (518, 395), (518, 395), (518, 395), (518, 395), (518, 395), (518, 395), (518, 395), (518, 395), (518, 396), (518, 397), (517, 398), (517, 399), (515, 400), (515, 401), (512, 404), (510, 406), (510, 407), (509, 409), (507, 412), (506, 413), (505, 413), (504, 415), (498, 418), (492, 421), (487, 423), (483, 424), (468, 431), (462, 434), (458, 436), (453, 440), (446, 444), (442, 447), (440, 449), (436, 451), (426, 457), (419, 461), (415, 463), (406, 468), (396, 476), (390, 481), (386, 483), (383, 487), (377, 493), (376, 495), (372, 499), (368, 505), (358, 514), (351, 519), (339, 525), (331, 528), (316, 537), (309, 541)]",142.28166880753508,"[4, 9, 5, 2, 7, 3, 8, 1, 6]","(0, 0.25)",THI005C,THI,C,Chinese,Fri Aug 17 13:00:47 2018,Mouse
2,2,3,0,15,3,3,1,870,580,290,143,0,500,200,8000,"[(512, 384), (512, 384), (512, 384), (512, 384), (512, 384), (512, 384), (512, 384), (512, 384), (512, 384), (512, 384), (512, 384), (512, 384), (512, 384), (512, 384), (512, 384), (512, 384), (512, 384), (512, 384), (512, 384), (512, 384), (512, 384), (512, 384), (512, 384), (512, 384), (512, 384), (512, 384), (512, 384), (512, 384), (512, 384), (512, 384), (512, 384), (512, 384), (512, 384), (512, 384), (512, 384), (512, 384), (512, 384), (512, 384), (512, 384), (512, 384), (512, 384), (512, 384), (512, 384), (512, 384), (512, 384), (512, 384), (512, 384), (512, 384), (512, 384), (512, 384), (512, 384), (512, 384), (512, 384), (512, 384), (512, 384), (512, 384), (512, 384), (512, 383), (511, 381), (509, 380), (507, 379), (505, 377), (501, 374), (497, 372), (495, 370), (491, 367), (480, 359), (472, 355), (463, 350), (456, 346), (442, 336), (436, 329), (431, 324), (427, 319), (419, 308), (415, 303), (411, 300), (407, 294), (398, 284), (392, 278), (383, 273), (377, 268), (362, 258), (354, 253), (343, 247), (333, 241), (315, 230)]",218.01566048401912,"[4, 9, 5, 2, 7, 3, 8, 1, 6]","(0, 0.25)",THI005C,THI,C,Chinese,Fri Aug 17 13:00:47 2018,Mouse
2,2,3,0,16,4,4,1,2507,817,1690,142,0,500,200,8000,"[(512, 384), (512, 384), (512, 384), (512, 384), (512, 384), (512, 384), (512, 384), (512, 384), (512, 384), (512, 384), (512, 384), (512, 384), (512, 384), (512, 384), (512, 384), (512, 384), (512, 384), (512, 384), (512, 384), (512, 384), (512, 384), (512, 384), (512, 384), (512, 384), (512, 384), (512, 384), (512, 384), (512, 384), (512, 384), (512, 384), (512, 384), (512, 384), (512, 384), (512, 384), (512, 384), (512, 384), (512, 384), (512, 384), (512, 384), (512, 384), (512, 384), (512, 384), (512, 384), (512, 384), (512, 384), (512, 384), (512, 384), (512, 384), (512, 384), (512, 384), (512, 384), (512, 384), (512, 384), (512, 384), (512, 384), (512, 384), (512, 384), (512, 384), (512, 384), (512, 384), (512, 384), (512, 384), (512, 384), (512, 384), (512, 384), (512, 384), (512, 384), (512, 384), (512, 384), (512, 384), (512, 384), (512, 384), (512, 384), (512, 384), (512, 384), (512, 384), (512, 384), (512, 384), (512, 384), (512, 384), (512, 384), (512, 385), (512, 385), (512, 385), (512, 385), (512, 386), (512, 386), (512, 388), (512, 388), (512, 388), (512, 388), (512, 388), (512, 388), (512, 388), (512, 388), (512, 388), (512, 388), (512, 388), (512, 388), (512, 388), (512, 388), (512, 388), (512, 388), (512, 388), (512, 388), (512, 388), (512, 388), (512, 388), (512, 388), (512, 388), (512, 388), (512, 388), (512, 388), (512, 388), (512, 388), (512, 388), (512, 388), (512, 388), (512, 388), (512, 388), (512, 388), (512, 388), (512, 388), (512, 388), (512, 388), (512, 388), (512, 388), (512, 388), (512, 388), (512, 388), (512, 388), (512, 388), (512, 388), (512, 388), (512, 388), (512, 388), (512, 388), (512, 388), (512, 388), (512, 388), (512, 388), (512, 388), (512, 388), (512, 388), (512, 388), (512, 388), (512, 388), (512, 388), (512, 389), (512, 389), (512, 390), (512, 390), (512, 390), (512, 391), (512, 391), (512, 392), (512, 392), (512, 392), (512, 393), (512, 393), (512, 393), (512, 393), (512, 393), (512, 393), (512, 393), (512, 393), (512, 393), (512, 393), (512, 394), (512, 395), (512, 397), (512, 398), (512, 401), (512, 401), (512, 402), (512, 403), (512, 403), (512, 404), (512, 404), (512, 404), (512, 404), (512, 404), (512, 404), (512, 404), (512, 404), (512, 404), (512, 404), (512, 404), (512, 404), (512, 404), (512, 404), (512, 404), (512, 404), (512, 404), (512, 404), (512, 404), (512, 404), (512, 404), (512, 404), (512, 404), (512, 404), (512, 404), (512, 404), (512, 404), (512, 404), (512, 404), (512, 404), (512, 404), (512, 404), (512, 404), (512, 404), (512, 404), (512, 404), (512, 404), (512, 404), (512, 404), (512, 404), (512, 404), (512, 404), (512, 404), (512, 404), (512, 404), (512, 404), (512, 404), (512, 404), (512, 404), (512, 404), (512, 404), (512, 404), (512, 405), (514, 408), (516, 409), (520, 409), (523, 411), (530, 412), (543, 416), (549, 418), (555, 419), (573, 424), (583, 428), (596, 432), (608, 435), (635, 442), (647, 446), (662, 451), (676, 456), (686, 458), (711, 462), (722, 465), (733, 465), (756, 469)]",19.206326418295454,"[4, 9, 5, 2, 7, 3, 8, 1, 6]","(0, 0.25)",THI005C,THI,C,Chinese,Fri Aug 17 13:00:47 2018,Mouse
2,2,3,0,17,6,6,1,2211,442,1769,141,0,500,200,8000,"[(512, 384), (512, 384), (512, 384), (512, 384), (512, 384), (512, 384), (512, 384), (512, 384), (512, 384), (512, 384), (512, 384), (512, 384), (512, 384), (512, 384), (512, 384), (512, 384), (512, 384), (512, 384), (512, 384), (512, 384), (512, 384), (512, 384), (512, 384), (512, 384), (512, 384), (512, 384), (512, 384), (512, 384), (512, 384), (512, 384), (512, 384), (512, 384), (512, 384), (512, 384), (512, 384), (512, 384), (512, 384), (512, 384), (512, 384), (512, 384), (512, 384), (512, 384), (512, 384), (512, 384), (511, 383), (511, 383), (511, 383), (510, 383), (509, 382), (509, 382), (509, 382), (509, 382), (509, 382), (509, 382), (509, 382), (509, 382), (509, 382), (509, 382), (509, 382), (509, 382), (509, 382), (509, 382), (509, 382), (509, 382), (509, 382), (509, 382), (509, 382), (509, 382), (509, 382), (509, 382), (509, 382), (509, 382), (509, 382), (509, 382), (509, 382), (509, 382), (509, 382), (509, 382), (509, 382), (509, 382), (509, 382), (509, 382), (509, 382), (509, 382), (509, 382), (509, 382), (509, 382), (509, 382), (509, 382), (509, 382), (509, 382), (509, 382), (509, 382), (509, 382), (509, 382), (509, 382), (509, 382), (509, 382), (509, 382), (509, 382), (509, 382), (509, 382), (509, 382), (509, 382), (509, 382), (509, 382), (509, 382), (509, 382), (509, 382), (509, 382), (509, 382), (509, 382), (509, 382), (509, 382), (509, 382), (509, 382), (509, 382), (509, 382), (509, 382), (509, 382), (509, 382), (509, 382), (509, 382), (509, 382), (509, 382), (509, 382), (509, 382), (509, 382), (509, 382), (509, 382), (509, 382), (509, 382), (509, 382), (509, 382), (509, 382), (509, 382), (509, 382), (509, 382), (509, 382), (509, 382), (509, 382), (509, 382), (509, 382), (509, 382), (509, 382), (509, 382), (509, 382), (509, 382), (509, 382), (509, 382), (509, 382), (509, 382), (509, 382), (509, 382), (509, 382), (509, 382), (509, 382), (509, 382), (509, 382), (509, 382), (509, 382), (509, 382), (509, 382), (509, 382), (509, 382), (509, 382), (509, 382), (509, 382), (509, 382), (509, 382), (509, 382), (509, 382), (509, 382), (509, 382), (509, 382), (509, 382), (509, 382), (509, 382), (509, 382), (509, 382), (509, 382), (509, 382), (509, 382), (509, 382), (509, 382), (509, 382), (509, 382), (509, 382), (509, 382), (509, 382), (509, 382), (509, 382), (509, 382), (509, 382), (509, 382), (509, 382), (509, 382), (509, 382), (509, 382), (509, 382), (509, 382), (509, 382), (510, 382), (513, 380), (517, 378), (527, 376), (536, 374), (546, 370), (559, 368), (583, 361), (597, 356), (609, 353), (622, 350), (648, 338), (659, 334), (672, 328), (688, 321), (711, 311), (723, 306), (735, 301), (743, 298), (755, 291)]",339.0573494500117,"[4, 9, 5, 2, 7, 3, 8, 1, 6]","(0, 0.25)",THI005C,THI,C,Chinese,Fri Aug 17 13:00:47 2018,Mouse
2,2,3,0,18,5,2,0,-4636,3186,1450,140,0,500,200,8000,"[(512, 384), (512, 384), (512, 384), (512, 384), (512, 384), (512, 384), (512, 384), (512, 384), (512, 384), (512, 384), (512, 384), (512, 384), (512, 384), (512, 384), (512, 384), (512, 384), (512, 384), (512, 384), (512, 384), (512, 384), (512, 384), (512, 384), (512, 384), (512, 384), (512, 384), (512, 384), (512, 384), (512, 384), (512, 384), (512, 384), (512, 384), (512, 384), (512, 384), (512, 384), (512, 384), (512, 384), (512, 384), (512, 384), (512, 384), (512, 384), (512, 384), (512, 384), (512, 384), (512, 384), (512, 384), (512, 384), (512, 384), (512, 384), (512, 384), (512, 384), (512, 384), (512, 384), (512, 384), (512, 384), (512, 384), (512, 384), (512, 384), (512, 384), (512, 384), (512, 384), (512, 384), (512, 384), (512, 384), (512, 384), (512, 384), (512, 384), (512, 384), (512, 384), (512, 384), (512, 384), (512, 384), (512, 384), (512, 384), (512, 384), (512, 384), (512, 384), (512, 384), (512, 384), (512, 384), (512, 384), (512, 384), (512, 384), (512, 384), (512, 384), (512, 384), (512, 384), (512, 384), (512, 384), (512, 384), (512, 384), (512, 384), (512, 384), (512, 384), (512, 384), (512, 384), (512, 384), (512, 384), (512, 384), (512, 384), (512, 384), (512, 384), (512, 384), (512, 384), (512, 384), (512, 384), (512, 384), (512, 384), (512, 384), (512, 384), (512, 384), (512, 384), (512, 384), (512, 384), (512, 384), (512, 384), (512, 384), (512, 384), (512, 384), (512, 384), (512, 384), (512, 384), (512, 384), (512, 384), (512, 384), (512, 384), (512, 384), (512, 384), (512, 384), (512, 384), (512, 384), (512, 384), (512, 384), (512, 384), (512, 384), (512, 384), (512, 384), (512, 384), (512, 384), (512, 384), (512, 384), (512, 384), (512, 384), (512, 384), (512, 384), (512, 384), (512, 384), (512, 384), (512, 384), (512, 384), (512, 384), (512, 384), (512, 384), (512, 384), (512, 384), (512, 384), (512, 384), (512, 384), (512, 384), (512, 384), (512, 384), (512, 384), (512, 384), (512, 384), (512, 384), (512, 384), (512, 384), (512, 384), (512, 384), (512, 384), (512, 384), (512, 384), (512, 384), (512, 384), (512, 384), (512, 384), (512, 384), (512, 384), (512, 384), (512, 384), (512, 384), (512, 384), (512, 384), (512, 384), (512, 384), (512, 384), (512, 384), (512, 384), (512, 384), (512, 384), (512, 384), (512, 384), (512, 384), (512, 384), (512, 384), (512, 384), (512, 384), (512, 384), (512, 384), (512, 384), (512, 384), (512, 384), (512, 384), (512, 384), (512, 384), (512, 384), (512, 384), (512, 384), (512, 384), (512, 384), (512, 384), (512, 384), (512, 384), (512, 384), (512, 384), (512, 384), (512, 384), (512, 384), (512, 384), (512, 384), (512, 384), (512, 384), (512, 384), (512, 384), (512, 384), (512, 384), (512, 384), (512, 384), (512, 384), (512, 384), (512, 384), (512, 384), (512, 384), (512, 384), (512, 384), (512, 384), (512, 384), (512, 384), (512, 384), (512, 384), (512, 384), (512, 384), (512, 384), (512, 384), (512, 384), (512, 384), (512, 384), (512, 384), (512, 384), (512, 384), (512, 384), (512, 384), (512, 384), (512, 384), (512, 384), (512, 384), (512, 384), (512, 384), (512, 384), (512, 384), (512, 384), (512, 384), (512, 384), (512, 384), (512, 384), (512, 384), (512, 384), (512, 384), (512, 384), (512, 384), (512, 384), (512, 384), (512, 384), (512, 384), (512, 384), (512, 384), (512, 384), (512, 384), (512, 384), (512, 384), (512, 384), (512, 384), (512, 384), (512, 384), (512, 384), (512, 384), (512, 384), (512, 384), (512, 384), (512, 384), (512, 384), (512, 384), (512, 384), (512, 384), (512, 384), (512, 384), (512, 384), (512, 384), (512, 384), (512, 384), (512, 384), (512, 384), (512, 384), (512, 384), (512, 384), (512, 384), (512, 384), (512, 384), (512, 384), (512, 384), (512, 384), (512, 384), (512, 384), (512, 384), (512, 384), (512, 384), (512, 384), (512, 384), (512, 384), (513, 384), (516, 382), (518, 380), (522, 378), (527, 374), (537, 369), (543, 366), (548, 364), (554, 360), (557, 359), (558, 357), (559, 357), (559, 357), (559, 357), (559, 357), (559, 357), (559, 357), (559, 357), (559, 357), (559, 357), (559, 357), (559, 357), (559, 357), (559, 357), (559, 357), (559, 357), (559, 357), (559, 357), (559, 357), (559, 357), (559, 357), (559, 357), (559, 357), (559, 358), (559, 358), (557, 360), (554, 361), (550, 363), (548, 364), (544, 365), (542, 366), (536, 368), (533, 369), (530, 369), (526, 369), (522, 372), (520, 372), (519, 372), (518, 372), (516, 373), (513, 374), (512, 374), (508, 375), (502, 377), (499, 378), (497, 378), (495, 378), (493, 379), (491, 379), (490, 380), (488, 380), (486, 381), (485, 382), (484, 382), (483, 382), (481, 383), (480, 384), (479, 384), (477, 386), (477, 386), (476, 386), (474, 387), (474, 387), (471, 388), (469, 389), (465, 391), (463, 391), (458, 393), (455, 394), (451, 394), (449, 394), (443, 394), (438, 396), (434, 396), (431, 397), (425, 398), (423, 398), (421, 399), (420, 399), (415, 400), (413, 400), (410, 401), (408, 401), (404, 402), (403, 402), (401, 402), (400, 404), (398, 404), (398, 404), (397, 404), (396, 404), (394, 404), (391, 405), (391, 405), (389, 406), (385, 407), (384, 408), (384, 408), (384, 408), (384, 408), (384, 408), (383, 408), (383, 408), (379, 409), (375, 409), (373, 409), (369, 411), (363, 413), (361, 413), (359, 415), (358, 415), (357, 417), (355, 420), (355, 421), (355, 422), (354, 428), (354, 431), (354, 434), (354, 437), (354, 444), (354, 449), (354, 455), (355, 462), (358, 475), (360, 483), (361, 489), (361, 495), (361, 507), (361, 513), (360, 517), (357, 523), (348, 534), (343, 541), (339, 546), (330, 551), (319, 560)]",137.63777779702855,"[4, 9, 5, 2, 7, 3, 8, 1, 6]","(0, 0.25)",THI005C,THI,C,Chinese,Fri Aug 17 13:00:47 2018,Mouse
2,2,3,0,19,7,7,1,972,792,180,141,0,500,200,8000,"[(512, 384), (512, 384), (512, 384), (512, 384), (512, 384), (512, 384), (512, 384), (512, 384), (512, 384), (512, 384), (512, 384), (512, 384), (512, 384), (512, 384), (512, 384), (512, 384), (512, 384), (512, 384), (512, 384), (512, 384), (512, 384), (512, 384), (512, 384), (512, 384), (512, 384), (512, 384), (512, 384), (512, 384), (512, 384), (512, 384), (512, 384), (512, 384), (512, 384), (512, 384), (512, 384), (512, 384), (512, 384), (512, 384), (512, 384), (512, 384), (512, 384), (512, 384), (512, 384), (512, 384), (512, 384), (512, 384), (512, 384), (512, 384), (512, 384), (512, 384), (512, 384), (512, 384), (512, 384), (512, 384), (512, 384), (512, 384), (512, 384), (512, 384), (512, 384), (512, 384), (512, 384), (512, 384), (512, 384), (512, 384), (512, 384), (512, 384), (512, 384), (512, 384), (512, 384), (512, 384), (512, 384), (512, 384), (512, 384), (512, 384), (512, 384), (512, 384), (512, 384), (512, 384), (512, 384), (512, 383), (511, 382), (505, 382), (497, 382), (486, 382), (450, 382), (433, 382), (419, 382), (404, 382), (382, 381), (371, 381), (360, 377), (349, 377), (329, 375), (318, 372), (305, 371), (294, 370), (272, 367), (261, 367)]",183.87467320356512,"[4, 9, 5, 2, 7, 3, 8, 1, 6]","(0, 0.25)",THI005C,THI,C,Chinese,Fri Aug 17 13:00:47 2018,Mouse
2,2,3,0,20,7,9,0,-1134,344,790,141,0,500,200,8000,"[(512, 384), (512, 384), (512, 384), (512, 384), (512, 384), (512, 384), (512, 384), (512, 384), (512, 384), (512, 384), (512, 384), (512, 384), (512, 384), (512, 384), (512, 384), (512, 384), (512, 384), (512, 384), (512, 384), (512, 384), (512, 384), (512, 384), (512, 384), (512, 384), (512, 384), (512, 384), (512, 384), (512, 384), (512, 384), (512, 384), (512, 384), (512, 384), (512, 384), (512, 384), (512, 385), (512, 386), (512, 386), (512, 387), (512, 387), (512, 388), (512, 388), (512, 389), (512, 389), (512, 390), (512, 390), (512, 392), (512, 393), (512, 393), (512, 393), (512, 393), (512, 393), (512, 393), (512, 393), (512, 393), (512, 393), (512, 394), (512, 394), (512, 395), (513, 396), (514, 397), (514, 397), (516, 398), (516, 398), (516, 398), (516, 399), (517, 400), (518, 401), (518, 401), (519, 402), (520, 403), (520, 403), (522, 404), (522, 405), (524, 406), (525, 407), (528, 407), (529, 409), (531, 410), (534, 412), (535, 413), (535, 413), (538, 416), (540, 419), (544, 421), (547, 425), (555, 430), (561, 435), (566, 438), (571, 442), (575, 446), (576, 447), (578, 450), (579, 452), (583, 458), (586, 461), (589, 466), (593, 471), (599, 481), (602, 486), (605, 491), (607, 496), (611, 504), (613, 508), (616, 514), (618, 520), (626, 533), (630, 540), (633, 547), (637, 555), (646, 571), (648, 577), (651, 583), (653, 589), (658, 598)]",55.69651073577811,"[4, 9, 5, 2, 7, 3, 8, 1, 6]","(0, 0.25)",THI005C,THI,C,Chinese,Fri Aug 17 13:00:47 2018,Mouse
2,2,3,0,21,1,1,1,1671,1082,589,142,0,500,200,8000,"[(512, 384), (512, 384), (512, 384), (512, 384), (512, 384), (512, 384), (512, 384), (512, 384), (512, 384), (512, 384), (512, 384), (512, 384), (512, 384), (512, 384), (512, 384), (512, 384), (512, 384), (512, 384), (512, 384), (512, 384), (512, 384), (512, 384), (512, 384), (512, 384), (512, 384), (512, 384), (512, 384), (512, 384), (512, 384), (512, 384), (512, 384), (512, 384), (512, 384), (512, 384), (512, 384), (512, 384), (512, 384), (512, 384), (512, 384), (512, 384), (512, 384), (512, 384), (512, 384), (512, 384), (512, 384), (512, 384), (512, 384), (512, 384), (512, 384), (512, 384), (512, 384), (512, 384), (512, 384), (512, 384), (512, 384), (512, 384), (512, 384), (512, 384), (512, 384), (512, 384), (512, 384), (512, 384), (512, 384), (512, 384), (512, 384), (512, 384), (512, 384), (512, 384), (512, 384), (512, 384), (512, 384), (512, 384), (512, 384), (512, 384), (512, 384), (512, 384), (512, 384), (512, 384), (512, 384), (512, 384), (512, 384), (512, 384), (512, 384), (512, 384), (512, 384), (512, 384), (512, 384), (512, 384), (512, 384), (512, 384), (512, 384), (512, 384), (512, 384), (512, 384), (512, 384), (512, 384), (512, 384), (512, 384), (512, 384), (512, 384), (512, 384), (512, 384), (512, 384), (512, 384), (512, 384), (512, 384), (512, 384), (512, 384), (510, 380), (509, 378), (508, 378), (507, 377), (507, 377), (506, 376), (506, 376), (506, 376), (506, 376), (506, 375), (506, 375), (506, 375), (506, 374), (505, 372), (505, 372), (504, 371), (504, 371), (503, 370), (503, 370), (503, 369), (502, 368), (502, 368), (502, 367), (502, 365), (502, 363), (502, 362), (502, 361), (502, 360), (503, 358), (503, 356), (503, 355), (503, 354), (504, 352), (506, 349), (507, 347), (509, 344), (511, 340), (515, 336), (516, 332), (518, 330), (519, 328), (525, 320), (529, 315), (532, 310), (538, 303), (550, 287), (555, 279), (563, 268), (570, 258), (583, 243), (590, 233), (594, 228), (599, 220), (609, 207), (613, 202), (617, 194), (621, 189), (630, 174), (635, 167), (636, 164)]",299.40718906073363,"[4, 9, 5, 2, 7, 3, 8, 1, 6]","(0, 0.25)",THI005C,THI,C,Chinese,Fri Aug 17 13:00:47 2018,Mouse
2,2,3,0,22,2,3,0,-2546,556,1990,142,0,500,200,8000,"[(512, 384), (512, 384), (512, 384), (512, 384), (512, 384), (512, 384), (512, 384), (512, 384), (512, 384), (512, 384), (512, 384), (512, 384), (512, 384), (512, 384), (512, 384), (512, 384), (512, 384), (512, 384), (512, 384), (512, 384), (512, 384), (512, 384), (512, 384), (512, 384), (512, 384), (512, 384), (512, 384), (512, 384), (512, 384), (512, 384), (512, 384), (512, 384), (512, 384), (512, 384), (512, 384), (512, 384), (512, 384), (512, 384), (512, 384), (512, 384), (512, 384), (512, 384), (512, 384), (512, 384), (512, 384), (512, 384), (512, 384), (512, 384), (512, 384), (512, 384), (512, 384), (512, 384), (512, 384), (512, 384), (512, 384), (511, 385), (511, 385), (511, 385), (511, 385), (511, 385), (510, 387), (509, 388), (509, 389), (509, 389), (509, 389), (508, 390), (508, 391), (507, 391), (507, 391), (506, 393), (505, 393), (504, 395), (502, 396), (501, 397), (499, 398), (498, 399), (496, 399), (491, 402), (489, 402), (487, 403), (484, 403), (478, 406), (476, 406), (475, 406), (472, 406), (467, 407), (465, 407), (465, 407), (464, 407), (462, 408), (462, 408), (462, 408), (462, 408), (462, 408), (462, 408), (462, 408), (462, 408), (462, 408), (462, 408), (462, 408), (462, 408), (462, 408), (462, 408), (462, 408), (462, 408), (462, 408), (462, 408), (462, 408), (462, 408), (462, 408), (462, 408), (462, 408), (462, 408), (462, 408), (462, 408), (462, 408), (462, 408), (460, 408), (460, 408), (460, 409), (460, 409), (459, 409), (459, 409), (459, 410), (459, 410), (458, 411), (458, 411), (458, 411), (458, 411), (458, 411), (458, 411), (458, 411), (457, 412), (457, 412), (457, 412), (457, 412), (457, 412), (457, 412), (457, 412), (457, 412), (457, 413), (457, 413), (457, 414), (457, 414), (457, 415), (456, 415), (456, 415), (456, 415), (456, 415), (456, 415), (456, 415), (456, 415), (456, 415), (456, 415), (456, 415), (456, 415), (456, 415), (456, 415), (456, 415), (456, 415), (456, 415), (456, 415), (456, 415), (456, 415), (456, 415), (456, 415), (456, 415), (456, 415), (456, 415), (456, 415), (456, 415), (456, 415), (456, 415), (456, 415), (456, 415), (456, 415), (456, 415), (456, 415), (456, 415), (456, 415), (456, 415), (456, 415), (456, 415), (456, 415), (456, 416), (455, 416), (452, 416), (449, 416), (448, 416), (444, 416), (442, 416), (441, 416), (439, 416), (438, 416), (436, 416), (436, 416), (435, 416), (432, 416), (432, 416), (430, 416), (429, 416), (425, 416), (424, 416), (423, 416), (423, 416), (422, 416), (421, 416), (420, 416), (420, 416), (420, 416), (420, 416), (420, 416), (420, 416), (419, 416), (419, 416), (418, 416), (418, 416), (418, 416), (417, 416), (417, 416), (417, 416), (416, 416), (416, 416), (416, 416), (416, 416), (415, 416), (415, 416), (415, 416), (415, 416), (415, 415), (415, 415), (415, 415), (415, 415), (415, 415), (414, 414), (414, 414), (413, 413), (411, 409), (410, 407), (408, 401), (405, 395), (398, 383), (392, 374), (388, 367), (383, 357), (369, 335), (360, 325), (354, 315), (346, 305), (330, 282), (324, 272), (320, 265), (314, 257), (307, 245), (303, 239)]",214.7521358888897,"[4, 9, 5, 2, 7, 3, 8, 1, 6]","(0, 0.25)",THI005C,THI,C,Chinese,Fri Aug 17 13:00:47 2018,Mouse
2,2,3,0,23,9,9,1,1382,382,1000,143,0,500,200,8000,"[(512, 384), (512, 384), (512, 384), (512, 384), (512, 384), (512, 384), (512, 384), (512, 384), (512, 384), (512, 384), (512, 384), (512, 384), (512, 384), (512, 384), (512, 384), (512, 384), (512, 384), (512, 384), (512, 384), (512, 384), (512, 384), (512, 384), (512, 384), (512, 384), (512, 384), (512, 384), (512, 384), (512, 384), (512, 384), (512, 384), (512, 384), (512, 384), (512, 384), (512, 384), (512, 384), (512, 384), (512, 384), (512, 384), (513, 385), (513, 385), (513, 385), (513, 385), (513, 385), (513, 385), (513, 385), (513, 385), (513, 385), (513, 385), (513, 385), (513, 385), (513, 385), (513, 385), (513, 385), (513, 385), (513, 385), (513, 385), (513, 385), (513, 385), (513, 385), (513, 385), (513, 385), (513, 385), (513, 385), (513, 385), (513, 385), (513, 385), (513, 385), (513, 385), (513, 385), (513, 385), (513, 385), (513, 385), (513, 385), (513, 385), (513, 385), (513, 385), (513, 385), (513, 385), (513, 385), (513, 385), (513, 385), (513, 385), (513, 385), (513, 385), (513, 385), (513, 385), (513, 385), (513, 385), (513, 385), (513, 385), (513, 385), (513, 385), (513, 385), (513, 385), (513, 385), (513, 385), (513, 385), (513, 385), (513, 385), (513, 385), (513, 385), (513, 385), (513, 385), (513, 385), (513, 385), (513, 385), (513, 385), (513, 385), (513, 385), (513, 385), (513, 385), (513, 385), (513, 385), (513, 385), (513, 385), (513, 386), (513, 386), (513, 386), (513, 388), (513, 390), (513, 392), (513, 395), (514, 398), (519, 409), (523, 415), (526, 421), (531, 431), (544, 451), (552, 465), (560, 476), (569, 486), (582, 511), (588, 524), (595, 537), (601, 548), (616, 573), (622, 585), (628, 593), (634, 604)]",60.989639737312594,"[4, 9, 5, 2, 7, 3, 8, 1, 6]","(0, 0.25)",THI005C,THI,C,Chinese,Fri Aug 17 13:00:47 2018,Mouse
2,2,3,0,24,5,5,1,1251,761,490,143,0,500,200,8000,"[(512, 384), (512, 384), (512, 384), (512, 384), (512, 384), (512, 384), (512, 384), (512, 384), (512, 384), (512, 384), (512, 384), (512, 384), (512, 384), (512, 384), (512, 384), (512, 384), (512, 384), (512, 384), (512, 384), (512, 384), (512, 384), (512, 384), (512, 384), (512, 384), (512, 384), (512, 384), (512, 384), (512, 384), (512, 384), (512, 384), (512, 384), (512, 384), (512, 384), (512, 384), (512, 384), (512, 384), (512, 384), (512, 384), (512, 384), (512, 384), (512, 384), (512, 384), (512, 384), (512, 384), (512, 384), (512, 384), (512, 384), (512, 384), (512, 384), (512, 384), (512, 384), (512, 384), (512, 384), (512, 384), (512, 384), (512, 384), (512, 384), (512, 384), (512, 384), (512, 384), (512, 384), (512, 384), (512, 384), (512, 384), (512, 384), (512, 384), (512, 384), (512, 384), (512, 384), (512, 384), (512, 384), (512, 384), (512, 384), (512, 384), (512, 384), (512, 384), (512, 380), (512, 371), (512, 361), (512, 357), (512, 354), (512, 354), (512, 354), (512, 354), (512, 354), (512, 354), (512, 354), (512, 354), (512, 354), (512, 354), (512, 354), (507, 357), (496, 368), (495, 371), (494, 376), (491, 379), (490, 391), (490, 399), (490, 404), (490, 411), (490, 428), (490, 436), (491, 444), (491, 451), (492, 464), (492, 466), (491, 473), (488, 476), (487, 484), (487, 488), (486, 493), (485, 498), (483, 508), (483, 513), (483, 517), (482, 523), (481, 537), (479, 543), (478, 550), (477, 559), (473, 576), (471, 586), (467, 597), (466, 607), (459, 625), (456, 634)]",102.62583687890732,"[4, 9, 5, 2, 7, 3, 8, 1, 6]","(0, 0.25)",THI005C,THI,C,Chinese,Fri Aug 17 13:00:47 2018,Mouse
2,2,3,0,25,3,3,1,652,22,630,142,0,500,200,8000,"[(512, 384), (512, 384), (510, 383), (509, 383), (507, 382), (507, 382), (506, 382), (505, 381), (505, 381), (505, 381), (505, 381), (504, 381), (504, 381), (504, 381), (504, 381), (504, 381), (504, 381), (504, 381), (504, 381), (504, 381), (504, 381), (504, 381), (504, 381), (504, 379), (503, 377), (503, 377), (502, 374), (501, 372), (500, 371), (500, 370), (500, 368), (498, 365), (497, 363), (496, 361), (495, 360), (491, 356), (490, 355), (487, 352), (486, 351), (480, 348), (477, 345), (473, 342), (466, 338), (460, 334), (455, 331), (449, 328), (446, 326), (432, 319), (425, 315), (417, 309), (414, 308), (403, 302), (400, 299), (396, 298), (393, 295), (380, 288), (370, 281), (364, 278), (359, 275), (343, 263), (337, 259), (332, 254), (327, 249), (319, 239), (316, 234), (312, 231)]",217.41598861857787,"[4, 9, 5, 2, 7, 3, 8, 1, 6]","(0, 0.25)",THI005C,THI,C,Chinese,Fri Aug 17 13:00:47 2018,Mouse
2,2,3,0,26,9,2,0,-4165,116,4049,141,0,500,200,8000,"[(512, 384), (512, 384), (512, 384), (512, 384), (512, 384), (512, 384), (512, 384), (512, 384), (512, 384), (512, 384), (512, 384), (512, 385), (512, 385), (512, 385), (512, 385), (512, 385), (512, 385), (512, 385), (512, 385), (512, 385), (512, 385), (512, 385), (512, 385), (512, 385), (512, 385), (512, 385), (512, 385), (512, 385), (512, 385), (512, 385), (512, 385), (512, 385), (512, 385), (512, 385), (512, 385), (512, 385), (512, 385), (512, 385), (512, 385), (512, 385), (512, 385), (512, 385), (512, 385), (512, 385), (512, 385), (512, 385), (512, 385), (512, 385), (512, 385), (512, 385), (512, 385), (512, 385), (512, 385), (512, 385), (512, 385), (512, 385), (512, 385), (512, 385), (512, 385), (512, 385), (512, 385), (512, 385), (512, 385), (512, 385), (512, 385), (512, 385), (512, 385), (512, 385), (512, 385), (512, 385), (512, 385), (512, 385), (512, 385), (512, 385), (512, 385), (512, 385), (512, 385), (512, 385), (512, 385), (512, 385), (512, 385), (512, 385), (512, 385), (512, 385), (512, 385), (512, 385), (512, 385), (512, 385), (512, 385), (512, 385), (512, 385), (512, 385), (512, 385), (512, 385), (512, 385), (512, 385), (512, 385), (512, 385), (512, 385), (512, 385), (512, 385), (512, 385), (512, 385), (512, 385), (512, 385), (512, 385), (512, 385), (512, 385), (512, 385), (512, 385), (512, 385), (512, 385), (512, 385), (512, 385), (512, 385), (512, 385), (512, 385), (512, 385), (512, 385), (512, 385), (512, 385), (512, 385), (512, 385), (512, 385), (512, 385), (512, 385), (512, 385), (512, 385), (512, 385), (512, 385), (512, 385), (512, 385), (512, 385), (512, 385), (512, 385), (512, 385), (512, 385), (512, 385), (511, 385), (511, 385), (511, 386), (510, 387), (510, 387), (510, 387), (510, 387), (510, 387), (510, 387), (510, 387), (510, 387), (510, 387), (510, 387), (510, 387), (510, 387), (510, 387), (510, 387), (510, 387), (510, 387), (510, 387), (510, 387), (510, 387), (510, 387), (510, 387), (510, 387), (510, 387), (510, 387), (510, 387), (510, 387), (510, 387), (510, 387), (510, 387), (510, 387), (510, 387), (510, 387), (510, 387), (510, 387), (510, 387), (510, 387), (510, 387), (510, 387), (510, 387), (510, 387), (510, 387), (510, 387), (510, 387), (510, 387), (510, 387), (510, 387), (510, 387), (510, 387), (510, 387), (510, 387), (510, 387), (510, 387), (510, 387), (510, 387), (510, 387), (510, 387), (510, 387), (510, 387), (510, 387), (510, 387), (510, 387), (510, 387), (510, 387), (510, 387), (510, 387), (510, 387), (510, 387), (510, 387), (510, 387), (510, 387), (510, 387), (510, 387), (510, 387), (510, 387), (510, 387), (508, 387), (508, 387), (508, 387), (508, 387), (508, 387), (508, 387), (508, 387), (508, 387), (508, 387), (508, 387), (508, 387), (508, 387), (508, 387), (508, 387), (508, 387), (508, 387), (508, 387), (507, 388), (505, 388), (505, 389), (505, 389), (505, 389), (504, 390), (503, 390), (503, 390), (503, 391), (503, 391), (503, 392), (502, 393), (502, 393), (502, 393), (502, 393), (502, 393), (502, 393), (502, 393), (502, 393), (501, 393), (501, 393), (501, 393), (501, 393), (501, 393), (501, 393), (501, 393), (501, 393), (501, 393), (501, 393), (501, 393), (501, 393), (501, 393), (501, 393), (501, 393), (501, 393), (501, 393), (501, 393), (501, 393), (501, 393), (501, 393), (501, 393), (501, 393), (501, 393), (501, 393), (501, 393), (501, 393), (501, 393), (501, 393), (501, 393), (501, 393), (501, 393), (501, 393), (501, 393), (501, 393), (501, 393), (501, 393), (501, 393), (501, 393), (501, 393), (501, 393), (501, 393), (501, 393), (501, 393), (501, 393), (501, 393), (501, 393), (501, 393), (501, 393), (501, 393), (501, 393), (501, 393), (501, 393), (501, 393), (501, 393), (501, 393), (501, 393), (501, 393), (501, 393), (501, 393), (501, 393), (501, 393), (501, 393), (501, 393), (501, 393), (501, 393), (501, 393), (501, 393), (501, 393), (501, 393), (501, 393), (501, 393), (501, 393), (501, 393), (501, 393), (501, 393), (501, 393), (501, 393), (501, 393), (501, 393), (501, 393), (501, 393), (501, 393), (501, 393), (501, 393), (501, 393), (501, 393), (501, 393), (501, 393), (501, 393), (501, 393), (501, 393), (501, 393), (501, 393), (500, 394), (500, 394), (500, 394), (500, 394), (499, 395), (498, 396), (497, 396), (496, 396), (492, 397), (491, 397), (488, 397), (486, 397), (482, 398), (481, 398), (478, 398), (477, 399), (475, 399), (473, 399), (470, 400), (467, 400), (463, 401), (461, 401), (458, 401), (457, 402), (454, 404), (454, 404), (454, 404), (453, 404), (451, 406), (450, 406), (449, 407), (448, 407), (448, 409), (447, 409), (446, 410), (445, 410), (444, 413), (441, 416), (440, 417), (439, 418), (435, 422), (434, 424), (431, 427), (429, 429), (425, 433), (423, 435), (422, 437), (419, 440), (414, 446), (411, 450), (408, 452), (405, 454), (397, 459), (392, 462), (386, 466), (381, 468), (371, 475), (369, 477), (364, 481), (359, 485), (352, 491), (347, 495), (343, 499), (339, 504), (331, 514), (329, 516), (325, 520), (321, 525), (316, 532), (313, 535), (310, 541)]",142.1446583705914,"[4, 9, 5, 2, 7, 3, 8, 1, 6]","(0, 0.25)",THI005C,THI,C,Chinese,Fri Aug 17 13:00:47 2018,Mouse
2,2,3,0,27,5,5,1,902,542,360,142,0,500,200,8000,"[(512, 384), (512, 384), (512, 384), (512, 384), (512, 384), (512, 384), (512, 384), (512, 384), (512, 384), (512, 384), (512, 384), (512, 384), (512, 384), (512, 384), (512, 384), (512, 384), (512, 384), (512, 384), (512, 384), (512, 384), (512, 384), (512, 384), (512, 384), (512, 384), (512, 384), (512, 384), (512, 384), (512, 384), (512, 384), (512, 384), (512, 384), (512, 384), (512, 384), (512, 384), (512, 384), (512, 384), (512, 384), (512, 384), (512, 384), (512, 384), (512, 384), (512, 384), (512, 384), (512, 384), (512, 384), (512, 384), (512, 384), (512, 384), (512, 384), (512, 384), (512, 384), (512, 384), (512, 384), (512, 384), (511, 387), (511, 394), (511, 402), (511, 408), (511, 423), (511, 429), (510, 434), (510, 439), (507, 450), (506, 456), (504, 462), (503, 466), (499, 478), (497, 486), (495, 491), (491, 506), (488, 513), (488, 517), (487, 522), (483, 534), (482, 538), (480, 543), (478, 547), (477, 553), (473, 566), (473, 573), (472, 579), (471, 585), (468, 596), (467, 602), (467, 606), (467, 609), (466, 616), (466, 619), (466, 622), (464, 628), (464, 636)]",100.78429786756261,"[4, 9, 5, 2, 7, 3, 8, 1, 6]","(0, 0.25)",THI005C,THI,C,Chinese,Fri Aug 17 13:00:47 2018,Mouse
2,2,3,0,28,9,1,0,-2507,1147,1360,142,0,500,200,8000,"[(512, 384), (512, 384), (512, 384), (512, 384), (512, 384), (512, 384), (512, 384), (512, 384), (512, 384), (512, 384), (512, 384), (512, 384), (512, 384), (512, 384), (512, 384), (512, 384), (512, 384), (512, 384), (512, 384), (512, 384), (512, 384), (512, 384), (512, 384), (512, 384), (512, 384), (512, 384), (512, 384), (512, 384), (512, 384), (512, 384), (512, 384), (512, 384), (512, 384), (512, 384), (512, 384), (512, 384), (512, 384), (512, 384), (512, 384), (512, 384), (512, 384), (512, 384), (512, 384), (512, 384), (512, 384), (512, 384), (512, 384), (512, 384), (512, 384), (512, 384), (512, 384), (512, 384), (512, 384), (512, 384), (512, 384), (512, 384), (512, 384), (512, 384), (512, 384), (512, 384), (512, 384), (512, 384), (512, 384), (512, 384), (512, 384), (512, 384), (512, 384), (512, 384), (512, 384), (512, 384), (512, 384), (512, 384), (512, 384), (512, 384), (512, 384), (512, 384), (512, 384), (512, 384), (512, 384), (512, 384), (512, 384), (512, 384), (512, 384), (512, 384), (512, 384), (512, 384), (512, 384), (512, 384), (512, 384), (512, 384), (512, 384), (512, 384), (512, 384), (512, 384), (512, 384), (512, 384), (512, 384), (512, 384), (512, 384), (512, 384), (512, 384), (512, 384), (512, 384), (512, 384), (512, 384), (512, 384), (512, 384), (512, 384), (512, 384), (512, 384), (512, 384), (512, 384), (512, 384), (512, 384), (513, 384), (515, 384), (517, 385), (520, 386), (529, 387), (532, 387), (535, 387), (536, 388), (536, 388), (536, 388), (536, 388), (536, 388), (536, 388), (536, 388), (536, 388), (536, 388), (536, 388), (536, 388), (537, 388), (539, 388), (540, 388), (541, 388), (543, 387), (543, 387), (543, 387), (546, 386), (546, 386), (547, 385), (550, 384), (551, 383), (552, 382), (554, 381), (556, 380), (557, 380), (557, 380), (557, 380), (557, 380), (557, 380), (558, 380), (559, 380), (565, 377), (572, 376), (580, 373), (584, 372), (598, 369), (602, 367), (606, 366), (609, 366), (613, 364), (613, 364), (613, 363), (613, 363), (614, 363), (614, 363), (615, 362), (616, 361), (618, 360), (621, 359), (623, 357), (625, 357), (631, 355), (633, 354), (635, 353), (636, 352), (640, 349), (643, 348), (644, 347), (646, 345), (649, 343), (651, 342), (653, 341), (655, 341), (659, 339), (660, 339), (660, 339), (662, 338), (662, 338), (662, 338), (662, 338), (662, 338), (662, 338), (662, 338), (662, 338), (662, 338), (662, 338), (662, 338), (662, 338), (662, 338), (662, 338), (662, 338), (662, 338), (662, 338), (662, 338), (662, 338), (662, 338), (662, 338), (662, 338), (662, 338), (662, 337), (662, 337), (662, 337), (662, 337), (662, 337), (664, 335), (664, 334), (664, 333), (664, 332), (664, 331), (664, 329), (664, 329), (664, 328), (664, 327), (664, 326), (664, 326), (664, 326), (664, 326), (664, 326), (664, 326), (664, 326), (664, 325), (663, 324), (663, 323), (663, 322), (663, 321), (663, 316), (662, 311), (661, 309), (661, 304), (660, 290), (660, 280), (660, 269), (660, 260), (660, 234), (660, 223), (660, 212), (661, 200), (666, 172)]",305.9952208747227,"[4, 9, 5, 2, 7, 3, 8, 1, 6]","(0, 0.25)",THI005C,THI,C,Chinese,Fri Aug 17 13:00:47 2018,Mouse
2,2,3,0,29,1,1,1,1132,322,810,143,0,500,200,8000,"[(512, 384), (512, 384), (512, 384), (512, 384), (512, 384), (512, 384), (512, 384), (512, 384), (512, 384), (512, 384), (512, 384), (512, 384), (512, 384), (512, 384), (512, 384), (512, 384), (512, 384), (512, 384), (512, 384), (512, 384), (512, 384), (512, 384), (512, 384), (512, 384), (512, 384), (512, 384), (512, 384), (512, 384), (512, 384), (512, 384), (512, 384), (512, 384), (513, 385), (513, 385), (513, 385), (513, 385), (515, 385), (515, 385), (515, 385), (515, 385), (516, 385), (516, 385), (516, 385), (517, 385), (518, 384), (518, 384), (518, 384), (518, 384), (519, 384), (519, 384), (521, 383), (521, 382), (523, 382), (524, 381), (524, 381), (526, 380), (527, 378), (528, 378), (528, 378), (528, 378), (528, 377), (529, 376), (530, 375), (531, 375), (533, 373), (536, 371), (537, 369), (541, 365), (547, 356), (550, 353), (554, 347), (556, 344), (563, 330), (566, 326), (570, 319), (572, 315), (579, 304), (579, 302), (583, 298), (584, 296), (585, 294), (586, 293), (586, 293), (586, 293), (586, 293), (586, 293), (586, 293), (586, 293), (586, 293), (586, 293), (587, 292), (587, 291), (590, 289), (590, 288), (591, 287), (592, 285), (596, 280), (598, 276), (600, 273), (602, 270), (607, 260), (609, 253), (612, 247), (614, 241), (621, 230), (623, 225), (626, 218), (628, 212), (633, 201), (636, 194), (638, 191), (641, 183), (644, 174), (647, 168)]",302.0053832080835,"[4, 9, 5, 2, 7, 3, 8, 1, 6]","(0, 0.25)",THI005C,THI,C,Chinese,Fri Aug 17 13:00:47 2018,Mouse
2,2,3,0,30,5,5,1,451,31,420,143,0,500,200,8000,"[(512, 384), (512, 384), (512, 384), (511, 384), (510, 385), (509, 386), (508, 387), (508, 387), (507, 389), (506, 391), (506, 391), (505, 392), (503, 395), (502, 397), (501, 399), (501, 399), (500, 401), (500, 403), (499, 404), (499, 406), (497, 409), (497, 410), (497, 411), (497, 414), (495, 421), (492, 427), (492, 430), (490, 433), (486, 441), (483, 448), (481, 456), (478, 462), (474, 477), (473, 487), (472, 498), (469, 509), (462, 537), (461, 551), (460, 563), (459, 577), (456, 594), (455, 602), (455, 608), (454, 613), (454, 626), (454, 631)]",103.21465858563536,"[4, 9, 5, 2, 7, 3, 8, 1, 6]","(0, 0.25)",THI005C,THI,C,Chinese,Fri Aug 17 13:00:47 2018,Mouse
2,2,3,0,31,7,7,1,1172,312,860,142,0,500,200,8000,"[(512, 384), (512, 384), (512, 384), (512, 384), (512, 384), (512, 384), (512, 384), (512, 384), (512, 384), (512, 384), (512, 384), (512, 384), (512, 384), (512, 384), (512, 384), (512, 384), (512, 384), (512, 384), (512, 384), (512, 384), (512, 384), (512, 384), (512, 384), (512, 384), (512, 384), (512, 384), (512, 384), (512, 384), (512, 384), (512, 384), (512, 384), (512, 382), (512, 382), (512, 382), (512, 382), (512, 382), (512, 382), (512, 382), (512, 382), (512, 382), (512, 382), (512, 382), (512, 382), (512, 382), (512, 382), (512, 382), (512, 382), (512, 382), (512, 382), (512, 382), (512, 382), (512, 382), (512, 382), (512, 382), (512, 382), (511, 381), (510, 381), (510, 381), (509, 381), (508, 380), (508, 380), (507, 380), (507, 380), (506, 380), (506, 380), (506, 380), (506, 380), (505, 379), (505, 379), (504, 379), (504, 379), (504, 379), (504, 379), (504, 379), (504, 379), (504, 379), (503, 379), (503, 379), (503, 379), (502, 379), (502, 379), (502, 379), (502, 379), (501, 379), (501, 379), (501, 379), (501, 379), (501, 379), (500, 379), (500, 379), (499, 379), (496, 379), (495, 379), (493, 379), (490, 379), (485, 379), (482, 379), (481, 379), (478, 379), (470, 379), (467, 379), (464, 379), (458, 380), (449, 380), (444, 380), (436, 380), (428, 381), (407, 381), (396, 381), (386, 381), (373, 381), (345, 383), (327, 386), (312, 387), (299, 390), (272, 395), (263, 396), (253, 397)]",177.12656150240647,"[4, 9, 5, 2, 7, 3, 8, 1, 6]","(0, 0.25)",THI005C,THI,C,Chinese,Fri Aug 17 13:00:47 2018,Mouse
2,2,3,0,32,2,5,0,-3545,2444,1101,141,0,500,200,8000,"[(512, 384), (512, 384), (512, 384), (512, 384), (512, 384), (512, 384), (512, 384), (512, 384), (512, 384), (512, 384), (512, 384), (512, 384), (512, 384), (512, 384), (512, 384), (512, 384), (512, 384), (512, 384), (512, 384), (512, 384), (512, 384), (512, 384), (512, 384), (512, 384), (512, 384), (512, 384), (512, 384), (512, 384), (512, 384), (512, 384), (512, 384), (512, 384), (512, 384), (512, 384), (512, 384), (512, 384), (512, 384), (512, 384), (512, 384), (512, 384), (512, 384), (512, 384), (512, 384), (512, 384), (512, 384), (512, 384), (512, 384), (512, 384), (512, 384), (512, 384), (512, 384), (512, 384), (512, 384), (512, 384), (512, 384), (512, 384), (512, 384), (512, 384), (512, 384), (512, 384), (512, 384), (512, 384), (512, 384), (512, 384), (512, 384), (512, 384), (512, 384), (512, 384), (512, 384), (512, 384), (512, 384), (512, 384), (512, 384), (512, 384), (512, 384), (512, 384), (512, 384), (512, 384), (512, 384), (512, 384), (512, 384), (512, 384), (512, 384), (512, 384), (512, 384), (512, 384), (512, 384), (512, 384), (512, 384), (512, 384), (512, 384), (512, 384), (512, 384), (512, 384), (512, 384), (512, 384), (512, 384), (512, 384), (512, 384), (512, 384), (512, 384), (512, 384), (512, 384), (512, 384), (512, 384), (512, 384), (512, 384), (512, 384), (512, 384), (512, 384), (512, 384), (512, 384), (512, 384), (512, 384), (512, 384), (512, 384), (512, 384), (512, 384), (512, 384), (512, 384), (512, 384), (512, 384), (512, 384), (512, 384), (512, 384), (512, 384), (512, 384), (512, 384), (512, 384), (512, 384), (512, 384), (512, 384), (512, 384), (512, 384), (512, 384), (512, 384), (512, 384), (512, 384), (512, 384), (512, 384), (512, 384), (512, 384), (512, 384), (512, 384), (512, 384), (512, 384), (512, 384), (512, 384), (512, 384), (512, 384), (512, 384), (512, 384), (512, 384), (512, 384), (512, 384), (512, 384), (512, 384), (512, 384), (512, 384), (512, 384), (512, 384), (512, 384), (512, 384), (512, 384), (512, 384), (512, 384), (512, 384), (512, 384), (512, 384), (512, 384), (512, 384), (512, 384), (512, 384), (512, 384), (512, 384), (512, 384), (512, 384), (512, 384), (512, 384), (512, 384), (512, 384), (512, 384), (512, 384), (512, 384), (512, 384), (512, 384), (512, 384), (512, 384), (512, 384), (512, 384), (512, 384), (512, 384), (512, 384), (512, 384), (512, 384), (512, 384), (512, 384), (512, 384), (512, 384), (512, 384), (512, 384), (512, 384), (512, 384), (512, 384), (512, 384), (512, 384), (512, 384), (512, 384), (512, 384), (512, 384), (512, 384), (512, 384), (512, 384), (512, 384), (512, 384), (512, 384), (512, 384), (512, 384), (512, 384), (512, 384), (512, 384), (512, 384), (512, 384), (512, 384), (512, 384), (512, 384), (512, 384), (512, 384), (512, 384), (512, 384), (512, 384), (512, 384), (512, 384), (512, 384), (512, 384), (512, 384), (512, 384), (512, 384), (512, 384), (512, 384), (512, 384), (512, 384), (512, 384), (512, 384), (512, 382), (513, 382), (513, 381), (513, 381), (513, 381), (513, 381), (513, 381), (513, 381), (513, 381), (513, 381), (513, 381), (513, 381), (513, 381), (513, 381), (513, 381), (513, 381), (513, 381), (513, 381), (513, 381), (513, 381), (513, 381), (513, 381), (513, 381), (513, 381), (513, 381), (513, 381), (513, 381), (513, 381), (513, 381), (513, 381), (513, 381), (513, 381), (513, 381), (513, 381), (513, 381), (513, 381), (513, 381), (513, 381), (513, 381), (513, 381), (513, 381), (513, 381), (513, 381), (513, 381), (513, 381), (513, 381), (513, 381), (513, 381), (513, 381), (513, 381), (513, 381), (513, 381), (513, 381), (513, 381), (513, 381), (513, 381), (513, 381), (513, 381), (513, 381), (513, 381), (513, 381), (513, 381), (513, 381), (513, 381), (513, 381), (513, 381), (513, 381), (513, 381), (513, 381), (513, 381), (513, 381), (513, 381), (513, 381), (513, 381), (513, 381), (513, 381), (513, 381), (513, 380), (516, 380), (516, 381), (517, 386), (517, 391), (517, 399), (517, 410), (520, 432), (520, 445), (520, 456), (520, 466), (520, 484), (520, 490), (520, 496), (520, 502), (520, 513), (520, 518), (519, 524), (519, 530), (519, 545), (519, 553), (519, 559), (519, 565), (519, 579), (520, 584), (520, 588), (520, 595), (519, 604), (518, 607), (516, 612), (515, 614), (512, 624), (510, 631), (509, 637)]",90.67936475546526,"[4, 9, 5, 2, 7, 3, 8, 1, 6]","(0, 0.25)",THI005C,THI,C,Chinese,Fri Aug 17 13:00:47 2018,Mouse
2,2,3,0,33,8,4,0,-1792,1522,270,142,0,500,200,8000,"[(512, 384), (512, 384), (512, 384), (512, 384), (512, 384), (512, 384), (512, 384), (512, 384), (512, 384), (512, 384), (512, 384), (512, 384), (512, 384), (512, 384), (512, 384), (512, 384), (512, 384), (512, 384), (512, 384), (512, 384), (512, 384), (512, 384), (512, 384), (512, 384), (512, 384), (512, 384), (512, 384), (512, 384), (512, 384), (512, 384), (512, 384), (512, 384), (512, 384), (512, 384), (512, 384), (512, 384), (512, 384), (512, 384), (512, 384), (512, 384), (512, 384), (512, 384), (512, 384), (512, 384), (512, 384), (512, 384), (512, 384), (512, 384), (512, 384), (512, 384), (512, 384), (512, 384), (512, 384), (512, 384), (512, 384), (512, 384), (512, 384), (512, 384), (512, 384), (512, 384), (512, 384), (512, 384), (512, 384), (512, 384), (512, 384), (512, 384), (512, 384), (512, 384), (512, 384), (512, 384), (512, 384), (512, 384), (512, 384), (512, 384), (512, 384), (512, 384), (512, 384), (512, 384), (512, 384), (512, 384), (512, 384), (512, 384), (512, 384), (512, 384), (512, 384), (512, 384), (512, 384), (512, 384), (512, 384), (512, 384), (512, 384), (512, 384), (512, 384), (512, 384), (512, 384), (512, 384), (512, 384), (512, 384), (512, 384), (512, 384), (512, 384), (512, 384), (512, 384), (512, 384), (512, 384), (512, 384), (512, 384), (512, 384), (512, 384), (512, 384), (512, 384), (512, 384), (512, 384), (512, 384), (512, 384), (512, 384), (512, 384), (512, 384), (512, 384), (512, 384), (512, 384), (512, 384), (512, 384), (512, 384), (512, 384), (512, 384), (512, 384), (512, 384), (512, 384), (512, 384), (512, 384), (512, 384), (512, 384), (512, 384), (512, 384), (512, 384), (512, 384), (512, 384), (512, 384), (512, 384), (512, 384), (512, 384), (512, 384), (512, 384), (512, 384), (512, 384), (512, 384), (512, 384), (512, 384), (512, 384), (512, 384), (512, 384), (514, 383), (520, 383), (542, 388), (556, 391), (570, 395), (582, 399), (602, 405), (611, 408), (615, 409), (621, 411), (632, 416), (639, 418), (647, 420), (655, 423), (676, 429), (685, 431), (694, 434), (701, 435), (711, 437), (713, 438), (714, 439), (715, 439), (716, 440), (720, 444), (723, 447), (730, 451), (742, 458), (751, 462)]",18.07460275953478,"[4, 9, 5, 2, 7, 3, 8, 1, 6]","(0, 0.25)",THI005C,THI,C,Chinese,Fri Aug 17 13:00:47 2018,Mouse
2,2,3,0,34,1,1,1,792,322,470,143,0,500,200,8000,"[(512, 384), (512, 384), (512, 384), (512, 384), (512, 384), (512, 384), (512, 384), (512, 384), (512, 384), (512, 384), (512, 384), (512, 384), (512, 384), (512, 384), (512, 384), (512, 384), (512, 384), (512, 384), (512, 384), (512, 384), (512, 384), (512, 384), (512, 384), (512, 384), (512, 384), (512, 384), (512, 384), (512, 384), (512, 384), (512, 384), (512, 384), (512, 384), (512, 383), (512, 381), (516, 378), (519, 376), (522, 373), (522, 373), (524, 371), (526, 370), (526, 370), (526, 369), (527, 368), (530, 366), (530, 365), (531, 364), (534, 361), (537, 359), (537, 359), (539, 357), (539, 357), (540, 356), (540, 356), (540, 354), (542, 351), (545, 343), (547, 341), (550, 335), (553, 330), (557, 324), (559, 319), (562, 313), (565, 304), (573, 288), (576, 281), (579, 272), (582, 265), (589, 250), (593, 242), (596, 234), (599, 228), (605, 214), (608, 208), (609, 199), (612, 193), (618, 180), (619, 174), (622, 168), (624, 165), (628, 157)]",297.067632843799,"[4, 9, 5, 2, 7, 3, 8, 1, 6]","(0, 0.25)",THI005C,THI,C,Chinese,Fri Aug 17 13:00:47 2018,Mouse
2,2,3,0,35,4,3,0,-2831,1891,940,143,0,500,200,8000,"[(512, 384), (512, 384), (512, 384), (512, 384), (512, 384), (512, 384), (512, 384), (512, 384), (512, 384), (512, 384), (512, 384), (512, 384), (512, 384), (512, 384), (512, 384), (512, 384), (512, 384), (512, 384), (512, 384), (512, 384), (512, 384), (512, 384), (512, 384), (512, 384), (512, 384), (512, 384), (512, 384), (512, 384), (512, 384), (512, 384), (512, 384), (512, 384), (512, 384), (512, 384), (512, 384), (512, 384), (512, 384), (512, 384), (512, 384), (512, 384), (512, 384), (512, 384), (512, 384), (512, 384), (512, 384), (512, 384), (512, 384), (512, 384), (512, 384), (512, 384), (512, 384), (512, 384), (512, 384), (512, 384), (512, 384), (512, 384), (512, 384), (512, 384), (512, 384), (512, 384), (512, 384), (512, 384), (512, 384), (512, 384), (512, 384), (512, 384), (512, 384), (512, 384), (512, 384), (512, 384), (512, 384), (512, 384), (512, 384), (512, 384), (512, 384), (512, 384), (512, 384), (512, 384), (512, 384), (512, 384), (512, 384), (512, 384), (512, 384), (512, 384), (512, 384), (512, 384), (512, 384), (512, 384), (512, 384), (512, 384), (512, 384), (512, 384), (512, 384), (512, 384), (512, 384), (512, 384), (512, 384), (512, 384), (512, 384), (512, 384), (512, 384), (512, 384), (512, 384), (512, 384), (512, 384), (512, 384), (512, 384), (512, 384), (512, 384), (512, 384), (512, 384), (512, 384), (512, 384), (512, 384), (512, 384), (512, 384), (512, 384), (512, 384), (512, 384), (512, 384), (512, 384), (512, 384), (512, 384), (512, 384), (512, 384), (512, 384), (512, 384), (512, 384), (512, 384), (512, 384), (512, 384), (512, 384), (512, 384), (512, 384), (512, 384), (512, 384), (512, 384), (512, 384), (512, 384), (512, 384), (512, 384), (512, 384), (512, 384), (512, 384), (512, 384), (512, 384), (512, 384), (512, 384), (512, 384), (512, 384), (512, 384), (512, 384), (512, 384), (512, 384), (512, 384), (512, 384), (512, 384), (512, 384), (512, 384), (512, 384), (512, 384), (512, 384), (512, 384), (512, 384), (512, 384), (512, 384), (512, 384), (512, 384), (512, 384), (512, 384), (512, 384), (512, 384), (512, 384), (512, 384), (512, 384), (512, 384), (512, 384), (512, 384), (512, 384), (512, 384), (512, 384), (512, 384), (512, 384), (512, 384), (512, 384), (512, 384), (512, 384), (512, 384), (512, 384), (511, 384), (510, 385), (508, 385), (508, 385), (508, 386), (508, 386), (508, 386), (507, 386), (507, 386), (507, 386), (507, 386), (507, 386), (507, 386), (507, 386), (507, 386), (507, 386), (507, 386), (507, 386), (507, 386), (507, 386), (506, 387), (505, 387), (505, 387), (504, 388), (504, 388), (504, 388), (504, 388), (504, 388), (504, 388), (504, 388), (504, 388), (504, 388), (502, 389), (502, 389), (502, 389), (502, 389), (501, 389), (501, 389), (501, 389), (501, 389), (501, 389), (501, 389), (501, 389), (501, 389), (501, 389), (501, 389), (501, 389), (501, 389), (501, 389), (500, 389), (499, 389), (498, 389), (498, 389), (496, 389), (496, 389), (494, 389), (492, 389), (492, 389), (490, 388), (489, 388), (487, 387), (485, 386), (482, 384), (476, 380), (473, 379), (468, 376), (465, 374), (456, 370), (453, 367), (448, 365), (446, 363), (439, 357), (434, 352), (431, 350), (426, 345), (421, 340), (408, 327), (401, 322), (393, 315), (384, 306), (379, 303), (377, 300), (373, 296), (365, 284), (361, 278), (356, 272), (354, 266), (350, 254), (347, 248), (345, 242), (342, 236), (337, 224), (335, 219), (331, 215), (328, 211)]",223.2351422014879,"[4, 9, 5, 2, 7, 3, 8, 1, 6]","(0, 0.25)",THI005C,THI,C,Chinese,Fri Aug 17 13:00:47 2018,Mouse
2,2,3,0,36,1,1,1,744,74,670,144,0,500,200,8000,"[(512, 384), (512, 384), (512, 384), (512, 384), (512, 384), (512, 384), (512, 384), (512, 385), (513, 387), (513, 387), (513, 388), (513, 388), (514, 389), (514, 389), (514, 389), (515, 389), (515, 389), (515, 389), (515, 391), (516, 391), (520, 391), (524, 391), (528, 392), (534, 392), (549, 392), (556, 392), (563, 392), (567, 392), (573, 392), (576, 392), (580, 391), (585, 389), (603, 383), (611, 381), (620, 378), (628, 373), (646, 366), (651, 362), (654, 359), (656, 357), (659, 354), (659, 353), (659, 352), (661, 350), (661, 349), (661, 347), (661, 345), (661, 345), (661, 342), (661, 342), (661, 340), (661, 338), (661, 334), (661, 332), (661, 330), (661, 328), (661, 324), (661, 321), (661, 318), (661, 316), (660, 308), (660, 304), (659, 298), (659, 291), (659, 277), (659, 269), (659, 261), (659, 251), (659, 235), (659, 224), (659, 214), (659, 207), (659, 191), (659, 184), (661, 178)]",305.87825225980436,"[4, 9, 5, 2, 7, 3, 8, 1, 6]","(0, 0.25)",THI005C,THI,C,Chinese,Fri Aug 17 13:00:47 2018,Mouse
2,2,3,0,37,2,2,1,1283,243,1040,144,0,500,200,8000,"[(512, 384), (512, 384), (512, 384), (512, 384), (512, 384), (512, 384), (512, 384), (512, 384), (512, 384), (512, 384), (512, 384), (512, 384), (512, 384), (512, 384), (512, 384), (512, 384), (512, 384), (512, 384), (512, 384), (512, 384), (512, 384), (512, 384), (512, 384), (512, 384), (510, 384), (510, 384), (510, 384), (510, 384), (510, 384), (510, 384), (510, 384), (510, 384), (510, 384), (510, 384), (510, 384), (510, 384), (510, 384), (507, 386), (503, 388), (502, 388), (502, 388), (502, 388), (502, 388), (502, 388), (502, 388), (502, 388), (502, 388), (502, 388), (502, 388), (502, 388), (502, 388), (502, 388), (502, 388), (502, 388), (502, 388), (502, 388), (501, 388), (499, 389), (499, 389), (498, 390), (498, 390), (496, 390), (494, 390), (494, 390), (494, 390), (494, 390), (494, 390), (493, 390), (493, 390), (493, 390), (492, 390), (491, 390), (491, 390), (490, 390), (490, 390), (490, 390), (490, 390), (490, 390), (490, 390), (490, 390), (490, 390), (490, 390), (489, 390), (488, 390), (485, 390), (482, 393), (479, 398), (478, 399), (478, 399), (478, 399), (477, 399), (477, 399), (477, 399), (477, 399), (475, 402), (473, 404), (471, 406), (467, 408), (462, 412), (460, 414), (458, 415), (456, 418), (451, 424), (449, 427), (446, 431), (442, 436), (433, 447), (425, 454), (419, 460), (411, 466), (402, 477), (398, 481), (395, 485), (392, 488), (388, 495), (385, 499), (381, 504), (376, 508), (366, 518), (362, 521), (359, 523), (356, 525), (349, 531), (348, 532), (345, 536), (342, 538), (336, 544), (332, 548), (327, 553)]",137.58787850740532,"[4, 9, 5, 2, 7, 3, 8, 1, 6]","(0, 0.25)",THI005C,THI,C,Chinese,Fri Aug 17 13:00:47 2018,Mouse
2,2,3,0,38,4,3,0,-3932,152,3780,143,0,500,200,8000,"[(512, 384), (512, 384), (512, 384), (512, 384), (512, 384), (512, 384), (512, 384), (512, 384), (512, 384), (512, 384), (512, 384), (512, 384), (512, 384), (512, 384), (512, 384), (512, 381), (512, 381), (512, 380), (512, 379), (514, 377), (514, 377), (514, 377), (514, 377), (514, 377), (514, 377), (514, 377), (514, 377), (514, 377), (514, 377), (514, 377), (514, 377), (514, 377), (514, 377), (514, 377), (514, 377), (514, 377), (514, 377), (514, 377), (514, 377), (514, 377), (514, 377), (514, 377), (514, 377), (514, 377), (514, 377), (514, 377), (514, 377), (514, 377), (514, 377), (514, 377), (514, 377), (514, 377), (514, 377), (514, 377), (514, 377), (514, 377), (514, 377), (514, 377), (514, 377), (514, 377), (514, 377), (514, 377), (514, 377), (514, 377), (515, 377), (516, 377), (518, 379), (521, 381), (521, 381), (523, 382), (524, 382), (525, 384), (527, 384), (527, 384), (530, 385), (530, 385), (530, 385), (531, 385), (533, 385), (533, 385), (533, 385), (533, 385), (534, 385), (535, 385), (536, 385), (536, 385), (539, 385), (539, 385), (540, 385), (541, 385), (542, 387), (542, 387), (542, 387), (542, 387), (542, 387), (543, 387), (543, 387), (543, 387), (544, 387), (544, 387), (544, 387), (544, 387), (544, 387), (544, 387), (544, 387), (544, 387), (544, 387), (544, 387), (544, 387), (544, 387), (546, 387), (547, 386), (547, 386), (548, 386), (549, 386), (549, 386), (549, 386), (549, 386), (549, 386), (549, 386), (549, 386), (549, 386), (549, 386), (549, 386), (549, 386), (549, 386), (549, 386), (549, 386), (549, 386), (549, 386), (549, 386), (549, 386), (549, 386), (549, 386), (549, 386), (549, 386), (549, 386), (549, 386), (551, 386), (551, 386), (551, 386), (551, 386), (552, 386), (552, 386), (552, 386), (552, 386), (552, 386), (552, 386), (552, 386), (552, 386), (552, 386), (552, 386), (552, 386), (552, 386), (552, 386), (552, 386), (552, 386), (552, 386), (552, 386), (552, 386), (552, 386), (552, 386), (552, 386), (552, 386), (552, 386), (552, 386), (552, 386), (552, 386), (552, 386), (552, 386), (552, 386), (552, 386), (552, 386), (552, 386), (552, 386), (552, 386), (552, 386), (552, 386), (552, 386), (552, 386), (552, 386), (552, 386), (552, 386), (552, 386), (552, 386), (552, 386), (552, 386), (552, 386), (552, 386), (552, 386), (553, 387), (553, 387), (553, 388), (553, 390), (553, 393), (553, 395), (553, 397), (553, 398), (553, 402), (553, 404), (553, 405), (552, 407), (552, 410), (552, 410), (552, 412), (552, 413), (552, 414), (552, 415), (552, 416), (552, 417), (552, 418), (552, 419), (552, 420), (552, 420), (552, 422), (552, 423), (552, 423), (552, 423), (552, 424), (552, 424), (552, 424), (552, 424), (552, 424), (552, 425), (552, 425), (552, 425), (552, 425), (552, 425), (552, 425), (552, 425), (552, 425), (552, 425), (552, 425), (552, 425), (552, 425), (552, 425), (552, 425), (552, 425), (552, 427), (552, 427), (551, 427), (551, 427), (551, 428), (551, 428), (551, 428), (551, 428), (551, 428), (551, 428), (551, 428), (551, 428), (551, 428), (551, 428), (551, 428), (551, 428), (551, 429), (551, 430), (551, 431), (552, 433), (554, 436), (555, 437), (555, 438), (555, 439), (555, 439), (555, 439), (555, 439), (555, 439), (555, 439), (555, 439), (555, 439), (555, 439), (555, 439), (555, 439), (555, 439), (555, 439), (555, 439), (555, 439), (555, 439), (555, 439), (555, 439), (555, 439), (555, 439), (555, 439), (555, 439), (555, 439), (555, 439), (555, 439), (555, 439), (555, 439), (555, 439), (555, 439), (555, 439), (555, 439), (555, 439), (555, 439), (554, 435), (554, 435), (553, 433), (551, 433), (547, 430), (547, 429), (546, 428), (544, 426), (541, 424), (540, 423), (538, 422), (536, 421), (533, 420), (530, 419), (529, 418), (526, 417), (521, 415), (520, 414), (518, 414), (516, 413), (512, 411), (508, 410), (506, 409), (503, 407), (495, 405), (491, 403), (486, 402), (481, 402), (473, 401), (472, 401), (469, 401), (466, 401), (460, 401), (458, 401), (456, 399), (455, 399), (449, 398), (446, 397), (445, 396), (443, 395), (438, 393), (436, 392), (434, 390), (433, 390), (430, 387), (429, 387), (426, 387), (424, 386), (418, 384), (416, 382), (414, 382), (412, 382), (409, 381), (406, 380), (404, 379), (402, 379), (397, 379), (395, 378), (394, 378), (392, 377), (392, 377), (392, 377), (392, 377), (392, 377), (392, 377), (392, 377), (392, 377), (392, 377), (392, 377), (392, 377), (392, 377), (392, 377), (392, 377), (391, 376), (391, 373), (391, 370), (391, 364), (390, 361), (389, 358), (387, 355), (385, 350), (383, 346), (382, 345), (380, 342), (375, 336), (373, 331), (372, 327), (369, 319), (365, 309), (364, 304), (359, 297), (358, 294), (348, 280), (345, 273), (342, 269), (337, 263), (326, 248), (324, 240), (318, 232), (312, 224)]",218.65980825409008,"[4, 9, 5, 2, 7, 3, 8, 1, 6]","(0, 0.25)",THI005C,THI,C,Chinese,Fri Aug 17 13:00:47 2018,Mouse
2,2,3,0,39,2,2,1,2571,2291,280,144,0,500,200,8000,"[(512, 384), (512, 384), (512, 384), (512, 384), (512, 384), (512, 384), (512, 384), (512, 384), (512, 384), (512, 384), (512, 384), (512, 384), (512, 384), (512, 384), (512, 384), (512, 384), (512, 384), (512, 384), (512, 384), (512, 384), (512, 384), (512, 384), (512, 384), (512, 384), (512, 384), (512, 384), (512, 384), (512, 384), (512, 384), (512, 384), (512, 384), (512, 384), (512, 384), (512, 384), (512, 384), (512, 384), (512, 384), (512, 384), (512, 384), (512, 384), (512, 384), (512, 384), (512, 384), (512, 384), (512, 384), (512, 384), (512, 384), (512, 384), (512, 384), (512, 384), (512, 384), (512, 384), (512, 384), (512, 384), (512, 384), (512, 384), (512, 384), (512, 384), (512, 384), (512, 384), (512, 384), (512, 384), (512, 384), (512, 384), (512, 384), (512, 384), (512, 384), (512, 384), (512, 384), (512, 384), (512, 384), (512, 384), (512, 384), (512, 384), (512, 384), (512, 384), (512, 384), (512, 384), (512, 384), (512, 384), (512, 384), (512, 384), (512, 384), (512, 384), (512, 384), (512, 384), (512, 384), (512, 384), (512, 384), (512, 384), (512, 384), (512, 384), (512, 384), (512, 384), (512, 384), (512, 384), (512, 384), (512, 384), (512, 384), (512, 384), (512, 384), (512, 384), (512, 384), (512, 384), (512, 384), (512, 384), (512, 384), (512, 384), (512, 384), (512, 384), (512, 384), (512, 384), (512, 384), (512, 384), (512, 384), (512, 384), (512, 384), (512, 384), (512, 384), (512, 384), (512, 384), (512, 384), (512, 384), (512, 384), (512, 384), (512, 384), (512, 384), (512, 384), (512, 384), (512, 384), (512, 384), (512, 384), (512, 384), (512, 384), (512, 384), (512, 384), (512, 384), (512, 384), (512, 384), (512, 384), (512, 384), (512, 384), (512, 384), (512, 384), (512, 384), (512, 384), (512, 384), (512, 384), (512, 384), (512, 384), (512, 384), (512, 384), (512, 384), (512, 384), (512, 384), (512, 384), (512, 384), (512, 384), (512, 384), (512, 384), (512, 384), (512, 384), (512, 384), (512, 384), (512, 384), (512, 384), (512, 384), (512, 384), (512, 384), (512, 384), (512, 384), (512, 384), (512, 384), (512, 384), (512, 384), (512, 384), (512, 384), (512, 384), (512, 384), (512, 384), (512, 384), (512, 384), (512, 384), (512, 384), (512, 384), (512, 384), (512, 384), (512, 384), (512, 384), (512, 384), (512, 384), (512, 384), (512, 384), (512, 384), (512, 384), (512, 384), (512, 384), (512, 384), (512, 384), (512, 384), (512, 384), (512, 384), (512, 384), (512, 384), (512, 384), (512, 384), (512, 384), (512, 384), (512, 384), (512, 384), (512, 384), (512, 384), (512, 384), (512, 384), (512, 384), (512, 384), (512, 384), (512, 384), (512, 384), (512, 384), (512, 384), (512, 384), (512, 384), (512, 384), (512, 384), (512, 384), (512, 384), (512, 384), (512, 384), (512, 386), (512, 386), (512, 386), (512, 386), (511, 388), (510, 390), (509, 390), (508, 391), (505, 394), (503, 397), (501, 400), (497, 405), (487, 416), (480, 424), (472, 433), (461, 439), (447, 451), (437, 460), (429, 466), (420, 472), (402, 487), (391, 496), (379, 504), (369, 511), (347, 527), (340, 533), (332, 538), (327, 541), (316, 549)]",139.90809556174526,"[4, 9, 5, 2, 7, 3, 8, 1, 6]","(0, 0.25)",THI005C,THI,C,Chinese,Fri Aug 17 13:00:47 2018,Mouse
2,2,3,0,40,8,4,0,-4923,542,4381,144,0,500,200,8000,"[(512, 384), (512, 384), (512, 384), (512, 384), (512, 384), (512, 384), (512, 384), (512, 384), (512, 384), (512, 384), (512, 384), (512, 384), (512, 384), (512, 384), (512, 384), (512, 384), (512, 384), (512, 384), (512, 384), (512, 384), (512, 384), (512, 384), (512, 384), (512, 384), (512, 384), (512, 384), (512, 384), (512, 384), (512, 384), (512, 384), (512, 384), (512, 384), (512, 384), (512, 384), (512, 384), (512, 384), (512, 384), (512, 384), (512, 384), (512, 384), (512, 384), (512, 384), (512, 384), (512, 384), (512, 384), (512, 384), (512, 384), (512, 384), (512, 384), (512, 384), (512, 384), (512, 384), (512, 384), (512, 384), (512, 385), (512, 386), (512, 388), (512, 388), (512, 389), (512, 390), (512, 391), (512, 393), (512, 395), (512, 395), (515, 398), (517, 400), (521, 402), (522, 404), (529, 408), (531, 409), (534, 413), (535, 414), (538, 418), (539, 419), (541, 423), (542, 424), (547, 428), (549, 430), (554, 433), (556, 436), (562, 441), (564, 442), (566, 443), (568, 445), (568, 445), (568, 445), (568, 446), (568, 446), (568, 446), (568, 446), (568, 446), (568, 446), (568, 446), (568, 446), (568, 446), (568, 446), (568, 446), (568, 446), (568, 446), (568, 446), (568, 446), (568, 446), (568, 446), (568, 446), (568, 446), (568, 446), (568, 446), (568, 446), (568, 446), (568, 446), (568, 446), (568, 446), (568, 446), (568, 446), (568, 446), (568, 446), (568, 446), (568, 446), (569, 445), (569, 445), (570, 444), (571, 443), (571, 443), (571, 443), (571, 443), (571, 443), (571, 443), (571, 443), (571, 443), (571, 443), (571, 443), (571, 443), (571, 443), (571, 442), (571, 441), (571, 441), (571, 440), (571, 440), (571, 438), (571, 438), (571, 437), (571, 437), (571, 437), (571, 435), (571, 435), (571, 435), (571, 435), (571, 435), (571, 435), (571, 435), (571, 435), (571, 435), (571, 435), (571, 435), (571, 435), (571, 435), (571, 435), (571, 435), (571, 435), (571, 435), (571, 434), (571, 434), (571, 432), (571, 431), (571, 430), (571, 429), (571, 429), (571, 428), (571, 427), (571, 427), (571, 426), (571, 426), (571, 426), (571, 426), (571, 426), (571, 426), (571, 426), (571, 426), (571, 426), (571, 426), (571, 426), (571, 426), (571, 426), (571, 426), (571, 425), (571, 425), (571, 425), (571, 425), (571, 425), (571, 425), (571, 425), (570, 425), (570, 423), (570, 423), (570, 423), (570, 423), (570, 423), (570, 423), (570, 423), (570, 423), (570, 422), (570, 422), (569, 422), (569, 422), (569, 420), (569, 420), (568, 418), (567, 418), (567, 417), (567, 417), (567, 416), (566, 416), (566, 414), (566, 414), (566, 414), (566, 414), (566, 414), (566, 414), (566, 414), (566, 414), (566, 413), (566, 413), (566, 413), (566, 413), (566, 413), (566, 413), (566, 413), (566, 413), (566, 413), (566, 413), (566, 413), (566, 413), (566, 413), (566, 413), (566, 413), (566, 413), (566, 413), (566, 413), (566, 413), (566, 413), (566, 413), (566, 412), (565, 412), (564, 411), (564, 411), (563, 410), (563, 410), (563, 410), (561, 407), (560, 406), (560, 406), (559, 404), (559, 404), (559, 404), (559, 404), (559, 404), (558, 403), (558, 403), (558, 403), (558, 403), (557, 401), (557, 401), (556, 400), (556, 400), (555, 398), (555, 398), (555, 398), (555, 398), (554, 397), (554, 397), (554, 397), (554, 397), (554, 397), (554, 397), (554, 397), (554, 397), (554, 397), (554, 397), (554, 397), (554, 397), (554, 397), (554, 397), (554, 397), (554, 397), (554, 397), (554, 397), (554, 397), (554, 397), (554, 397), (554, 397), (554, 397), (554, 397), (554, 397), (554, 397), (554, 397), (554, 397), (554, 397), (554, 397), (554, 397), (554, 397), (554, 397), (554, 397), (554, 397), (554, 397), (554, 397), (554, 397), (554, 397), (554, 397), (554, 397), (554, 397), (554, 397), (554, 397), (554, 397), (554, 397), (554, 397), (554, 397), (554, 398), (554, 399), (554, 399), (554, 399), (554, 400), (554, 400), (554, 400), (554, 400), (554, 401), (554, 401), (554, 401), (554, 401), (554, 401), (554, 401), (554, 401), (554, 401), (554, 401), (554, 401), (554, 401), (554, 401), (554, 401), (554, 401), (554, 401), (554, 401), (554, 401), (554, 401), (554, 401), (554, 401), (554, 401), (554, 401), (554, 401), (554, 401), (554, 401), (554, 401), (554, 401), (554, 401), (554, 401), (554, 401), (554, 401), (554, 401), (554, 401), (554, 401), (554, 401), (554, 401), (554, 402), (554, 402), (554, 402), (554, 402), (554, 402), (554, 402), (554, 402), (554, 402), (554, 402), (554, 402), (554, 402), (554, 402), (554, 402), (554, 402), (554, 402), (554, 402), (554, 402), (554, 402), (554, 404), (554, 404), (554, 404), (554, 404), (554, 404), (554, 404), (554, 404), (554, 404), (554, 404), (554, 404), (554, 404), (554, 404), (554, 404), (554, 404), (554, 404), (554, 404), (554, 404), (554, 404), (554, 404), (554, 404), (554, 404), (554, 404), (554, 404), (554, 404), (554, 404), (554, 404), (554, 404), (554, 404), (554, 404), (552, 404), (548, 404), (547, 404), (546, 404), (545, 403), (542, 403), (540, 402), (538, 400), (536, 400), (534, 400), (533, 400), (532, 399), (531, 399), (529, 398), (529, 398), (529, 398), (529, 398), (528, 398), (528, 398), (528, 398), (528, 398), (528, 398), (528, 398), (528, 398), (528, 398), (528, 398), (528, 398), (528, 398), (528, 398), (528, 397), (530, 396), (531, 395), (533, 394), (535, 393), (536, 393), (536, 393), (537, 393), (538, 393), (539, 393), (539, 393), (539, 393), (541, 393), (542, 393), (543, 393), (546, 393), (553, 393), (559, 393), (563, 393), (570, 393), (580, 393), (583, 393), (586, 393), (587, 393), (588, 393), (589, 393), (589, 393), (592, 393), (600, 393), (606, 393), (614, 395), (620, 398), (631, 401), (633, 402), (636, 404), (637, 404), (638, 405), (639, 405), (639, 407), (641, 407), (649, 411), (655, 413), (662, 416), (671, 418), (686, 422), (694, 427), (701, 428), (708, 431), (717, 435), (721, 436), (724, 438), (726, 440), (732, 445), (735, 446), (738, 449), (744, 453), (752, 457)]",16.918012852078068,"[4, 9, 5, 2, 7, 3, 8, 1, 6]","(0, 0.25)",THI005C,THI,C,Chinese,Fri Aug 17 13:00:47 2018,Mouse
