NativeLangNumber,LanuageNumber,SessionNumber,Block,TrialNum,ConditionNumber,Response,Accuracy,RT,MovementOnsetTime,TimeInMotion,SignalContrast,SignalContrastNumber,StimDisplayTime,MaskTime,MaxResponseTime,MousePositionXY,MouseAngle,WheelOrder,NoiseMuSigma,ParticipantID,LanuageTested,SessionTested,NativeLanuage,Date,ResponseDevice
2,2,2,0,1,8,8,1,1679,529,1150,153,0,500,200,8000,"[(512, 384), (512, 384), (512, 384), (512, 384), (512, 384), (512, 384), (512, 384), (512, 384), (512, 384), (512, 384), (512, 384), (512, 384), (512, 384), (512, 384), (512, 384), (512, 384), (512, 384), (512, 384), (512, 384), (512, 384), (512, 384), (512, 384), (512, 384), (512, 384), (512, 384), (512, 384), (512, 384), (512, 384), (512, 384), (512, 384), (512, 384), (512, 384), (512, 384), (512, 384), (512, 384), (512, 384), (512, 384), (512, 384), (512, 384), (512, 384), (512, 384), (512, 384), (512, 384), (512, 384), (512, 384), (512, 384), (512, 384), (512, 384), (512, 384), (512, 384), (512, 384), (512, 384), (515, 384), (515, 384), (515, 384), (515, 384), (515, 384), (515, 384), (515, 384), (515, 384), (515, 384), (515, 384), (515, 384), (515, 384), (515, 384), (515, 384), (515, 384), (515, 384), (515, 384), (515, 384), (515, 384), (515, 384), (515, 384), (515, 384), (515, 384), (515, 384), (515, 384), (515, 384), (515, 384), (515, 384), (515, 384), (515, 384), (515, 384), (515, 384), (515, 384), (515, 384), (515, 384), (515, 384), (515, 384), (515, 384), (515, 384), (515, 384), (515, 384), (515, 384), (515, 384), (515, 384), (515, 384), (515, 384), (515, 384), (515, 384), (515, 384), (515, 384), (515, 384), (515, 384), (515, 384), (515, 384), (515, 384), (515, 384), (515, 384), (515, 384), (515, 384), (515, 384), (515, 384), (515, 384), (515, 384), (515, 384), (515, 384), (515, 384), (515, 384), (515, 384), (515, 384), (515, 384), (515, 384), (515, 384), (515, 384), (515, 384), (515, 384), (515, 384), (515, 384), (515, 384), (515, 384), (515, 384), (515, 384), (515, 385), (518, 392), (520, 396), (521, 399), (521, 399), (522, 400), (523, 398), (523, 396), (523, 393), (523, 388), (523, 372), (522, 363), (518, 352), (517, 341), (513, 320), (510, 307), (506, 297), (505, 288), (500, 268), (499, 257), (498, 246), (494, 237), (493, 218), (491, 212), (489, 204), (486, 195), (480, 181), (479, 178), (478, 173), (476, 167), (473, 158), (473, 155), (473, 150), (471, 145), (469, 137)]",260.1244039267336,"[4, 9, 3, 5, 7, 6, 8, 2, 1]","(0, 0.25)",THI006B,THI,B,Chinese,Tue Oct  9 12:49:18 2018,Mouse
2,2,2,0,2,1,1,1,1077,297,780,153,0,500,200,8000,"[(512, 384), (512, 384), (512, 384), (512, 384), (512, 384), (512, 384), (512, 384), (512, 384), (512, 384), (512, 384), (512, 384), (512, 384), (512, 384), (512, 384), (512, 384), (512, 384), (512, 384), (512, 384), (512, 384), (512, 384), (512, 384), (512, 384), (512, 384), (512, 384), (512, 384), (512, 384), (512, 384), (512, 384), (512, 384), (512, 385), (512, 385), (512, 385), (512, 385), (512, 385), (512, 385), (512, 385), (512, 385), (512, 385), (512, 385), (512, 385), (512, 385), (512, 385), (512, 385), (512, 385), (512, 385), (512, 385), (512, 385), (512, 385), (512, 385), (512, 385), (512, 385), (512, 385), (512, 385), (512, 385), (512, 385), (512, 385), (512, 385), (512, 385), (512, 385), (512, 385), (512, 385), (512, 385), (512, 385), (512, 385), (512, 385), (512, 385), (512, 385), (512, 385), (512, 385), (512, 385), (512, 385), (515, 387), (523, 387), (526, 387), (526, 386), (528, 385), (533, 383), (536, 382), (538, 381), (543, 379), (555, 374), (560, 373), (565, 371), (572, 369), (587, 366), (592, 365), (599, 364), (606, 364), (622, 360), (626, 359), (631, 358), (637, 355), (644, 354), (647, 354), (652, 351), (656, 350), (665, 348), (670, 346), (677, 344), (686, 341), (704, 336), (714, 331), (721, 328), (730, 324), (743, 319), (748, 316), (750, 315), (755, 313)]",343.7126366053765,"[4, 9, 3, 5, 7, 6, 8, 2, 1]","(0, 0.25)",THI006B,THI,B,Chinese,Tue Oct  9 12:49:18 2018,Mouse
2,2,2,0,3,3,3,1,1192,402,790,152,0,500,200,8000,"[(512, 384), (512, 384), (512, 384), (512, 384), (512, 384), (512, 384), (512, 384), (512, 384), (512, 384), (512, 384), (512, 384), (512, 384), (512, 384), (512, 384), (512, 384), (512, 384), (512, 384), (512, 384), (512, 384), (512, 384), (512, 384), (512, 384), (512, 384), (512, 384), (512, 384), (512, 384), (512, 384), (512, 384), (512, 384), (512, 384), (512, 384), (512, 384), (512, 384), (512, 384), (512, 384), (512, 384), (512, 384), (512, 384), (512, 384), (512, 384), (511, 384), (511, 384), (511, 384), (511, 384), (511, 384), (511, 384), (511, 384), (511, 384), (511, 384), (511, 384), (511, 384), (511, 384), (511, 384), (511, 384), (511, 384), (511, 384), (511, 384), (511, 384), (511, 384), (511, 384), (511, 384), (511, 384), (511, 384), (511, 384), (511, 384), (511, 384), (511, 384), (511, 384), (511, 384), (511, 384), (511, 384), (511, 384), (511, 384), (511, 384), (511, 384), (511, 384), (511, 384), (511, 384), (511, 384), (511, 384), (511, 384), (511, 384), (511, 384), (511, 384), (511, 384), (511, 384), (511, 384), (511, 384), (511, 384), (511, 384), (511, 384), (511, 384), (511, 386), (509, 395), (508, 396), (505, 398), (501, 403), (489, 420), (481, 431), (474, 441), (471, 449), (464, 467), (463, 474), (459, 483), (458, 490), (457, 508), (456, 517), (456, 528), (453, 538), (451, 559), (449, 569), (449, 578), (449, 586), (449, 600), (449, 604), (449, 610), (449, 614), (449, 621), (449, 624), (449, 627)]",104.53445508054013,"[4, 9, 3, 5, 7, 6, 8, 2, 1]","(0, 0.25)",THI006B,THI,B,Chinese,Tue Oct  9 12:49:18 2018,Mouse
2,2,2,0,4,2,2,1,2282,972,1310,151,0,500,200,8000,"[(512, 384), (512, 384), (512, 384), (512, 384), (512, 384), (512, 384), (512, 384), (512, 384), (512, 384), (512, 384), (512, 384), (512, 384), (512, 384), (512, 384), (512, 384), (512, 384), (512, 384), (512, 384), (512, 384), (512, 384), (512, 384), (512, 384), (512, 384), (512, 384), (512, 384), (512, 384), (512, 384), (512, 384), (512, 384), (512, 384), (512, 384), (512, 384), (512, 384), (512, 384), (512, 384), (512, 384), (512, 384), (512, 384), (512, 384), (512, 384), (512, 384), (512, 384), (512, 384), (512, 384), (512, 384), (512, 384), (512, 384), (512, 384), (512, 384), (512, 384), (512, 384), (512, 384), (512, 384), (512, 384), (512, 384), (512, 384), (512, 384), (512, 384), (512, 384), (512, 384), (512, 384), (512, 384), (512, 384), (512, 384), (512, 384), (512, 384), (512, 384), (512, 384), (512, 384), (512, 384), (512, 384), (512, 384), (512, 384), (512, 384), (512, 384), (512, 384), (512, 384), (512, 384), (512, 384), (512, 384), (512, 384), (512, 384), (512, 384), (512, 384), (512, 384), (512, 384), (512, 384), (512, 384), (512, 384), (512, 384), (512, 384), (512, 384), (512, 384), (512, 384), (512, 384), (512, 384), (512, 384), (513, 386), (514, 388), (514, 389), (514, 390), (514, 391), (514, 391), (514, 391), (514, 391), (514, 392), (514, 392), (514, 392), (514, 392), (514, 392), (514, 392), (514, 392), (514, 392), (514, 392), (514, 392), (514, 392), (514, 392), (514, 392), (514, 392), (514, 392), (514, 392), (514, 392), (514, 392), (514, 392), (514, 392), (514, 392), (514, 392), (514, 392), (513, 392), (513, 392), (513, 392), (513, 392), (513, 392), (513, 392), (513, 392), (513, 392), (513, 392), (513, 392), (512, 392), (512, 392), (511, 392), (510, 392), (509, 392), (508, 392), (507, 392), (507, 392), (507, 392), (507, 392), (507, 392), (507, 392), (507, 392), (507, 392), (507, 392), (507, 392), (507, 392), (507, 392), (507, 392), (507, 392), (507, 392), (507, 392), (507, 392), (506, 392), (503, 391), (502, 391), (501, 390), (500, 390), (500, 390), (498, 389), (498, 389), (498, 389), (498, 389), (498, 389), (498, 389), (498, 389), (498, 389), (498, 389), (496, 386), (496, 379), (496, 375), (496, 371), (496, 368), (496, 365), (496, 362), (496, 361), (496, 360), (497, 359), (497, 357), (497, 356), (498, 355), (499, 349), (499, 349), (500, 348), (500, 346), (501, 344), (501, 342), (504, 339), (507, 334), (509, 324), (514, 317), (519, 307), (525, 296), (539, 272), (545, 263), (551, 254), (557, 244), (566, 232), (574, 224), (579, 219), (582, 216), (594, 205), (597, 199), (602, 194), (606, 189), (612, 183), (614, 180), (616, 179), (620, 178), (622, 176), (623, 175), (623, 175), (624, 175), (624, 175), (627, 173), (628, 173), (631, 172), (634, 170), (635, 170), (637, 168), (638, 168)]",300.25643716352926,"[4, 9, 3, 5, 7, 6, 8, 2, 1]","(0, 0.25)",THI006B,THI,B,Chinese,Tue Oct  9 12:49:18 2018,Mouse
2,2,2,0,5,9,9,1,2253,243,2010,150,0,500,200,8000,"[(512, 384), (512, 384), (512, 384), (512, 384), (512, 384), (512, 384), (512, 384), (512, 384), (512, 384), (512, 384), (512, 384), (512, 384), (512, 384), (512, 384), (512, 384), (512, 384), (512, 384), (512, 384), (512, 384), (512, 384), (512, 384), (512, 384), (512, 384), (512, 384), (512, 385), (513, 385), (513, 386), (515, 388), (515, 388), (515, 388), (515, 388), (515, 388), (515, 388), (515, 388), (515, 388), (515, 388), (515, 388), (515, 388), (515, 388), (515, 388), (515, 388), (515, 388), (515, 388), (515, 388), (515, 388), (515, 388), (515, 388), (515, 388), (515, 388), (515, 388), (515, 388), (515, 388), (515, 388), (515, 388), (515, 388), (515, 388), (515, 388), (515, 388), (515, 388), (515, 388), (515, 388), (515, 388), (515, 388), (515, 388), (515, 388), (515, 388), (515, 388), (515, 388), (515, 388), (515, 388), (515, 388), (515, 388), (515, 388), (515, 388), (515, 388), (515, 388), (515, 388), (515, 388), (515, 388), (515, 388), (515, 388), (515, 388), (515, 388), (515, 388), (515, 388), (515, 388), (515, 388), (515, 388), (515, 388), (515, 388), (515, 388), (515, 388), (515, 388), (515, 388), (515, 388), (515, 388), (515, 388), (515, 388), (515, 388), (515, 388), (515, 388), (515, 388), (515, 388), (515, 388), (515, 388), (515, 388), (515, 388), (515, 388), (515, 388), (515, 388), (515, 388), (515, 388), (515, 388), (515, 388), (515, 388), (515, 388), (515, 388), (515, 388), (515, 388), (515, 388), (515, 388), (515, 388), (515, 388), (515, 388), (515, 388), (515, 388), (515, 388), (515, 388), (515, 388), (515, 388), (515, 388), (515, 388), (515, 388), (515, 388), (515, 388), (515, 388), (515, 388), (515, 388), (515, 388), (515, 388), (515, 388), (515, 388), (515, 388), (515, 388), (515, 388), (515, 388), (515, 388), (515, 388), (515, 388), (515, 388), (515, 388), (515, 388), (515, 388), (515, 388), (515, 388), (515, 388), (515, 388), (515, 388), (515, 388), (515, 388), (515, 388), (515, 388), (515, 388), (515, 388), (515, 388), (515, 388), (515, 388), (515, 388), (515, 388), (515, 388), (515, 388), (515, 388), (515, 388), (515, 388), (515, 388), (515, 388), (515, 388), (515, 388), (515, 388), (515, 388), (515, 388), (515, 388), (515, 388), (515, 388), (515, 388), (515, 388), (515, 388), (515, 390), (515, 391), (515, 395), (515, 396), (515, 397), (515, 398), (515, 399), (515, 400), (515, 400), (515, 400), (515, 403), (516, 405), (517, 407), (517, 410), (520, 418), (520, 422), (520, 428), (523, 437), (526, 457), (528, 471), (533, 485), (537, 496), (548, 519), (551, 529), (555, 536), (561, 547), (569, 561), (572, 567), (574, 571), (576, 575), (581, 585), (581, 588), (581, 593), (584, 600), (586, 612), (586, 616), (588, 619), (589, 621), (590, 624)]",71.99583839408662,"[4, 9, 3, 5, 7, 6, 8, 2, 1]","(0, 0.25)",THI006B,THI,B,Chinese,Tue Oct  9 12:49:18 2018,Mouse
2,2,2,0,6,3,3,1,1501,42,1459,149,0,500,200,8000,"[(512, 384), (512, 384), (512, 384), (512, 384), (512, 383), (514, 383), (517, 383), (519, 383), (519, 383), (519, 383), (519, 383), (519, 383), (519, 383), (519, 383), (521, 383), (523, 383), (528, 380), (532, 377), (533, 376), (534, 375), (536, 373), (536, 373), (536, 373), (536, 373), (536, 373), (536, 373), (536, 373), (536, 373), (536, 373), (536, 373), (536, 373), (536, 373), (536, 373), (536, 373), (536, 373), (536, 373), (536, 373), (536, 373), (536, 373), (536, 373), (536, 373), (536, 373), (536, 373), (536, 373), (536, 373), (536, 373), (536, 373), (536, 373), (536, 373), (536, 373), (536, 373), (536, 373), (536, 373), (536, 373), (536, 373), (536, 373), (536, 373), (536, 373), (536, 373), (536, 373), (536, 373), (536, 373), (536, 373), (536, 373), (536, 373), (536, 373), (536, 373), (536, 373), (536, 373), (536, 373), (536, 373), (536, 373), (536, 373), (536, 373), (536, 373), (536, 373), (536, 373), (536, 373), (536, 373), (536, 373), (536, 373), (536, 373), (536, 373), (536, 373), (536, 373), (536, 373), (536, 373), (536, 373), (536, 373), (536, 373), (536, 374), (536, 374), (536, 374), (536, 374), (536, 374), (536, 374), (536, 374), (536, 374), (536, 374), (536, 374), (536, 374), (536, 374), (536, 374), (535, 374), (532, 377), (528, 383), (526, 388), (520, 393), (515, 400), (505, 418), (502, 426), (499, 437), (497, 445), (493, 467), (490, 475), (489, 484), (488, 492), (485, 506), (484, 513), (483, 522), (483, 529), (479, 542), (476, 549), (476, 555), (475, 560), (475, 571), (474, 576), (473, 579), (473, 580), (471, 588), (471, 593), (470, 598), (470, 605), (467, 613), (467, 616), (467, 618), (467, 619), (466, 620), (466, 622), (466, 622), (466, 622), (466, 624), (466, 624), (466, 624), (466, 624), (466, 625), (465, 625), (465, 627), (464, 629), (464, 629), (464, 630)]",101.04094018032374,"[4, 9, 3, 5, 7, 6, 8, 2, 1]","(0, 0.25)",THI006B,THI,B,Chinese,Tue Oct  9 12:49:18 2018,Mouse
2,2,2,0,7,5,5,1,1758,908,850,148,0,500,200,8000,"[(512, 384), (512, 384), (512, 384), (512, 384), (512, 384), (512, 384), (512, 384), (512, 384), (512, 384), (512, 384), (512, 384), (512, 384), (512, 384), (512, 384), (512, 384), (512, 384), (512, 384), (512, 384), (512, 384), (512, 384), (512, 384), (512, 384), (512, 384), (512, 384), (512, 384), (512, 384), (512, 384), (512, 384), (512, 384), (512, 384), (512, 384), (512, 384), (512, 384), (512, 384), (512, 384), (512, 384), (512, 384), (512, 384), (512, 384), (512, 384), (512, 384), (512, 384), (512, 384), (512, 384), (512, 384), (512, 384), (512, 384), (512, 384), (512, 384), (512, 384), (512, 384), (512, 384), (512, 384), (512, 384), (512, 384), (512, 384), (512, 384), (512, 384), (512, 384), (512, 384), (512, 384), (512, 384), (512, 384), (512, 384), (512, 384), (512, 384), (512, 384), (512, 384), (512, 384), (512, 384), (512, 384), (512, 384), (512, 384), (512, 384), (512, 384), (512, 384), (512, 384), (512, 384), (512, 384), (512, 384), (512, 384), (512, 384), (512, 384), (512, 384), (512, 384), (512, 384), (512, 384), (512, 384), (512, 384), (512, 384), (512, 388), (512, 388), (511, 389), (511, 389), (511, 389), (511, 389), (510, 390), (510, 390), (509, 390), (509, 390), (509, 390), (509, 390), (509, 390), (509, 390), (509, 390), (509, 390), (509, 390), (509, 390), (509, 390), (509, 390), (509, 390), (509, 390), (508, 390), (507, 390), (505, 390), (504, 390), (502, 390), (498, 390), (495, 390), (492, 389), (491, 389), (489, 389), (484, 388), (483, 387), (481, 387), (479, 387), (477, 387), (476, 386), (476, 386), (476, 386), (475, 386), (475, 386), (474, 386), (474, 386), (474, 386), (474, 386), (474, 386), (473, 386), (473, 386), (473, 386), (473, 386), (473, 386), (473, 386), (473, 386), (472, 386), (471, 385), (469, 384), (467, 383), (464, 383), (463, 383), (459, 382), (456, 380), (456, 380), (454, 379), (450, 379), (448, 379), (446, 379), (445, 379), (438, 383), (431, 391), (423, 402), (413, 416), (392, 445), (385, 456), (377, 466), (371, 475), (363, 486), (360, 491), (357, 496), (352, 501), (346, 510), (343, 516), (339, 524), (335, 530), (325, 546), (322, 551)]",138.68623024278546,"[4, 9, 3, 5, 7, 6, 8, 2, 1]","(0, 0.25)",THI006B,THI,B,Chinese,Tue Oct  9 12:49:18 2018,Mouse
2,2,2,0,8,8,8,1,2812,622,2190,147,0,500,200,8000,"[(512, 384), (512, 384), (512, 384), (512, 384), (512, 384), (512, 384), (512, 384), (512, 384), (512, 384), (512, 384), (512, 384), (512, 384), (512, 384), (512, 384), (512, 384), (512, 384), (512, 384), (512, 384), (512, 384), (512, 384), (512, 384), (512, 384), (512, 384), (512, 384), (512, 384), (512, 384), (512, 384), (512, 384), (512, 384), (512, 384), (512, 384), (512, 384), (512, 384), (512, 384), (512, 384), (512, 384), (512, 384), (512, 384), (512, 384), (512, 384), (512, 384), (512, 384), (512, 384), (512, 384), (512, 384), (512, 384), (512, 384), (512, 384), (512, 384), (512, 384), (512, 384), (512, 384), (512, 384), (512, 384), (512, 384), (512, 384), (512, 384), (512, 384), (512, 384), (512, 384), (512, 384), (512, 384), (513, 384), (514, 383), (514, 383), (516, 383), (517, 383), (517, 383), (517, 383), (517, 383), (517, 383), (517, 383), (517, 383), (517, 383), (517, 383), (517, 383), (517, 383), (517, 383), (517, 383), (517, 383), (517, 383), (517, 383), (517, 383), (517, 383), (517, 383), (517, 383), (517, 383), (517, 383), (517, 383), (517, 383), (517, 383), (517, 383), (517, 383), (517, 383), (517, 383), (517, 383), (517, 383), (517, 383), (517, 383), (517, 383), (517, 383), (517, 383), (517, 383), (517, 383), (517, 383), (517, 383), (517, 383), (517, 383), (517, 383), (517, 383), (517, 383), (517, 383), (517, 383), (517, 383), (517, 383), (517, 383), (517, 383), (517, 383), (517, 383), (517, 383), (517, 383), (517, 383), (517, 383), (517, 383), (517, 383), (517, 383), (517, 383), (517, 383), (517, 383), (517, 383), (517, 383), (517, 383), (517, 383), (517, 383), (517, 383), (517, 383), (517, 383), (517, 383), (517, 383), (517, 383), (517, 383), (517, 383), (517, 383), (517, 383), (517, 383), (517, 383), (517, 383), (517, 383), (517, 383), (517, 383), (517, 383), (517, 383), (517, 383), (517, 383), (517, 383), (517, 383), (517, 383), (517, 383), (517, 383), (517, 383), (517, 383), (517, 383), (517, 383), (517, 383), (517, 383), (517, 383), (517, 383), (517, 383), (517, 383), (517, 383), (517, 383), (517, 383), (517, 383), (517, 383), (517, 383), (517, 383), (517, 383), (517, 383), (517, 383), (517, 383), (517, 383), (517, 383), (517, 383), (517, 383), (517, 383), (517, 383), (517, 383), (517, 383), (517, 383), (517, 383), (517, 383), (517, 383), (517, 383), (517, 383), (517, 383), (517, 383), (517, 383), (517, 383), (517, 383), (517, 383), (517, 383), (517, 383), (517, 383), (517, 383), (517, 383), (517, 383), (517, 383), (517, 383), (517, 383), (517, 383), (517, 383), (517, 383), (517, 383), (517, 383), (517, 383), (517, 383), (517, 383), (517, 383), (517, 383), (517, 383), (517, 383), (517, 383), (517, 383), (517, 383), (517, 383), (517, 383), (517, 383), (517, 383), (517, 383), (517, 383), (517, 383), (517, 383), (517, 383), (517, 383), (517, 383), (517, 383), (517, 383), (517, 383), (517, 383), (517, 383), (517, 383), (517, 383), (517, 383), (517, 383), (517, 383), (517, 383), (517, 383), (517, 383), (517, 383), (517, 383), (517, 383), (517, 383), (517, 383), (517, 383), (517, 383), (517, 383), (517, 383), (517, 383), (517, 383), (517, 383), (517, 383), (517, 383), (517, 383), (517, 383), (517, 383), (517, 383), (517, 383), (517, 383), (517, 383), (517, 383), (518, 370), (518, 342), (515, 318), (511, 302), (497, 264), (486, 243), (477, 222), (467, 203), (455, 173), (449, 158), (444, 148), (441, 137)]",253.96273494288556,"[4, 9, 3, 5, 7, 6, 8, 2, 1]","(0, 0.25)",THI006B,THI,B,Chinese,Tue Oct  9 12:49:18 2018,Mouse
2,2,2,0,9,4,4,1,527,46,481,146,0,500,200,8000,"[(512, 384), (512, 384), (512, 384), (512, 384), (512, 385), (512, 385), (512, 385), (512, 385), (512, 385), (512, 385), (512, 385), (512, 385), (512, 385), (512, 385), (514, 385), (515, 388), (516, 392), (517, 392), (517, 392), (517, 392), (517, 392), (519, 393), (521, 395), (521, 396), (524, 398), (525, 400), (529, 403), (532, 405), (538, 410), (543, 413), (550, 416), (558, 420), (573, 427), (582, 431), (588, 433), (595, 436), (609, 442), (619, 444), (627, 449), (633, 452), (647, 458), (653, 460), (660, 462), (665, 463), (677, 467), (687, 468), (695, 469), (702, 470), (716, 475), (723, 478), (731, 480), (740, 484), (756, 488)]",23.085133672808276,"[4, 9, 3, 5, 7, 6, 8, 2, 1]","(0, 0.25)",THI006B,THI,B,Chinese,Tue Oct  9 12:49:18 2018,Mouse
2,2,2,0,10,2,2,1,1242,72,1170,145,0,500,200,8000,"[(512, 384), (512, 384), (512, 384), (512, 384), (512, 384), (512, 384), (512, 384), (513, 384), (513, 384), (513, 384), (513, 384), (513, 384), (513, 384), (513, 384), (513, 384), (513, 384), (513, 384), (513, 384), (513, 384), (513, 384), (513, 384), (513, 384), (513, 384), (513, 384), (513, 384), (513, 384), (513, 384), (513, 384), (513, 384), (513, 384), (513, 384), (513, 384), (513, 384), (513, 384), (513, 384), (513, 384), (513, 384), (513, 384), (513, 384), (513, 384), (513, 384), (513, 384), (513, 384), (513, 384), (513, 384), (513, 384), (513, 384), (513, 384), (513, 384), (513, 384), (513, 384), (513, 384), (513, 384), (513, 384), (513, 384), (513, 384), (513, 384), (513, 384), (513, 384), (513, 384), (513, 384), (513, 384), (513, 384), (513, 384), (513, 384), (513, 384), (513, 384), (513, 384), (513, 384), (513, 384), (513, 384), (513, 384), (513, 384), (513, 384), (513, 384), (513, 384), (513, 384), (513, 384), (513, 384), (513, 384), (513, 384), (513, 384), (513, 384), (513, 384), (513, 384), (513, 384), (513, 384), (513, 384), (516, 387), (516, 389), (518, 389), (519, 389), (521, 388), (521, 388), (521, 386), (522, 381), (527, 368), (529, 358), (533, 349), (537, 340), (544, 321), (548, 314), (552, 306), (557, 300), (570, 280), (573, 271), (578, 264), (584, 254), (592, 240), (597, 231), (600, 228), (602, 226), (607, 221), (611, 219), (613, 216), (616, 212), (623, 202), (625, 197), (627, 194), (630, 189), (635, 181), (636, 177), (638, 175), (640, 172), (641, 167)]",300.73021524592014,"[4, 9, 3, 5, 7, 6, 8, 2, 1]","(0, 0.25)",THI006B,THI,B,Chinese,Tue Oct  9 12:49:18 2018,Mouse
2,2,2,0,11,2,2,1,672,402,270,144,0,500,200,8000,"[(512, 384), (512, 384), (512, 384), (512, 384), (512, 384), (512, 384), (512, 384), (512, 384), (512, 384), (512, 384), (512, 384), (512, 384), (512, 384), (512, 384), (512, 384), (512, 384), (512, 384), (512, 384), (512, 384), (512, 384), (512, 384), (512, 384), (512, 384), (512, 384), (512, 384), (512, 384), (512, 384), (512, 384), (512, 384), (512, 384), (512, 384), (512, 384), (512, 384), (512, 384), (512, 384), (512, 384), (512, 384), (512, 384), (512, 384), (512, 384), (514, 383), (517, 382), (521, 379), (523, 376), (528, 371), (530, 368), (532, 364), (534, 361), (540, 352), (542, 349), (545, 345), (548, 342), (558, 327), (565, 318), (572, 308), (581, 297), (596, 277), (602, 267), (609, 257), (615, 247), (623, 230), (627, 220), (631, 213), (634, 206), (639, 193), (642, 186), (646, 179), (651, 169)]",302.8831380708774,"[4, 9, 3, 5, 7, 6, 8, 2, 1]","(0, 0.25)",THI006B,THI,B,Chinese,Tue Oct  9 12:49:18 2018,Mouse
2,2,2,0,12,8,8,1,1637,17,1620,143,0,500,200,8000,"[(511, 384), (511, 382), (511, 382), (511, 382), (511, 382), (511, 382), (511, 382), (511, 382), (511, 382), (511, 382), (511, 382), (511, 382), (511, 382), (511, 382), (511, 382), (511, 382), (511, 382), (511, 382), (511, 382), (511, 382), (511, 382), (511, 382), (511, 382), (511, 382), (511, 382), (511, 382), (511, 382), (511, 382), (511, 382), (511, 382), (511, 382), (511, 382), (511, 382), (511, 382), (511, 382), (511, 382), (511, 382), (511, 382), (511, 382), (511, 382), (511, 382), (511, 382), (511, 382), (511, 382), (511, 382), (511, 382), (511, 382), (511, 382), (511, 382), (511, 382), (511, 382), (511, 382), (511, 382), (511, 382), (511, 382), (511, 382), (511, 382), (511, 382), (511, 382), (511, 382), (511, 382), (511, 382), (511, 382), (511, 382), (511, 382), (511, 382), (511, 382), (511, 382), (511, 382), (511, 382), (511, 382), (511, 382), (511, 382), (511, 382), (511, 382), (511, 382), (511, 382), (511, 382), (511, 382), (511, 382), (511, 382), (511, 382), (511, 382), (511, 382), (511, 382), (511, 382), (511, 382), (511, 382), (511, 382), (511, 382), (511, 382), (511, 382), (511, 382), (511, 382), (511, 382), (511, 382), (511, 382), (511, 382), (511, 382), (511, 382), (511, 382), (511, 382), (511, 382), (511, 382), (511, 382), (511, 382), (511, 382), (511, 382), (511, 382), (511, 382), (511, 382), (511, 382), (511, 382), (511, 382), (511, 382), (511, 382), (511, 382), (511, 382), (511, 382), (511, 382), (511, 382), (511, 382), (511, 382), (511, 382), (511, 382), (511, 382), (509, 382), (509, 385), (510, 385), (510, 385), (510, 385), (510, 386), (510, 386), (510, 386), (510, 387), (510, 387), (510, 387), (510, 387), (509, 387), (509, 387), (503, 379), (498, 369), (494, 359), (487, 337), (482, 319), (475, 301), (470, 284), (456, 253), (451, 242), (447, 231), (444, 222), (441, 207), (441, 197), (441, 189), (441, 182), (441, 168), (441, 165), (441, 163), (441, 160), (442, 156), (443, 152), (443, 150), (443, 148), (443, 142)]",254.08587908478816,"[4, 9, 3, 5, 7, 6, 8, 2, 1]","(0, 0.25)",THI006B,THI,B,Chinese,Tue Oct  9 12:49:18 2018,Mouse
2,2,2,0,13,7,3,0,-1242,672,570,142,0,500,200,8000,"[(512, 384), (512, 384), (512, 384), (512, 384), (512, 384), (512, 384), (512, 384), (512, 384), (512, 384), (512, 384), (512, 384), (512, 384), (512, 384), (512, 384), (512, 384), (512, 384), (512, 384), (512, 384), (512, 384), (512, 384), (512, 384), (512, 384), (512, 384), (512, 384), (512, 384), (512, 384), (512, 384), (512, 384), (512, 384), (512, 384), (512, 384), (512, 384), (512, 384), (512, 384), (512, 384), (512, 384), (512, 384), (512, 384), (512, 384), (512, 384), (512, 384), (512, 384), (512, 384), (512, 384), (512, 384), (512, 384), (512, 384), (512, 384), (512, 384), (512, 384), (512, 384), (512, 384), (512, 384), (512, 384), (512, 384), (512, 384), (512, 384), (512, 384), (512, 384), (512, 384), (512, 384), (512, 384), (512, 384), (512, 384), (512, 384), (512, 384), (512, 384), (515, 385), (520, 390), (520, 390), (520, 390), (520, 390), (520, 390), (520, 390), (520, 390), (520, 390), (520, 390), (520, 390), (520, 390), (520, 390), (520, 390), (520, 390), (520, 390), (520, 390), (520, 390), (520, 390), (520, 390), (520, 390), (520, 390), (520, 390), (519, 390), (518, 392), (516, 394), (515, 395), (512, 398), (511, 403), (504, 414), (502, 420), (497, 427), (495, 433), (488, 449), (485, 458), (483, 463), (481, 470), (478, 485), (478, 492), (478, 500), (478, 507), (478, 518), (478, 524), (478, 529), (478, 535), (478, 545), (478, 553), (477, 557), (476, 563), (473, 576), (472, 581), (470, 587), (467, 594), (462, 607), (460, 613), (458, 619), (456, 627), (451, 642)]",103.30239438304905,"[4, 9, 3, 5, 7, 6, 8, 2, 1]","(0, 0.25)",THI006B,THI,B,Chinese,Tue Oct  9 12:49:18 2018,Mouse
2,2,2,0,14,9,9,1,642,192,450,143,0,500,200,8000,"[(512, 384), (512, 384), (512, 384), (512, 384), (512, 384), (512, 384), (512, 384), (512, 384), (512, 384), (512, 384), (512, 384), (512, 384), (512, 384), (512, 384), (512, 384), (512, 384), (512, 384), (512, 384), (512, 384), (514, 385), (517, 388), (519, 388), (520, 388), (521, 388), (526, 392), (527, 393), (530, 395), (532, 396), (539, 402), (544, 407), (548, 411), (554, 417), (565, 431), (568, 436), (571, 441), (576, 448), (582, 460), (586, 468), (588, 472), (591, 481), (595, 495), (597, 502), (599, 512), (604, 520), (613, 541), (614, 547), (614, 551), (617, 558), (617, 566), (618, 572), (619, 575), (619, 580), (619, 588), (621, 594), (622, 599), (622, 602), (623, 604), (623, 605), (623, 605), (623, 605), (623, 605), (623, 605), (623, 606), (623, 607), (625, 609)]",63.33318022743467,"[4, 9, 3, 5, 7, 6, 8, 2, 1]","(0, 0.25)",THI006B,THI,B,Chinese,Tue Oct  9 12:49:18 2018,Mouse
2,2,2,0,15,1,1,1,983,523,460,143,0,500,200,8000,"[(512, 384), (512, 384), (512, 384), (512, 384), (512, 384), (512, 384), (512, 384), (512, 384), (512, 384), (512, 384), (512, 384), (512, 384), (512, 384), (512, 384), (512, 384), (512, 384), (512, 384), (512, 384), (512, 384), (512, 384), (512, 384), (512, 384), (512, 384), (512, 384), (512, 384), (512, 384), (512, 384), (512, 384), (512, 384), (512, 384), (512, 384), (512, 384), (512, 384), (512, 384), (512, 384), (512, 384), (512, 384), (512, 384), (512, 384), (512, 384), (512, 384), (512, 384), (512, 384), (512, 384), (512, 384), (512, 384), (512, 384), (512, 384), (512, 384), (512, 384), (512, 384), (512, 384), (513, 385), (514, 390), (514, 390), (514, 390), (514, 390), (514, 390), (514, 390), (514, 390), (514, 390), (514, 390), (514, 390), (514, 390), (514, 390), (515, 390), (518, 390), (522, 390), (533, 389), (541, 387), (546, 387), (553, 386), (574, 383), (585, 382), (596, 378), (603, 377), (621, 373), (629, 371), (639, 367), (643, 365), (656, 358), (660, 355), (667, 350), (669, 347), (674, 343), (675, 342), (678, 339), (681, 338), (690, 334), (696, 331), (701, 329), (708, 326), (719, 321), (725, 320), (733, 319), (739, 318), (749, 316), (752, 315), (754, 315)]",344.0858790847882,"[4, 9, 3, 5, 7, 6, 8, 2, 1]","(0, 0.25)",THI006B,THI,B,Chinese,Tue Oct  9 12:49:18 2018,Mouse
2,2,2,0,16,5,7,0,-5261,61,5200,142,0,500,200,8000,"[(512, 384), (512, 384), (512, 384), (512, 384), (512, 384), (512, 384), (512, 383), (512, 383), (513, 383), (516, 381), (516, 381), (516, 381), (516, 381), (516, 381), (516, 381), (516, 381), (516, 381), (516, 381), (516, 381), (516, 381), (516, 381), (516, 381), (516, 381), (516, 381), (516, 381), (516, 381), (516, 381), (516, 381), (516, 381), (516, 381), (516, 381), (516, 381), (516, 381), (516, 381), (516, 381), (516, 381), (516, 381), (516, 381), (516, 381), (516, 381), (516, 381), (516, 381), (516, 381), (516, 381), (516, 381), (516, 381), (516, 381), (516, 381), (516, 381), (516, 381), (516, 381), (516, 381), (516, 381), (516, 381), (516, 381), (516, 381), (519, 381), (521, 382), (524, 384), (524, 385), (524, 385), (524, 385), (524, 385), (524, 385), (524, 385), (524, 385), (524, 385), (524, 385), (524, 385), (524, 385), (524, 385), (524, 385), (524, 385), (524, 385), (524, 385), (524, 385), (524, 385), (524, 385), (524, 385), (524, 385), (524, 385), (524, 385), (524, 385), (524, 385), (524, 385), (524, 385), (524, 385), (524, 385), (524, 385), (524, 385), (524, 385), (524, 385), (524, 385), (524, 385), (524, 385), (524, 385), (524, 385), (524, 385), (524, 385), (524, 385), (524, 385), (524, 385), (524, 385), (524, 385), (524, 385), (524, 385), (524, 385), (524, 385), (524, 385), (524, 385), (524, 385), (524, 385), (524, 385), (524, 385), (524, 385), (524, 385), (524, 385), (524, 385), (524, 385), (524, 385), (524, 385), (524, 385), (524, 385), (524, 385), (524, 385), (524, 385), (524, 385), (524, 385), (524, 385), (524, 385), (524, 385), (524, 385), (524, 385), (524, 385), (524, 385), (524, 385), (524, 385), (524, 385), (524, 385), (524, 385), (524, 385), (524, 385), (524, 385), (524, 385), (524, 385), (524, 385), (524, 385), (524, 385), (524, 385), (524, 385), (524, 385), (524, 385), (524, 385), (524, 385), (524, 385), (524, 385), (524, 385), (524, 385), (524, 385), (524, 385), (524, 385), (524, 385), (524, 385), (524, 385), (524, 385), (524, 385), (524, 385), (524, 385), (524, 385), (524, 385), (524, 385), (524, 385), (524, 385), (524, 385), (524, 385), (524, 385), (524, 385), (524, 385), (524, 385), (524, 385), (524, 385), (524, 385), (524, 385), (524, 385), (524, 385), (524, 385), (524, 385), (524, 385), (524, 385), (524, 385), (524, 385), (524, 385), (524, 385), (524, 385), (524, 385), (524, 385), (524, 385), (524, 385), (524, 385), (524, 385), (524, 385), (524, 385), (524, 385), (524, 385), (524, 385), (524, 385), (524, 385), (524, 385), (524, 385), (524, 385), (524, 385), (524, 385), (524, 385), (524, 385), (524, 385), (524, 385), (524, 385), (524, 385), (524, 385), (524, 385), (524, 385), (524, 385), (524, 385), (524, 385), (524, 385), (525, 385), (525, 387), (526, 387), (526, 387), (526, 387), (526, 387), (526, 387), (526, 387), (526, 387), (526, 388), (526, 388), (526, 389), (526, 389), (526, 389), (527, 391), (527, 391), (527, 391), (527, 391), (527, 391), (527, 391), (527, 391), (527, 391), (527, 391), (527, 391), (527, 391), (527, 391), (527, 391), (527, 391), (527, 391), (527, 391), (527, 391), (527, 391), (527, 391), (527, 391), (527, 391), (527, 391), (527, 391), (527, 391), (527, 391), (527, 391), (527, 391), (527, 391), (527, 391), (527, 391), (527, 391), (527, 391), (527, 391), (527, 391), (527, 391), (527, 391), (527, 391), (527, 391), (527, 391), (527, 391), (527, 392), (527, 392), (527, 393), (526, 394), (526, 394), (526, 394), (524, 395), (524, 395), (523, 395), (521, 396), (521, 396), (520, 397), (519, 397), (517, 398), (517, 398), (517, 398), (516, 398), (514, 398), (513, 398), (512, 398), (511, 398), (511, 398), (510, 398), (508, 399), (508, 400), (508, 400), (508, 400), (508, 400), (508, 400), (508, 400), (508, 400), (508, 400), (508, 400), (508, 400), (508, 400), (508, 400), (505, 400), (504, 400), (502, 400), (499, 400), (498, 400), (495, 400), (493, 400), (491, 400), (486, 400), (483, 400), (480, 400), (474, 400), (470, 400), (466, 400), (464, 400), (462, 400), (460, 400), (458, 400), (456, 400), (455, 400), (454, 400), (453, 400), (453, 400), (453, 400), (453, 400), (453, 400), (453, 400), (453, 400), (453, 400), (453, 400), (453, 400), (453, 400), (453, 400), (453, 401), (453, 403), (452, 411), (452, 416), (450, 422), (450, 426), (450, 439), (450, 444), (450, 450), (450, 454), (450, 461), (450, 467), (450, 470), (451, 474), (451, 477), (451, 483), (451, 486), (454, 489), (455, 494), (456, 495), (458, 497), (458, 499), (459, 502), (459, 503), (461, 506), (461, 507), (463, 511), (464, 514), (465, 516), (465, 518), (467, 524), (467, 525), (468, 527), (468, 527), (468, 527), (468, 527), (468, 527), (468, 527), (468, 527), (468, 527), (468, 527), (468, 527), (468, 527), (468, 528), (468, 528), (468, 528), (469, 529), (469, 529), (469, 529), (469, 529), (469, 529), (469, 529), (469, 529), (469, 530), (470, 530), (471, 530), (472, 530), (474, 530), (476, 531), (479, 532), (479, 533), (482, 534), (486, 535), (490, 537), (495, 538), (500, 539), (508, 541), (511, 542), (513, 543), (516, 544), (518, 545), (519, 545), (519, 545), (519, 545), (521, 545), (521, 545), (521, 545), (521, 545), (521, 545), (521, 545), (521, 545), (521, 545), (521, 545), (521, 545), (521, 545), (521, 545), (521, 545), (521, 545), (521, 545), (521, 545), (521, 545), (521, 545), (521, 545), (521, 545), (521, 545), (521, 545), (521, 545), (521, 545), (521, 545), (521, 545), (521, 545), (521, 545), (521, 545), (521, 545), (521, 545), (521, 545), (521, 545), (521, 545), (521, 545), (521, 545), (517, 545), (515, 544), (509, 542), (503, 541), (489, 535), (483, 534), (476, 530), (471, 528), (460, 524), (454, 519), (450, 518), (445, 515), (440, 512), (438, 509), (435, 508), (431, 504), (420, 498), (416, 496), (410, 493), (404, 491), (393, 486), (385, 480), (378, 476), (371, 472), (355, 463), (348, 459), (342, 455), (337, 452), (327, 447), (325, 446), (323, 445), (321, 444), (317, 441), (315, 439), (312, 437), (310, 435), (303, 431), (298, 427), (297, 425), (293, 423), (290, 421), (288, 419), (288, 419), (287, 419), (284, 417), (282, 416), (282, 416), (281, 415), (279, 414), (277, 413), (277, 412), (276, 412), (275, 411), (274, 411), (274, 411), (274, 411), (272, 409), (271, 409), (271, 408), (270, 408), (268, 407), (268, 406), (267, 405), (266, 405), (264, 403), (264, 403), (264, 403), (263, 402), (262, 402)]",175.88181029601122,"[4, 9, 3, 5, 7, 6, 8, 2, 1]","(0, 0.25)",THI006B,THI,B,Chinese,Tue Oct  9 12:49:18 2018,Mouse
2,2,2,0,17,2,4,0,-3882,72,3810,143,0,500,200,8000,"[(512, 384), (512, 384), (512, 384), (512, 384), (512, 384), (512, 384), (512, 384), (513, 385), (519, 386), (521, 387), (521, 387), (521, 387), (521, 387), (521, 387), (521, 387), (521, 387), (522, 387), (523, 387), (523, 387), (525, 387), (530, 387), (530, 387), (532, 387), (532, 387), (532, 387), (532, 387), (532, 387), (532, 387), (532, 387), (532, 387), (532, 387), (532, 387), (532, 387), (532, 387), (532, 387), (532, 387), (532, 387), (532, 387), (532, 387), (532, 387), (532, 387), (532, 387), (532, 387), (532, 387), (532, 387), (532, 387), (532, 387), (532, 387), (532, 387), (532, 387), (532, 387), (532, 387), (532, 387), (532, 387), (532, 387), (532, 387), (532, 387), (532, 387), (532, 387), (532, 387), (532, 387), (532, 387), (532, 387), (532, 387), (532, 387), (532, 387), (532, 387), (532, 387), (532, 387), (532, 387), (532, 387), (532, 387), (532, 387), (532, 387), (532, 387), (532, 387), (532, 387), (532, 387), (532, 387), (532, 387), (532, 387), (532, 387), (532, 387), (532, 387), (532, 387), (534, 387), (537, 387), (541, 386), (542, 385), (542, 385), (542, 385), (542, 385), (542, 385), (542, 385), (542, 385), (542, 385), (542, 385), (542, 385), (542, 385), (542, 385), (542, 385), (542, 385), (542, 385), (542, 385), (542, 385), (542, 385), (542, 385), (542, 385), (542, 385), (542, 385), (542, 385), (542, 385), (542, 385), (542, 385), (542, 385), (542, 385), (542, 385), (542, 385), (542, 385), (542, 385), (542, 385), (542, 385), (542, 385), (542, 385), (542, 385), (542, 385), (542, 385), (542, 385), (542, 385), (542, 385), (542, 385), (542, 385), (542, 385), (542, 385), (542, 385), (542, 385), (542, 385), (542, 385), (542, 385), (542, 385), (542, 385), (542, 385), (542, 385), (542, 385), (542, 385), (542, 385), (542, 385), (542, 385), (542, 385), (542, 385), (542, 385), (542, 385), (542, 385), (542, 385), (542, 385), (542, 385), (542, 385), (542, 385), (542, 385), (542, 385), (542, 385), (542, 385), (542, 385), (542, 385), (542, 385), (542, 385), (542, 385), (542, 385), (542, 385), (542, 385), (542, 385), (542, 385), (542, 385), (542, 385), (542, 385), (542, 385), (542, 385), (542, 385), (542, 385), (542, 385), (542, 385), (542, 385), (542, 385), (542, 385), (542, 385), (542, 385), (542, 385), (542, 385), (542, 385), (542, 385), (542, 385), (542, 385), (542, 385), (542, 385), (542, 385), (542, 385), (542, 385), (542, 385), (542, 385), (542, 385), (542, 385), (542, 385), (542, 385), (542, 385), (542, 385), (542, 385), (542, 385), (542, 385), (542, 385), (542, 385), (542, 385), (542, 385), (542, 385), (542, 385), (542, 385), (542, 385), (542, 385), (542, 385), (542, 385), (542, 385), (542, 385), (542, 385), (542, 385), (542, 385), (542, 385), (542, 385), (542, 385), (542, 385), (542, 385), (542, 385), (542, 385), (542, 385), (542, 385), (542, 385), (542, 385), (542, 385), (542, 385), (542, 385), (542, 385), (543, 385), (547, 385), (547, 385), (548, 385), (549, 385), (552, 388), (552, 388), (553, 390), (553, 390), (553, 390), (553, 390), (553, 390), (553, 390), (553, 390), (553, 390), (553, 390), (553, 390), (553, 390), (553, 390), (553, 390), (553, 390), (555, 392), (555, 393), (556, 394), (557, 394), (560, 396), (561, 396), (562, 397), (562, 397), (566, 398), (569, 400), (570, 401), (574, 404), (582, 410), (586, 412), (587, 414), (589, 415), (594, 417), (597, 419), (598, 420), (600, 421), (602, 423), (604, 423), (606, 426), (608, 426), (611, 428), (611, 429), (612, 429), (612, 430), (614, 430), (615, 431), (615, 431), (615, 431), (616, 432), (616, 432), (616, 432), (616, 432), (616, 432), (616, 432), (616, 432), (616, 432), (616, 432), (617, 433), (617, 433), (617, 433), (617, 433), (617, 433), (617, 433), (617, 433), (617, 433), (617, 433), (617, 433), (617, 433), (617, 433), (617, 433), (617, 433), (617, 433), (617, 433), (617, 433), (617, 433), (617, 433), (617, 433), (617, 433), (617, 433), (617, 433), (617, 433), (617, 433), (617, 433), (617, 433), (617, 433), (617, 433), (617, 433), (617, 433), (617, 433), (617, 433), (617, 433), (617, 433), (617, 433), (617, 433), (617, 433), (617, 433), (617, 433), (617, 433), (617, 433), (617, 433), (617, 433), (617, 433), (617, 433), (617, 433), (617, 433), (617, 433), (617, 433), (617, 433), (617, 433), (617, 433), (617, 433), (617, 433), (617, 433), (617, 433), (617, 433), (617, 433), (617, 433), (617, 433), (617, 433), (617, 433), (617, 433), (617, 433), (617, 433), (617, 433), (617, 433), (617, 433), (617, 433), (620, 435), (622, 435), (625, 436), (630, 438), (633, 440), (645, 445), (654, 447), (664, 450), (674, 452), (688, 457), (698, 458), (708, 462), (716, 465), (728, 467), (734, 470), (738, 472), (742, 473), (745, 475)]",21.333525622203723,"[4, 9, 3, 5, 7, 6, 8, 2, 1]","(0, 0.25)",THI006B,THI,B,Chinese,Tue Oct  9 12:49:18 2018,Mouse
2,2,2,0,18,7,7,1,2265,2005,260,144,0,500,200,8000,"[(512, 384), (512, 384), (512, 384), (512, 384), (512, 384), (512, 384), (512, 384), (512, 384), (512, 384), (512, 384), (512, 384), (512, 384), (512, 384), (512, 384), (512, 384), (512, 384), (512, 384), (512, 384), (512, 384), (512, 384), (512, 384), (512, 384), (512, 384), (512, 384), (512, 384), (512, 384), (512, 384), (512, 384), (512, 384), (512, 384), (512, 384), (512, 384), (512, 384), (512, 384), (512, 384), (512, 384), (512, 384), (512, 384), (512, 384), (512, 384), (512, 384), (512, 384), (512, 384), (512, 384), (512, 384), (512, 384), (512, 384), (512, 384), (512, 384), (512, 384), (512, 384), (512, 384), (512, 384), (512, 384), (512, 384), (512, 384), (512, 384), (512, 384), (512, 384), (512, 384), (512, 384), (512, 384), (512, 384), (512, 384), (512, 384), (512, 384), (512, 384), (512, 384), (512, 384), (512, 384), (512, 384), (512, 384), (512, 384), (512, 384), (512, 384), (512, 384), (512, 384), (512, 384), (512, 384), (512, 384), (512, 384), (512, 384), (512, 384), (512, 384), (512, 384), (512, 384), (512, 384), (512, 384), (512, 384), (512, 384), (512, 384), (512, 384), (512, 384), (512, 384), (512, 384), (512, 384), (512, 384), (512, 384), (512, 384), (512, 384), (512, 384), (512, 384), (512, 384), (512, 384), (512, 384), (512, 384), (512, 384), (512, 384), (512, 384), (512, 384), (512, 384), (512, 384), (512, 384), (512, 384), (512, 384), (512, 384), (512, 384), (512, 384), (512, 384), (512, 384), (512, 384), (512, 384), (512, 384), (512, 384), (512, 384), (512, 384), (512, 384), (512, 384), (512, 384), (512, 384), (512, 384), (512, 384), (512, 384), (512, 384), (512, 384), (512, 384), (512, 384), (512, 384), (512, 384), (512, 384), (512, 384), (512, 384), (512, 384), (512, 384), (512, 384), (512, 384), (512, 384), (512, 384), (512, 384), (512, 384), (512, 384), (512, 384), (512, 384), (512, 384), (512, 384), (512, 384), (512, 384), (512, 384), (512, 384), (512, 384), (512, 384), (512, 384), (512, 384), (512, 384), (512, 384), (512, 384), (512, 384), (512, 384), (512, 384), (512, 384), (512, 384), (512, 384), (512, 384), (512, 384), (512, 384), (512, 384), (512, 384), (512, 384), (512, 384), (512, 384), (512, 384), (512, 384), (512, 384), (512, 384), (512, 384), (512, 384), (512, 384), (512, 384), (512, 384), (512, 384), (512, 384), (512, 384), (512, 384), (512, 384), (512, 384), (512, 384), (512, 384), (512, 384), (512, 384), (512, 384), (510, 382), (505, 380), (499, 379), (488, 376), (482, 375), (474, 375), (463, 374), (436, 374), (418, 370), (405, 369), (394, 368), (378, 365), (372, 364), (365, 363), (358, 359), (349, 358), (344, 358), (340, 356), (337, 356), (332, 356), (329, 356), (324, 356), (319, 356), (298, 357), (286, 358), (272, 361), (259, 363)]",184.7448992054565,"[4, 9, 3, 5, 7, 6, 8, 2, 1]","(0, 0.25)",THI006B,THI,B,Chinese,Tue Oct  9 12:49:18 2018,Mouse
2,2,2,0,19,9,9,1,1313,403,910,144,0,500,200,8000,"[(512, 384), (512, 384), (512, 384), (512, 384), (512, 384), (512, 384), (512, 384), (512, 384), (512, 384), (512, 384), (512, 384), (512, 384), (512, 384), (512, 384), (512, 384), (512, 384), (512, 384), (512, 384), (512, 384), (512, 384), (512, 384), (512, 384), (512, 384), (512, 384), (512, 384), (512, 384), (512, 384), (512, 384), (512, 384), (512, 384), (512, 384), (512, 384), (512, 384), (512, 384), (512, 384), (512, 384), (512, 384), (512, 384), (512, 384), (512, 384), (515, 384), (517, 384), (519, 384), (519, 384), (519, 384), (519, 384), (519, 384), (519, 384), (519, 384), (520, 385), (520, 385), (520, 385), (520, 385), (520, 385), (520, 385), (520, 385), (520, 385), (520, 385), (520, 385), (520, 385), (520, 385), (520, 385), (520, 385), (520, 385), (520, 385), (520, 385), (520, 385), (520, 385), (520, 385), (520, 385), (520, 385), (520, 385), (520, 385), (520, 385), (520, 385), (520, 385), (520, 385), (520, 385), (520, 385), (520, 385), (520, 385), (520, 385), (520, 385), (520, 385), (520, 385), (520, 385), (520, 385), (520, 385), (520, 385), (520, 385), (520, 385), (520, 385), (520, 385), (520, 385), (520, 385), (520, 385), (520, 385), (520, 385), (520, 385), (520, 385), (520, 385), (520, 385), (521, 385), (523, 390), (535, 399), (539, 404), (540, 405), (541, 406), (546, 411), (549, 416), (553, 420), (555, 425), (559, 437), (562, 443), (564, 450), (568, 458), (574, 473), (579, 481), (582, 490), (587, 497), (591, 513), (595, 521), (598, 527), (600, 536), (606, 549), (609, 557), (614, 564), (619, 571), (628, 586), (635, 593), (639, 598), (642, 601)]",59.07508805825506,"[4, 9, 3, 5, 7, 6, 8, 2, 1]","(0, 0.25)",THI006B,THI,B,Chinese,Tue Oct  9 12:49:18 2018,Mouse
2,2,2,0,20,6,6,1,1492,1252,240,143,0,500,200,8000,"[(512, 384), (512, 384), (512, 384), (512, 384), (512, 384), (512, 384), (512, 384), (512, 384), (512, 384), (512, 384), (512, 384), (512, 384), (512, 384), (512, 384), (512, 384), (512, 384), (512, 384), (512, 384), (512, 384), (512, 384), (512, 384), (512, 384), (512, 384), (512, 384), (512, 384), (512, 384), (512, 384), (512, 384), (512, 384), (512, 384), (512, 384), (512, 384), (512, 384), (512, 384), (512, 384), (512, 384), (512, 384), (512, 384), (512, 384), (512, 384), (512, 384), (512, 384), (512, 384), (512, 384), (512, 384), (512, 384), (512, 384), (512, 384), (512, 384), (512, 384), (512, 384), (512, 384), (512, 384), (512, 384), (512, 384), (512, 384), (512, 384), (512, 384), (512, 384), (512, 384), (512, 384), (512, 384), (512, 384), (512, 384), (512, 384), (512, 384), (512, 384), (512, 384), (512, 384), (512, 384), (512, 384), (512, 384), (512, 384), (512, 384), (512, 384), (512, 384), (512, 384), (512, 384), (512, 384), (512, 384), (512, 384), (512, 384), (512, 384), (512, 384), (512, 384), (512, 384), (512, 384), (512, 384), (512, 384), (512, 384), (512, 384), (512, 384), (512, 384), (512, 384), (512, 384), (512, 384), (512, 384), (512, 384), (512, 384), (512, 384), (512, 384), (512, 384), (512, 384), (512, 384), (512, 384), (512, 384), (512, 384), (512, 384), (512, 384), (512, 384), (512, 384), (512, 384), (512, 384), (512, 384), (512, 384), (512, 384), (512, 384), (512, 384), (512, 384), (512, 384), (512, 384), (512, 384), (512, 384), (512, 384), (512, 384), (505, 380), (498, 371), (496, 360), (491, 350), (478, 335), (470, 328), (461, 320), (451, 314), (433, 304), (426, 301), (417, 297), (407, 292), (387, 282), (381, 277), (372, 270), (365, 265), (356, 256), (351, 250), (347, 245), (343, 241), (336, 235), (332, 232), (330, 230), (326, 227), (319, 217)]",220.86914376672357,"[4, 9, 3, 5, 7, 6, 8, 2, 1]","(0, 0.25)",THI006B,THI,B,Chinese,Tue Oct  9 12:49:18 2018,Mouse
2,2,2,0,21,8,4,0,-1102,322,780,142,0,500,200,8000,"[(512, 384), (512, 384), (512, 384), (512, 384), (512, 384), (512, 384), (512, 384), (512, 384), (512, 384), (512, 384), (512, 384), (512, 384), (512, 384), (512, 384), (512, 384), (512, 384), (512, 384), (512, 384), (512, 384), (512, 384), (512, 384), (512, 384), (512, 384), (512, 384), (512, 384), (512, 384), (512, 384), (512, 384), (512, 384), (512, 384), (512, 384), (512, 384), (514, 386), (516, 386), (519, 387), (522, 388), (526, 390), (526, 390), (526, 390), (526, 390), (526, 390), (526, 390), (526, 390), (526, 390), (526, 391), (526, 391), (526, 391), (526, 390), (526, 389), (526, 388), (526, 388), (525, 387), (525, 387), (525, 387), (525, 387), (525, 387), (525, 387), (525, 387), (525, 387), (525, 387), (525, 387), (525, 387), (525, 387), (525, 387), (525, 387), (525, 387), (525, 387), (525, 387), (525, 387), (525, 387), (525, 387), (525, 387), (525, 387), (525, 387), (525, 387), (525, 387), (525, 387), (525, 387), (525, 387), (525, 387), (525, 387), (525, 387), (525, 387), (525, 387), (525, 387), (525, 387), (525, 387), (525, 387), (525, 387), (525, 387), (525, 387), (525, 387), (525, 387), (525, 387), (527, 387), (528, 387), (529, 387), (532, 387), (536, 388), (543, 391), (557, 399), (568, 403), (581, 409), (597, 415), (635, 429), (661, 439), (683, 445), (702, 450), (734, 459), (745, 462), (754, 465)]",18.505947274207028,"[4, 9, 3, 5, 7, 6, 8, 2, 1]","(0, 0.25)",THI006B,THI,B,Chinese,Tue Oct  9 12:49:18 2018,Mouse
2,2,2,0,22,2,2,1,2528,297,2231,143,0,500,200,8000,"[(512, 384), (512, 384), (512, 384), (512, 384), (512, 384), (512, 384), (512, 384), (512, 384), (512, 384), (512, 384), (512, 384), (512, 384), (512, 384), (512, 384), (512, 384), (512, 384), (512, 384), (512, 384), (512, 384), (512, 384), (512, 384), (512, 384), (512, 384), (512, 384), (512, 384), (512, 384), (512, 384), (512, 384), (512, 384), (512, 383), (512, 382), (512, 381), (512, 381), (512, 381), (512, 381), (512, 381), (512, 381), (512, 381), (512, 381), (512, 381), (512, 381), (512, 381), (512, 381), (512, 381), (512, 381), (512, 381), (512, 381), (512, 381), (512, 381), (512, 381), (512, 381), (512, 381), (512, 381), (512, 381), (512, 381), (512, 381), (512, 381), (512, 381), (512, 381), (512, 381), (512, 381), (512, 381), (512, 381), (512, 381), (512, 381), (512, 381), (512, 381), (512, 381), (512, 381), (512, 381), (512, 381), (512, 381), (512, 381), (512, 381), (512, 381), (512, 381), (512, 381), (512, 381), (512, 381), (512, 381), (512, 381), (512, 381), (512, 381), (512, 381), (512, 381), (512, 381), (512, 381), (512, 381), (512, 381), (512, 381), (512, 381), (512, 381), (512, 381), (512, 381), (512, 381), (512, 381), (512, 381), (512, 381), (512, 381), (512, 381), (512, 381), (512, 381), (512, 381), (512, 381), (512, 381), (512, 381), (512, 381), (512, 381), (512, 381), (512, 381), (512, 381), (512, 380), (512, 380), (512, 380), (512, 380), (512, 380), (512, 380), (512, 380), (512, 380), (512, 380), (512, 380), (512, 380), (512, 380), (512, 380), (512, 380), (512, 380), (512, 380), (512, 380), (512, 380), (512, 380), (512, 380), (512, 380), (512, 379), (512, 379), (512, 379), (512, 379), (512, 379), (512, 379), (512, 379), (512, 379), (512, 379), (512, 378), (512, 378), (512, 378), (512, 378), (512, 378), (512, 378), (512, 378), (512, 378), (512, 378), (512, 378), (512, 378), (512, 378), (512, 378), (512, 378), (512, 378), (512, 378), (512, 378), (512, 378), (512, 378), (512, 378), (512, 378), (512, 378), (512, 378), (512, 378), (512, 378), (512, 378), (512, 378), (512, 378), (512, 378), (512, 378), (512, 378), (512, 378), (512, 378), (512, 378), (512, 378), (512, 378), (512, 378), (512, 378), (512, 378), (512, 378), (512, 378), (512, 378), (512, 378), (512, 378), (512, 378), (512, 378), (512, 378), (512, 378), (512, 378), (512, 378), (512, 378), (512, 378), (512, 378), (512, 378), (512, 378), (512, 378), (512, 378), (512, 378), (512, 378), (512, 378), (512, 378), (512, 378), (512, 378), (512, 378), (512, 378), (512, 378), (512, 378), (512, 378), (512, 378), (512, 378), (512, 378), (512, 378), (512, 378), (512, 378), (512, 378), (512, 378), (512, 378), (512, 378), (512, 378), (512, 378), (512, 378), (512, 378), (512, 378), (512, 378), (512, 378), (513, 378), (515, 378), (518, 374), (527, 362), (534, 355), (538, 347), (545, 338), (554, 325), (559, 317), (565, 308), (572, 300), (586, 283), (593, 277), (598, 269), (604, 261), (619, 246), (625, 237), (631, 231), (634, 225), (636, 215), (639, 209), (641, 201), (643, 197), (646, 184), (648, 180), (649, 176), (651, 170)]",303.0050419348171,"[4, 9, 3, 5, 7, 6, 8, 2, 1]","(0, 0.25)",THI006B,THI,B,Chinese,Tue Oct  9 12:49:18 2018,Mouse
2,2,2,0,23,2,2,1,612,12,600,143,0,500,200,8000,"[(512, 384), (521, 384), (524, 384), (525, 382), (528, 379), (529, 376), (529, 376), (529, 376), (529, 376), (529, 376), (529, 376), (529, 376), (529, 376), (529, 376), (529, 376), (529, 376), (529, 376), (529, 376), (529, 376), (529, 376), (529, 376), (529, 376), (529, 376), (529, 376), (529, 376), (529, 376), (529, 376), (532, 376), (533, 376), (533, 376), (533, 374), (533, 371), (533, 367), (533, 362), (533, 359), (533, 355), (533, 352), (537, 340), (540, 335), (545, 325), (548, 319), (555, 310), (558, 306), (562, 301), (565, 297), (569, 290), (571, 287), (574, 282), (574, 280), (580, 272), (585, 267), (589, 262), (595, 256), (608, 246), (615, 239), (622, 230), (630, 220), (639, 202), (642, 195), (644, 188), (644, 182), (647, 173)]",302.6115368466915,"[4, 9, 3, 5, 7, 6, 8, 2, 1]","(0, 0.25)",THI006B,THI,B,Chinese,Tue Oct  9 12:49:18 2018,Mouse
2,2,2,0,24,3,3,1,1253,93,1160,142,0,500,200,8000,"[(512, 384), (512, 384), (512, 384), (512, 384), (512, 384), (512, 384), (512, 384), (512, 384), (512, 384), (513, 384), (514, 384), (518, 382), (518, 382), (518, 382), (518, 382), (518, 382), (518, 382), (518, 382), (518, 382), (518, 382), (518, 382), (518, 382), (518, 382), (518, 382), (518, 382), (518, 382), (518, 382), (518, 382), (518, 382), (518, 382), (518, 382), (518, 382), (518, 382), (518, 382), (518, 382), (518, 382), (518, 382), (518, 382), (518, 382), (518, 382), (518, 382), (518, 382), (518, 382), (518, 382), (518, 382), (518, 382), (518, 382), (518, 382), (518, 382), (518, 382), (518, 382), (518, 382), (518, 382), (518, 382), (518, 382), (518, 382), (518, 382), (518, 382), (518, 382), (518, 382), (518, 382), (518, 382), (518, 382), (518, 382), (518, 382), (518, 382), (518, 382), (518, 382), (518, 382), (518, 382), (518, 382), (518, 382), (518, 382), (518, 382), (518, 382), (518, 382), (518, 382), (518, 382), (518, 382), (518, 382), (518, 382), (518, 382), (518, 382), (518, 382), (518, 382), (518, 382), (518, 382), (518, 382), (518, 382), (518, 382), (518, 382), (518, 382), (518, 382), (518, 382), (518, 382), (518, 382), (518, 382), (518, 382), (518, 382), (520, 388), (520, 390), (520, 390), (520, 390), (520, 393), (520, 398), (520, 404), (518, 412), (513, 430), (509, 442), (503, 456), (499, 469), (490, 496), (486, 510), (483, 522), (481, 533), (478, 552), (476, 559), (474, 566), (473, 572), (470, 589), (468, 597), (466, 603), (465, 607), (461, 619), (460, 625), (458, 630)]",102.38075692880719,"[4, 9, 3, 5, 7, 6, 8, 2, 1]","(0, 0.25)",THI006B,THI,B,Chinese,Tue Oct  9 12:49:18 2018,Mouse
2,2,2,0,25,5,5,1,1152,782,370,141,0,500,200,8000,"[(512, 384), (512, 384), (512, 384), (512, 384), (512, 384), (512, 384), (512, 384), (512, 384), (512, 384), (512, 384), (512, 384), (512, 384), (512, 384), (512, 384), (512, 384), (512, 384), (512, 384), (512, 384), (512, 384), (512, 384), (512, 384), (512, 384), (512, 384), (512, 384), (512, 384), (512, 384), (512, 384), (512, 384), (512, 384), (512, 384), (512, 384), (512, 384), (512, 384), (512, 384), (512, 384), (512, 384), (512, 384), (512, 384), (512, 384), (512, 384), (512, 384), (512, 384), (512, 384), (512, 384), (512, 384), (512, 384), (512, 384), (512, 384), (512, 384), (512, 384), (512, 384), (512, 384), (512, 384), (512, 384), (512, 384), (512, 384), (512, 384), (512, 384), (512, 384), (512, 384), (512, 384), (512, 384), (512, 384), (512, 384), (512, 384), (512, 384), (512, 384), (512, 384), (512, 384), (512, 384), (512, 384), (512, 384), (512, 384), (512, 384), (512, 384), (512, 384), (512, 384), (512, 384), (508, 388), (506, 389), (506, 389), (506, 389), (506, 389), (504, 389), (502, 389), (501, 389), (495, 390), (492, 393), (490, 394), (484, 398), (468, 410), (456, 417), (445, 425), (432, 432), (408, 450), (398, 457), (391, 462), (383, 468), (372, 478), (367, 483), (361, 488), (354, 492), (346, 499), (342, 503), (338, 504), (334, 506), (329, 509), (324, 512), (320, 516), (319, 518), (315, 523), (313, 527), (312, 528), (312, 530), (311, 532), (310, 533)]",143.58663276825504,"[4, 9, 3, 5, 7, 6, 8, 2, 1]","(0, 0.25)",THI006B,THI,B,Chinese,Tue Oct  9 12:49:18 2018,Mouse
2,2,2,0,26,7,5,0,-1462,1142,320,140,0,500,200,8000,"[(512, 384), (512, 384), (512, 384), (512, 384), (512, 384), (512, 384), (512, 384), (512, 384), (512, 384), (512, 384), (512, 384), (512, 384), (512, 384), (512, 384), (512, 384), (512, 384), (512, 384), (512, 384), (512, 384), (512, 384), (512, 384), (512, 384), (512, 384), (512, 384), (512, 384), (512, 384), (512, 384), (512, 384), (512, 384), (512, 384), (512, 384), (512, 384), (512, 384), (512, 384), (512, 384), (512, 384), (512, 384), (512, 384), (512, 384), (512, 384), (512, 384), (512, 384), (512, 384), (512, 384), (512, 384), (512, 384), (512, 384), (512, 384), (512, 384), (512, 384), (512, 384), (512, 384), (512, 384), (512, 384), (512, 384), (512, 384), (512, 384), (512, 384), (512, 384), (512, 384), (512, 384), (512, 384), (512, 384), (512, 384), (512, 384), (512, 384), (512, 384), (512, 384), (512, 384), (512, 384), (512, 384), (512, 384), (512, 384), (512, 384), (512, 384), (512, 384), (512, 384), (512, 384), (512, 384), (512, 384), (512, 384), (512, 384), (512, 384), (512, 384), (512, 384), (512, 384), (512, 384), (512, 384), (512, 384), (512, 384), (512, 384), (512, 384), (512, 384), (512, 384), (512, 384), (512, 384), (512, 384), (512, 384), (512, 384), (512, 384), (512, 384), (512, 384), (512, 384), (512, 384), (512, 384), (512, 384), (512, 384), (512, 384), (512, 384), (512, 384), (512, 384), (512, 384), (512, 384), (512, 384), (512, 387), (509, 390), (507, 390), (507, 391), (505, 393), (496, 400), (490, 404), (484, 406), (478, 409), (465, 418), (458, 423), (450, 429), (443, 434), (431, 445), (424, 451), (419, 456), (416, 459), (410, 465), (406, 466), (403, 469), (401, 470), (391, 477), (383, 481), (377, 486), (370, 491), (353, 501), (346, 505), (340, 510), (332, 516), (322, 522), (319, 525), (313, 529), (309, 532)]",143.9055552033173,"[4, 9, 3, 5, 7, 6, 8, 2, 1]","(0, 0.25)",THI006B,THI,B,Chinese,Tue Oct  9 12:49:18 2018,Mouse
2,2,2,0,27,8,4,0,-1126,15,1111,141,0,500,200,8000,"[(512, 384), (514, 384), (514, 384), (514, 384), (515, 384), (517, 384), (519, 384), (522, 378), (522, 378), (522, 376), (522, 376), (522, 376), (522, 376), (522, 376), (522, 376), (522, 376), (522, 376), (522, 376), (522, 376), (522, 376), (522, 376), (522, 376), (522, 376), (522, 376), (522, 376), (522, 376), (522, 376), (522, 376), (522, 376), (522, 376), (522, 376), (522, 376), (522, 376), (522, 376), (522, 376), (522, 376), (522, 376), (522, 376), (522, 376), (522, 376), (522, 376), (522, 376), (522, 376), (522, 376), (522, 376), (522, 376), (522, 376), (522, 376), (522, 376), (522, 376), (522, 376), (522, 376), (522, 376), (522, 376), (522, 376), (522, 376), (522, 376), (522, 376), (522, 376), (522, 376), (522, 376), (522, 376), (522, 376), (522, 376), (522, 376), (522, 376), (522, 376), (522, 376), (522, 376), (522, 376), (522, 376), (522, 376), (522, 376), (522, 376), (522, 376), (522, 376), (522, 376), (522, 376), (522, 376), (522, 376), (522, 377), (522, 377), (522, 377), (522, 377), (522, 378), (522, 378), (522, 378), (522, 378), (523, 379), (526, 379), (528, 381), (530, 382), (539, 388), (547, 391), (555, 394), (561, 397), (582, 406), (595, 412), (606, 415), (615, 420), (634, 428), (644, 432), (656, 435), (666, 441), (682, 447), (692, 450), (699, 452), (706, 456), (720, 462), (724, 464), (732, 467), (739, 471), (750, 478)]",21.551937422042183,"[4, 9, 3, 5, 7, 6, 8, 2, 1]","(0, 0.25)",THI006B,THI,B,Chinese,Tue Oct  9 12:49:18 2018,Mouse
2,2,2,0,28,4,8,0,-1796,596,1200,142,0,500,200,8000,"[(512, 384), (512, 384), (512, 384), (512, 384), (512, 384), (512, 384), (512, 384), (512, 384), (512, 384), (512, 384), (512, 384), (512, 384), (512, 384), (512, 384), (512, 384), (512, 384), (512, 384), (512, 384), (512, 384), (512, 384), (512, 384), (512, 384), (512, 384), (512, 384), (512, 384), (512, 384), (512, 384), (512, 384), (512, 384), (512, 384), (512, 384), (512, 384), (512, 384), (512, 384), (512, 384), (512, 384), (512, 384), (512, 384), (512, 384), (512, 384), (512, 384), (512, 384), (512, 384), (512, 384), (512, 384), (512, 384), (512, 384), (512, 384), (512, 384), (512, 384), (512, 384), (512, 384), (512, 384), (512, 384), (512, 384), (512, 384), (512, 384), (512, 384), (512, 384), (514, 387), (516, 388), (517, 388), (519, 389), (519, 389), (519, 389), (519, 389), (519, 389), (519, 389), (519, 389), (519, 389), (519, 389), (519, 389), (519, 389), (519, 389), (519, 389), (519, 389), (519, 389), (519, 389), (519, 389), (519, 389), (519, 389), (519, 389), (519, 389), (519, 389), (519, 389), (519, 389), (519, 389), (519, 389), (519, 389), (519, 389), (519, 389), (519, 389), (519, 389), (519, 389), (519, 389), (519, 389), (519, 389), (519, 389), (519, 389), (519, 389), (519, 389), (519, 389), (519, 389), (519, 389), (519, 389), (519, 389), (519, 389), (519, 389), (519, 389), (519, 389), (519, 389), (519, 389), (519, 389), (519, 389), (519, 389), (519, 389), (519, 389), (519, 389), (519, 389), (519, 389), (519, 389), (519, 389), (519, 389), (519, 389), (519, 389), (519, 389), (519, 389), (519, 389), (519, 389), (519, 389), (519, 389), (519, 389), (519, 389), (519, 389), (519, 389), (519, 389), (519, 389), (519, 389), (519, 389), (519, 389), (519, 389), (519, 389), (519, 389), (519, 389), (519, 389), (520, 389), (519, 384), (514, 373), (511, 366), (507, 361), (503, 356), (497, 348), (495, 346), (494, 345), (494, 344), (493, 343), (493, 343), (493, 343), (493, 343), (493, 343), (493, 343), (493, 343), (493, 343), (493, 343), (493, 343), (493, 343), (493, 343), (493, 343), (493, 343), (493, 343), (493, 343), (492, 338), (492, 329), (492, 317), (492, 302), (492, 274), (491, 251), (488, 224), (483, 197), (475, 136)]",261.51442923732446,"[4, 9, 3, 5, 7, 6, 8, 2, 1]","(0, 0.25)",THI006B,THI,B,Chinese,Tue Oct  9 12:49:18 2018,Mouse
2,2,2,0,29,9,4,0,-2271,11,2260,143,0,500,200,8000,"[(512, 384), (514, 385), (514, 385), (514, 385), (516, 385), (517, 387), (519, 388), (521, 388), (525, 389), (525, 389), (526, 389), (526, 389), (526, 389), (526, 389), (526, 389), (526, 389), (526, 389), (526, 389), (526, 389), (526, 389), (527, 389), (527, 389), (527, 389), (527, 389), (527, 389), (527, 389), (527, 389), (527, 389), (527, 389), (527, 389), (527, 389), (527, 388), (527, 386), (527, 386), (527, 386), (527, 386), (527, 386), (527, 386), (527, 386), (527, 386), (527, 386), (527, 386), (527, 386), (527, 386), (527, 386), (527, 386), (527, 386), (527, 386), (527, 386), (527, 386), (527, 386), (527, 386), (527, 386), (527, 386), (527, 386), (527, 386), (527, 386), (527, 386), (527, 386), (527, 386), (527, 386), (527, 386), (527, 386), (527, 386), (527, 386), (527, 386), (527, 386), (527, 386), (527, 386), (527, 386), (527, 386), (527, 386), (527, 386), (527, 386), (527, 386), (527, 386), (527, 386), (527, 386), (527, 386), (527, 386), (527, 386), (527, 386), (527, 386), (527, 386), (527, 386), (527, 386), (527, 386), (527, 386), (527, 386), (527, 386), (527, 386), (527, 386), (527, 386), (527, 386), (527, 386), (527, 386), (527, 386), (527, 386), (527, 386), (527, 386), (527, 386), (527, 386), (527, 386), (527, 386), (527, 386), (527, 386), (527, 386), (527, 386), (527, 386), (527, 386), (527, 386), (527, 386), (527, 386), (527, 386), (527, 386), (527, 386), (527, 386), (527, 386), (527, 386), (527, 386), (527, 386), (527, 386), (527, 386), (527, 386), (527, 386), (527, 386), (527, 386), (527, 386), (527, 386), (527, 386), (528, 386), (528, 386), (529, 386), (530, 387), (530, 387), (530, 387), (531, 388), (531, 388), (531, 388), (532, 388), (532, 388), (533, 389), (533, 389), (535, 389), (536, 391), (537, 391), (538, 391), (539, 392), (542, 394), (544, 394), (545, 395), (547, 396), (549, 397), (550, 397), (550, 397), (551, 398), (553, 398), (553, 399), (554, 399), (554, 400), (554, 400), (554, 400), (554, 400), (556, 401), (556, 401), (557, 401), (557, 402), (558, 402), (560, 404), (560, 404), (560, 404), (562, 404), (564, 406), (564, 406), (565, 406), (566, 407), (566, 407), (566, 407), (567, 409), (569, 409), (570, 411), (571, 412), (572, 413), (572, 413), (574, 416), (576, 417), (578, 419), (580, 420), (587, 425), (592, 429), (598, 432), (601, 434), (608, 440), (613, 443), (617, 445), (623, 448), (636, 455), (640, 458), (642, 459), (644, 461), (648, 463), (650, 465), (653, 467), (655, 469), (658, 470), (660, 472), (662, 473), (664, 474), (669, 477), (672, 478), (675, 481), (678, 481), (686, 485), (689, 487), (694, 489), (696, 489), (700, 490), (701, 490), (704, 491), (709, 494), (714, 495), (717, 497), (719, 498), (721, 498), (728, 501), (729, 501), (732, 502), (733, 502)]",28.09939267677876,"[4, 9, 3, 5, 7, 6, 8, 2, 1]","(0, 0.25)",THI006B,THI,B,Chinese,Tue Oct  9 12:49:18 2018,Mouse
2,2,2,0,30,4,9,0,-2932,2662,270,144,0,500,200,8000,"[(512, 384), (512, 384), (512, 384), (512, 384), (512, 384), (512, 384), (512, 384), (512, 384), (512, 384), (512, 384), (512, 384), (512, 384), (512, 384), (512, 384), (512, 384), (512, 384), (512, 384), (512, 384), (512, 384), (512, 384), (512, 384), (512, 384), (512, 384), (512, 384), (512, 384), (512, 384), (512, 384), (512, 384), (512, 384), (512, 384), (512, 384), (512, 384), (512, 384), (512, 384), (512, 384), (512, 384), (512, 384), (512, 384), (512, 384), (512, 384), (512, 384), (512, 384), (512, 384), (512, 384), (512, 384), (512, 384), (512, 384), (512, 384), (512, 384), (512, 384), (512, 384), (512, 384), (512, 384), (512, 384), (512, 384), (512, 384), (512, 384), (512, 384), (512, 384), (512, 384), (512, 384), (512, 384), (512, 384), (512, 384), (512, 384), (512, 384), (512, 384), (512, 384), (512, 384), (512, 384), (512, 384), (512, 384), (512, 384), (512, 384), (512, 384), (512, 384), (512, 384), (512, 384), (512, 384), (512, 384), (512, 384), (512, 384), (512, 384), (512, 384), (512, 384), (512, 384), (512, 384), (512, 384), (512, 384), (512, 384), (512, 384), (512, 384), (512, 384), (512, 384), (512, 384), (512, 384), (512, 384), (512, 384), (512, 384), (512, 384), (512, 384), (512, 384), (512, 384), (512, 384), (512, 384), (512, 384), (512, 384), (512, 384), (512, 384), (512, 384), (512, 384), (512, 384), (512, 384), (512, 384), (512, 384), (512, 384), (512, 384), (512, 384), (512, 384), (512, 384), (512, 384), (512, 384), (512, 384), (512, 384), (512, 384), (512, 384), (512, 384), (512, 384), (512, 384), (512, 384), (512, 384), (512, 384), (512, 384), (512, 384), (512, 384), (512, 384), (512, 384), (512, 384), (512, 384), (512, 384), (512, 384), (512, 384), (512, 384), (512, 384), (512, 384), (512, 384), (512, 384), (512, 384), (512, 384), (512, 384), (512, 384), (512, 384), (512, 384), (512, 384), (512, 384), (512, 384), (512, 384), (512, 384), (512, 384), (512, 384), (512, 384), (512, 384), (512, 384), (512, 384), (512, 384), (512, 384), (512, 384), (512, 384), (512, 384), (512, 384), (512, 384), (512, 384), (512, 384), (512, 384), (512, 384), (512, 384), (512, 384), (512, 384), (512, 384), (512, 384), (512, 384), (512, 384), (512, 384), (512, 384), (512, 384), (512, 384), (512, 384), (512, 384), (512, 384), (512, 384), (512, 384), (512, 384), (512, 384), (512, 384), (512, 384), (512, 384), (512, 384), (512, 384), (512, 384), (512, 384), (512, 384), (512, 384), (512, 384), (512, 384), (512, 384), (512, 384), (512, 384), (512, 384), (512, 384), (512, 384), (512, 384), (512, 384), (512, 384), (512, 384), (512, 384), (512, 384), (512, 384), (512, 384), (512, 384), (512, 384), (512, 384), (512, 384), (512, 384), (512, 384), (512, 384), (512, 384), (512, 384), (512, 384), (512, 384), (512, 384), (512, 384), (512, 384), (512, 384), (512, 384), (512, 384), (512, 384), (512, 384), (512, 384), (512, 384), (512, 384), (512, 384), (512, 384), (512, 384), (512, 384), (512, 384), (512, 384), (512, 384), (512, 384), (512, 384), (512, 384), (512, 384), (512, 384), (512, 384), (512, 384), (512, 384), (512, 384), (512, 384), (512, 384), (512, 384), (512, 384), (512, 384), (512, 384), (512, 384), (512, 384), (512, 384), (512, 384), (514, 385), (514, 388), (514, 395), (517, 407), (518, 415), (518, 423), (519, 429), (523, 440), (525, 447), (529, 455), (533, 464), (544, 481), (549, 490), (555, 500), (561, 506), (570, 520), (572, 523), (576, 528), (580, 534), (592, 552), (597, 560), (603, 567), (608, 572), (619, 582), (625, 588), (629, 589), (631, 592), (641, 599)]",59.03624346792648,"[4, 9, 3, 5, 7, 6, 8, 2, 1]","(0, 0.25)",THI006B,THI,B,Chinese,Tue Oct  9 12:49:18 2018,Mouse
2,2,2,0,31,6,6,1,1872,451,1421,145,0,500,200,8000,"[(512, 384), (512, 384), (512, 384), (512, 384), (512, 384), (512, 384), (512, 384), (512, 384), (512, 384), (512, 384), (512, 384), (512, 384), (512, 384), (512, 384), (512, 384), (512, 384), (512, 384), (512, 384), (512, 384), (512, 384), (512, 384), (512, 384), (512, 384), (512, 384), (512, 384), (512, 384), (512, 384), (512, 384), (512, 384), (512, 384), (512, 384), (512, 384), (512, 384), (512, 384), (512, 384), (512, 384), (512, 384), (512, 384), (512, 384), (512, 384), (512, 384), (512, 384), (512, 384), (512, 384), (512, 384), (512, 382), (512, 381), (512, 380), (512, 380), (512, 380), (512, 380), (512, 380), (512, 380), (512, 380), (512, 380), (512, 380), (512, 380), (512, 380), (512, 380), (512, 380), (512, 380), (512, 380), (512, 380), (512, 380), (512, 380), (512, 380), (512, 380), (512, 380), (512, 380), (512, 380), (512, 380), (512, 380), (512, 380), (512, 380), (512, 380), (512, 380), (512, 380), (512, 380), (512, 380), (512, 380), (512, 380), (512, 380), (512, 380), (512, 380), (512, 380), (512, 380), (512, 380), (512, 380), (512, 380), (512, 380), (512, 380), (512, 380), (512, 380), (512, 380), (512, 380), (512, 380), (512, 380), (512, 380), (512, 380), (512, 380), (512, 380), (512, 380), (512, 380), (512, 380), (512, 380), (512, 380), (512, 380), (512, 380), (512, 380), (512, 380), (512, 380), (512, 380), (512, 380), (512, 380), (512, 380), (512, 380), (512, 380), (512, 380), (512, 380), (512, 380), (512, 380), (512, 380), (512, 380), (512, 380), (512, 380), (512, 380), (512, 380), (512, 380), (512, 380), (512, 380), (512, 380), (512, 380), (512, 380), (512, 380), (512, 380), (512, 380), (512, 380), (512, 380), (512, 380), (512, 380), (512, 380), (512, 380), (512, 380), (512, 380), (512, 380), (512, 380), (512, 380), (512, 380), (512, 380), (512, 380), (512, 380), (512, 380), (512, 380), (512, 380), (512, 380), (512, 380), (512, 380), (512, 380), (512, 380), (512, 380), (512, 380), (512, 380), (511, 380), (504, 378), (492, 369), (487, 366), (481, 363), (472, 357), (452, 346), (440, 339), (430, 334), (418, 328), (395, 318), (382, 312), (374, 310), (369, 306), (357, 301), (348, 297), (341, 292), (334, 289), (328, 285), (326, 283), (324, 280), (322, 278), (313, 264), (309, 257), (304, 251), (300, 243)]",213.62765384749375,"[4, 9, 3, 5, 7, 6, 8, 2, 1]","(0, 0.25)",THI006B,THI,B,Chinese,Tue Oct  9 12:49:18 2018,Mouse
2,2,2,0,32,1,1,1,1380,210,1170,145,0,500,200,8000,"[(512, 384), (512, 384), (512, 384), (512, 384), (512, 384), (512, 384), (512, 384), (512, 384), (512, 384), (512, 384), (512, 384), (512, 384), (512, 384), (512, 384), (512, 384), (512, 384), (512, 384), (512, 384), (512, 384), (512, 384), (513, 384), (513, 384), (513, 384), (513, 384), (513, 384), (513, 384), (513, 384), (513, 384), (513, 384), (513, 384), (513, 384), (513, 384), (515, 384), (516, 384), (517, 384), (517, 384), (517, 384), (517, 384), (518, 384), (518, 384), (518, 384), (518, 384), (518, 384), (518, 384), (518, 384), (518, 384), (518, 384), (518, 384), (518, 384), (518, 384), (518, 384), (518, 384), (518, 384), (518, 384), (518, 384), (518, 384), (518, 384), (518, 384), (518, 384), (518, 384), (518, 384), (518, 384), (518, 384), (518, 384), (518, 384), (518, 384), (518, 384), (518, 384), (518, 384), (518, 384), (518, 384), (518, 384), (518, 384), (518, 384), (518, 384), (518, 384), (518, 384), (518, 384), (518, 384), (518, 384), (518, 384), (518, 384), (518, 384), (518, 384), (518, 384), (518, 384), (518, 384), (518, 384), (518, 384), (518, 384), (518, 384), (518, 384), (518, 384), (518, 384), (518, 384), (518, 384), (518, 384), (518, 384), (520, 386), (521, 387), (522, 389), (523, 389), (523, 389), (523, 389), (524, 389), (527, 389), (530, 389), (533, 389), (543, 389), (549, 389), (557, 389), (568, 389), (586, 389), (594, 386), (605, 384), (613, 383), (632, 378), (639, 376), (642, 375), (647, 373), (655, 369), (657, 366), (661, 364), (667, 361), (679, 356), (681, 354), (686, 350), (690, 346), (701, 338), (706, 335), (709, 333), (714, 329), (721, 324), (726, 320), (733, 318), (739, 315), (748, 312), (752, 309)]",342.64597536373867,"[4, 9, 3, 5, 7, 6, 8, 2, 1]","(0, 0.25)",THI006B,THI,B,Chinese,Tue Oct  9 12:49:18 2018,Mouse
2,2,2,0,33,1,1,1,469,109,360,144,0,500,200,8000,"[(512, 384), (512, 384), (512, 384), (512, 384), (512, 384), (512, 384), (512, 384), (512, 384), (512, 384), (512, 384), (513, 384), (513, 384), (513, 384), (516, 385), (519, 387), (519, 387), (519, 387), (520, 387), (521, 387), (522, 387), (522, 387), (523, 387), (525, 387), (526, 387), (529, 387), (531, 385), (540, 381), (544, 379), (547, 378), (551, 377), (560, 373), (569, 368), (579, 364), (594, 362), (628, 351), (640, 348), (651, 344), (659, 343), (676, 339), (685, 337), (696, 332), (706, 328), (719, 323), (725, 321), (731, 319), (741, 317), (754, 314)]",343.8671594695146,"[4, 9, 3, 5, 7, 6, 8, 2, 1]","(0, 0.25)",THI006B,THI,B,Chinese,Tue Oct  9 12:49:18 2018,Mouse
2,2,2,0,34,3,3,1,1042,202,840,143,0,500,200,8000,"[(512, 384), (512, 384), (512, 384), (512, 384), (512, 384), (512, 384), (512, 384), (512, 384), (512, 384), (512, 384), (512, 384), (512, 384), (512, 384), (512, 384), (512, 384), (512, 384), (512, 384), (512, 384), (512, 384), (512, 384), (513, 383), (513, 382), (513, 382), (513, 382), (513, 382), (513, 382), (513, 382), (513, 382), (513, 382), (513, 382), (513, 382), (513, 382), (513, 382), (513, 382), (513, 382), (513, 382), (513, 382), (513, 382), (513, 382), (513, 382), (513, 382), (513, 382), (513, 382), (513, 382), (513, 382), (513, 382), (513, 382), (513, 382), (513, 382), (513, 382), (513, 382), (513, 382), (513, 382), (513, 382), (513, 382), (513, 382), (513, 382), (513, 382), (513, 382), (513, 382), (513, 382), (513, 382), (513, 382), (513, 382), (513, 382), (513, 382), (513, 382), (513, 382), (513, 382), (513, 382), (513, 382), (513, 382), (513, 385), (513, 386), (513, 388), (511, 390), (505, 400), (501, 407), (498, 415), (495, 425), (486, 446), (484, 456), (480, 467), (478, 478), (475, 498), (474, 505), (473, 511), (473, 519), (473, 530), (473, 537), (473, 544), (473, 552), (473, 570), (473, 579), (473, 589), (473, 597), (475, 607), (475, 612), (475, 615), (475, 618), (475, 622), (474, 623), (474, 626), (474, 628), (472, 633)]",99.1261709048584,"[4, 9, 3, 5, 7, 6, 8, 2, 1]","(0, 0.25)",THI006B,THI,B,Chinese,Tue Oct  9 12:49:18 2018,Mouse
2,2,2,0,35,6,6,1,1462,52,1410,142,0,500,200,8000,"[(512, 384), (512, 384), (512, 384), (512, 384), (512, 384), (512, 383), (515, 380), (515, 379), (515, 379), (515, 379), (515, 379), (515, 379), (515, 379), (515, 379), (515, 379), (515, 379), (515, 379), (515, 379), (515, 379), (515, 379), (515, 379), (515, 379), (515, 379), (515, 379), (515, 379), (515, 379), (515, 379), (515, 379), (515, 379), (515, 379), (515, 379), (515, 379), (515, 379), (515, 379), (515, 379), (515, 379), (515, 379), (515, 379), (515, 379), (515, 379), (515, 379), (515, 379), (515, 379), (515, 379), (515, 379), (515, 379), (515, 379), (515, 379), (515, 379), (515, 379), (515, 379), (515, 379), (515, 379), (515, 379), (515, 379), (515, 379), (515, 379), (515, 379), (515, 379), (515, 379), (515, 379), (515, 379), (515, 379), (515, 379), (515, 379), (515, 379), (515, 379), (515, 379), (515, 379), (515, 379), (515, 379), (515, 379), (515, 379), (515, 379), (515, 379), (515, 379), (516, 379), (517, 379), (518, 379), (518, 380), (518, 380), (518, 380), (518, 380), (518, 380), (518, 380), (518, 380), (518, 380), (518, 380), (518, 380), (518, 380), (518, 380), (518, 380), (518, 380), (518, 380), (518, 380), (518, 380), (518, 380), (518, 380), (518, 380), (518, 380), (518, 380), (518, 380), (518, 380), (518, 380), (518, 380), (518, 380), (518, 380), (518, 380), (518, 380), (518, 380), (518, 380), (518, 380), (515, 380), (510, 380), (505, 379), (497, 376), (487, 371), (478, 367), (468, 363), (457, 358), (440, 349), (432, 345), (424, 341), (418, 336), (410, 329), (406, 325), (402, 319), (400, 316), (395, 306), (393, 302), (391, 298), (388, 293), (381, 283), (377, 276), (372, 270), (365, 263), (356, 253), (353, 248), (349, 244), (347, 241), (342, 232), (341, 229), (338, 224), (336, 221), (334, 216), (332, 214), (330, 210)]",223.71267105847497,"[4, 9, 3, 5, 7, 6, 8, 2, 1]","(0, 0.25)",THI006B,THI,B,Chinese,Tue Oct  9 12:49:18 2018,Mouse
2,2,2,0,36,2,2,1,816,16,800,141,0,500,200,8000,"[(512, 384), (514, 385), (514, 385), (514, 385), (514, 385), (514, 385), (514, 385), (516, 386), (516, 386), (520, 387), (520, 387), (520, 387), (520, 387), (520, 387), (520, 387), (521, 387), (521, 388), (521, 388), (521, 389), (521, 389), (521, 389), (521, 389), (521, 389), (521, 389), (521, 389), (521, 389), (521, 389), (521, 389), (521, 389), (521, 389), (521, 389), (521, 389), (521, 389), (521, 389), (521, 389), (521, 389), (521, 389), (521, 389), (521, 389), (521, 389), (521, 389), (521, 389), (521, 389), (521, 389), (521, 389), (521, 389), (522, 390), (522, 390), (524, 390), (528, 388), (528, 385), (530, 379), (532, 373), (537, 361), (538, 354), (542, 345), (544, 337), (549, 319), (554, 307), (556, 296), (559, 288), (565, 268), (569, 258), (572, 248), (577, 241), (583, 226), (585, 217), (587, 210), (588, 206), (592, 195), (595, 192), (595, 189), (595, 186), (598, 181), (599, 178), (601, 175), (603, 170), (607, 162), (609, 159), (609, 159), (612, 156), (613, 155)]",293.79978334435896,"[4, 9, 3, 5, 7, 6, 8, 2, 1]","(0, 0.25)",THI006B,THI,B,Chinese,Tue Oct  9 12:49:18 2018,Mouse
2,2,2,0,37,7,7,1,2128,118,2010,140,0,500,200,8000,"[(512, 384), (512, 384), (512, 384), (512, 384), (512, 384), (512, 384), (512, 384), (512, 384), (512, 384), (512, 384), (512, 384), (511, 384), (509, 384), (509, 380), (507, 377), (507, 377), (507, 377), (507, 377), (507, 377), (507, 377), (507, 377), (507, 377), (507, 377), (507, 377), (507, 377), (507, 377), (507, 377), (507, 377), (507, 377), (507, 377), (507, 377), (507, 377), (507, 377), (507, 377), (507, 377), (507, 377), (507, 377), (507, 377), (507, 377), (507, 377), (507, 377), (507, 377), (507, 377), (507, 377), (507, 377), (507, 377), (507, 377), (507, 377), (507, 377), (507, 377), (507, 377), (507, 377), (507, 377), (507, 377), (507, 377), (507, 377), (507, 377), (507, 377), (507, 377), (507, 377), (507, 377), (507, 377), (507, 377), (507, 377), (507, 377), (507, 377), (507, 377), (507, 377), (507, 377), (507, 377), (507, 377), (507, 377), (507, 375), (507, 375), (509, 375), (509, 375), (510, 374), (510, 374), (510, 374), (512, 374), (512, 374), (512, 374), (512, 374), (513, 374), (513, 374), (515, 374), (516, 373), (517, 372), (518, 371), (518, 371), (518, 371), (518, 371), (518, 371), (518, 371), (518, 371), (518, 371), (518, 371), (518, 371), (518, 371), (518, 371), (518, 371), (518, 371), (518, 371), (518, 371), (518, 371), (518, 371), (518, 371), (518, 371), (518, 371), (518, 371), (518, 371), (518, 371), (518, 371), (518, 371), (518, 371), (518, 371), (518, 371), (518, 371), (518, 371), (518, 371), (518, 371), (518, 371), (518, 371), (519, 371), (519, 371), (519, 371), (519, 371), (519, 371), (519, 373), (519, 373), (519, 373), (519, 374), (519, 374), (519, 374), (519, 374), (519, 374), (519, 374), (519, 376), (519, 376), (519, 376), (519, 376), (520, 377), (521, 377), (522, 377), (522, 377), (522, 377), (522, 377), (522, 377), (522, 377), (522, 377), (522, 377), (522, 377), (522, 377), (522, 377), (522, 377), (522, 377), (522, 377), (522, 377), (522, 377), (522, 377), (522, 377), (522, 377), (522, 377), (522, 377), (522, 377), (522, 377), (522, 377), (522, 377), (522, 377), (522, 377), (522, 377), (522, 377), (522, 377), (522, 377), (522, 377), (522, 377), (522, 377), (522, 379), (522, 380), (522, 382), (522, 383), (522, 383), (521, 386), (518, 392), (516, 399), (514, 401), (511, 404), (506, 409), (501, 411), (498, 412), (495, 413), (489, 414), (485, 415), (479, 415), (471, 417), (451, 419), (442, 420), (430, 420), (419, 420), (398, 420), (389, 420), (382, 420), (372, 420), (353, 420), (345, 420), (334, 420), (326, 420), (311, 420), (302, 418), (294, 416), (284, 412), (265, 407), (261, 406)]",174.99086042679266,"[4, 9, 3, 5, 7, 6, 8, 2, 1]","(0, 0.25)",THI006B,THI,B,Chinese,Tue Oct  9 12:49:18 2018,Mouse
2,2,2,0,38,4,1,0,-1424,24,1400,139,0,500,200,8000,"[(512, 384), (512, 384), (511, 381), (511, 381), (512, 382), (512, 382), (512, 382), (512, 382), (512, 382), (512, 382), (512, 382), (512, 382), (512, 382), (512, 382), (512, 382), (512, 382), (512, 382), (512, 382), (512, 382), (512, 382), (512, 382), (512, 382), (512, 382), (512, 382), (512, 382), (512, 382), (512, 382), (512, 382), (512, 382), (512, 382), (512, 382), (512, 382), (512, 382), (512, 382), (512, 382), (512, 382), (512, 382), (512, 382), (512, 382), (512, 382), (512, 382), (512, 382), (512, 382), (512, 382), (512, 382), (512, 382), (512, 382), (512, 382), (512, 382), (512, 382), (512, 382), (512, 382), (512, 382), (512, 382), (509, 382), (508, 383), (508, 383), (505, 384), (502, 385), (501, 385), (501, 385), (499, 385), (496, 385), (496, 385), (495, 385), (494, 385), (492, 385), (491, 386), (491, 386), (491, 386), (489, 387), (489, 388), (489, 389), (488, 389), (488, 391), (487, 392), (487, 393), (487, 394), (485, 397), (485, 398), (485, 398), (485, 399), (485, 399), (485, 399), (485, 399), (485, 399), (485, 399), (485, 399), (485, 399), (485, 399), (485, 402), (485, 402), (485, 402), (485, 402), (486, 403), (486, 403), (486, 403), (487, 403), (491, 403), (492, 405), (495, 405), (502, 406), (514, 407), (522, 410), (526, 411), (533, 412), (538, 412), (542, 415), (545, 416), (546, 416), (549, 416), (550, 416), (550, 416), (552, 416), (557, 416), (562, 416), (569, 416), (576, 413), (591, 408), (598, 403), (607, 396), (615, 391), (636, 379), (646, 374), (659, 367), (675, 357), (701, 348), (711, 343), (720, 337), (727, 333), (736, 325), (738, 323), (740, 320), (742, 318), (742, 316), (743, 315), (743, 315), (743, 314), (745, 314), (746, 314), (748, 314), (750, 313), (752, 313)]",343.52002671815393,"[4, 9, 3, 5, 7, 6, 8, 2, 1]","(0, 0.25)",THI006B,THI,B,Chinese,Tue Oct  9 12:49:18 2018,Mouse
2,2,2,0,39,3,3,1,1852,302,1550,140,0,500,200,8000,"[(512, 384), (512, 384), (512, 384), (512, 384), (512, 384), (512, 384), (512, 384), (512, 384), (512, 384), (512, 384), (512, 384), (512, 384), (512, 384), (512, 384), (512, 384), (512, 384), (512, 384), (512, 384), (512, 384), (512, 384), (512, 384), (512, 384), (512, 384), (512, 384), (512, 384), (512, 384), (512, 384), (512, 384), (512, 384), (512, 384), (511, 384), (511, 384), (511, 384), (511, 384), (511, 384), (511, 384), (511, 384), (511, 384), (511, 384), (511, 384), (511, 384), (511, 384), (511, 384), (511, 384), (511, 384), (511, 384), (511, 384), (511, 384), (511, 384), (511, 384), (511, 385), (510, 386), (510, 386), (510, 386), (510, 386), (510, 386), (510, 386), (510, 386), (510, 386), (510, 386), (510, 386), (510, 386), (510, 386), (510, 386), (510, 386), (510, 386), (510, 386), (510, 386), (510, 386), (510, 386), (510, 386), (510, 386), (510, 386), (510, 386), (510, 386), (510, 386), (510, 386), (510, 386), (510, 386), (510, 386), (510, 386), (510, 386), (510, 386), (510, 386), (510, 386), (510, 386), (510, 386), (510, 386), (510, 386), (510, 386), (510, 386), (510, 386), (510, 386), (510, 386), (509, 386), (509, 386), (509, 386), (509, 386), (509, 386), (509, 386), (508, 386), (508, 386), (508, 386), (508, 386), (508, 386), (508, 386), (508, 386), (508, 386), (508, 386), (508, 386), (508, 386), (508, 386), (508, 386), (508, 386), (508, 386), (508, 386), (508, 386), (508, 386), (508, 386), (507, 386), (507, 387), (507, 387), (507, 387), (507, 387), (507, 387), (507, 387), (507, 387), (507, 387), (507, 387), (507, 387), (507, 387), (507, 387), (507, 387), (507, 387), (507, 387), (507, 387), (507, 387), (507, 387), (507, 387), (507, 387), (507, 387), (507, 387), (507, 388), (507, 389), (507, 390), (505, 393), (503, 395), (502, 398), (497, 405), (494, 409), (492, 412), (490, 415), (486, 423), (485, 425), (484, 428), (484, 431), (483, 438), (482, 441), (481, 448), (480, 454), (477, 465), (476, 470), (475, 478), (475, 484), (475, 499), (475, 507), (475, 513), (475, 522), (475, 539), (475, 545), (475, 554), (471, 561), (469, 574), (469, 579), (469, 585), (469, 592), (469, 604), (469, 609), (469, 613), (469, 616), (469, 619), (469, 620), (469, 621), (469, 622), (469, 627), (469, 631)]",99.87559607326644,"[4, 9, 3, 5, 7, 6, 8, 2, 1]","(0, 0.25)",THI006B,THI,B,Chinese,Tue Oct  9 12:49:18 2018,Mouse
2,2,2,0,40,2,2,1,2732,12,2720,140,0,500,200,8000,"[(512, 384), (512, 383), (512, 383), (512, 383), (512, 383), (512, 383), (512, 383), (512, 383), (512, 383), (512, 383), (512, 383), (512, 383), (512, 383), (512, 383), (512, 383), (512, 383), (512, 383), (512, 383), (512, 383), (512, 383), (512, 383), (512, 383), (512, 383), (512, 383), (512, 383), (512, 383), (512, 383), (512, 383), (512, 383), (512, 383), (512, 383), (512, 383), (512, 383), (512, 383), (512, 383), (512, 383), (512, 383), (512, 383), (512, 383), (512, 383), (512, 383), (512, 383), (512, 383), (512, 383), (512, 383), (512, 383), (512, 383), (512, 383), (512, 383), (512, 383), (512, 383), (512, 383), (512, 383), (512, 383), (512, 383), (512, 383), (512, 383), (512, 383), (512, 383), (512, 383), (512, 383), (512, 383), (512, 383), (512, 383), (512, 383), (512, 383), (512, 383), (512, 383), (512, 383), (512, 383), (512, 383), (512, 383), (512, 383), (512, 383), (512, 383), (512, 383), (512, 383), (512, 383), (512, 383), (512, 383), (512, 383), (512, 383), (512, 383), (512, 383), (512, 383), (512, 383), (512, 383), (512, 383), (512, 383), (512, 383), (512, 383), (513, 383), (513, 383), (513, 383), (513, 383), (513, 383), (513, 383), (513, 383), (513, 383), (513, 383), (513, 383), (513, 383), (513, 383), (513, 383), (513, 383), (513, 383), (513, 383), (513, 383), (513, 383), (513, 383), (513, 384), (513, 384), (513, 384), (514, 384), (514, 384), (514, 384), (514, 384), (514, 384), (514, 384), (514, 384), (514, 384), (514, 384), (514, 384), (514, 384), (514, 384), (514, 384), (514, 384), (514, 384), (514, 384), (514, 384), (514, 384), (514, 384), (514, 384), (514, 384), (514, 384), (514, 384), (514, 384), (514, 384), (514, 384), (514, 384), (514, 384), (514, 384), (514, 384), (514, 384), (514, 384), (514, 384), (514, 384), (514, 384), (514, 384), (514, 384), (514, 384), (514, 384), (515, 384), (515, 384), (515, 384), (515, 384), (515, 384), (515, 384), (515, 384), (515, 384), (515, 384), (515, 384), (515, 384), (515, 384), (516, 384), (516, 384), (516, 384), (516, 384), (516, 384), (516, 384), (516, 384), (516, 385), (516, 386), (516, 386), (516, 386), (516, 389), (516, 389), (516, 389), (518, 389), (520, 389), (522, 385), (523, 382), (524, 380), (525, 369), (527, 362), (529, 354), (532, 345), (537, 326), (539, 319), (543, 309), (546, 302), (556, 283), (561, 275), (567, 265), (572, 259), (582, 242), (586, 234), (589, 228), (593, 223), (602, 213), (604, 212), (606, 209), (607, 208), (612, 203), (614, 201), (617, 195), (619, 193), (621, 188), (622, 187), (622, 187), (622, 187), (622, 187), (622, 187), (622, 187), (622, 187), (622, 187), (622, 187), (622, 187), (622, 187), (622, 187), (622, 187), (622, 187), (622, 187), (622, 187), (622, 187), (622, 187), (622, 187), (622, 187), (622, 187), (622, 187), (622, 187), (621, 187), (621, 187), (621, 187), (621, 187), (620, 188), (619, 188), (619, 188), (619, 188), (619, 188), (619, 188), (619, 188), (619, 188), (619, 188), (619, 188), (619, 188), (619, 188), (619, 188), (619, 188), (619, 188), (619, 188), (619, 188), (619, 188), (619, 188), (619, 188), (619, 188), (619, 188), (619, 188), (619, 188), (619, 188), (619, 188), (619, 188), (619, 188), (619, 188), (619, 188), (620, 188), (623, 186), (626, 183), (628, 181), (629, 180), (632, 177), (636, 172), (639, 171), (641, 168)]",300.8465874121486,"[4, 9, 3, 5, 7, 6, 8, 2, 1]","(0, 0.25)",THI006B,THI,B,Chinese,Tue Oct  9 12:49:18 2018,Mouse
2,2,2,0,41,1,4,0,-1361,1111,250,139,0,500,200,8000,"[(512, 384), (512, 384), (512, 384), (512, 384), (512, 384), (512, 384), (512, 384), (512, 384), (512, 384), (512, 384), (512, 384), (512, 384), (512, 384), (512, 384), (512, 384), (512, 384), (512, 384), (512, 384), (512, 384), (512, 384), (512, 384), (512, 384), (512, 384), (512, 384), (512, 384), (512, 384), (512, 384), (512, 384), (512, 384), (512, 384), (512, 384), (512, 384), (512, 384), (512, 384), (512, 384), (512, 384), (512, 384), (512, 384), (512, 384), (512, 384), (512, 384), (512, 384), (512, 384), (512, 384), (512, 384), (512, 384), (512, 384), (512, 384), (512, 384), (512, 384), (512, 384), (512, 384), (512, 384), (512, 384), (512, 384), (512, 384), (512, 384), (512, 384), (512, 384), (512, 384), (512, 384), (512, 384), (512, 384), (512, 384), (512, 384), (512, 384), (512, 384), (512, 384), (512, 384), (512, 384), (512, 384), (512, 384), (512, 384), (512, 384), (512, 384), (512, 384), (512, 384), (512, 384), (512, 384), (512, 384), (512, 384), (512, 384), (512, 384), (512, 384), (512, 384), (512, 384), (512, 384), (512, 384), (512, 384), (512, 384), (512, 384), (512, 384), (512, 384), (512, 384), (512, 384), (512, 384), (512, 384), (512, 384), (512, 384), (512, 384), (512, 384), (512, 384), (512, 384), (512, 384), (512, 384), (512, 384), (512, 384), (512, 384), (512, 384), (512, 384), (512, 384), (512, 385), (512, 385), (512, 388), (520, 392), (525, 395), (530, 397), (536, 400), (550, 406), (559, 409), (569, 412), (583, 416), (610, 427), (620, 430), (631, 436), (642, 440), (661, 449), (672, 453), (682, 458), (695, 463), (712, 471), (715, 472), (722, 473), (727, 474), (736, 478), (741, 478), (743, 481)]",22.778188774611397,"[4, 9, 3, 5, 7, 6, 8, 2, 1]","(0, 0.25)",THI006B,THI,B,Chinese,Tue Oct  9 12:49:18 2018,Mouse
2,2,2,0,42,7,7,1,990,780,210,140,0,500,200,8000,"[(512, 384), (512, 384), (512, 384), (512, 384), (512, 384), (512, 384), (512, 384), (512, 384), (512, 384), (512, 384), (512, 384), (512, 384), (512, 384), (512, 384), (512, 384), (512, 384), (512, 384), (512, 384), (512, 384), (512, 384), (512, 384), (512, 384), (512, 384), (512, 384), (512, 384), (512, 384), (512, 384), (512, 384), (512, 384), (512, 384), (512, 384), (512, 384), (512, 384), (512, 384), (512, 384), (512, 384), (512, 384), (512, 384), (512, 384), (512, 384), (512, 384), (512, 384), (512, 384), (512, 384), (512, 384), (512, 384), (512, 384), (512, 384), (512, 384), (512, 384), (512, 384), (512, 384), (512, 384), (512, 384), (512, 384), (512, 384), (512, 384), (512, 384), (512, 384), (512, 384), (512, 384), (512, 384), (512, 384), (512, 384), (512, 384), (512, 384), (512, 384), (512, 384), (512, 384), (512, 384), (512, 384), (512, 384), (512, 384), (512, 384), (512, 384), (512, 384), (512, 384), (498, 380), (490, 379), (479, 378), (471, 378), (453, 374), (437, 372), (426, 370), (415, 365), (390, 361), (380, 360), (369, 357), (360, 356), (342, 354), (328, 352), (318, 351), (310, 351), (300, 350), (296, 350), (292, 350), (285, 350), (272, 350), (264, 351)]",187.57950977689026,"[4, 9, 3, 5, 7, 6, 8, 2, 1]","(0, 0.25)",THI006B,THI,B,Chinese,Tue Oct  9 12:49:18 2018,Mouse
2,2,2,0,43,6,6,1,945,265,680,140,0,500,200,8000,"[(512, 384), (512, 384), (512, 384), (512, 384), (512, 384), (512, 384), (512, 384), (512, 384), (512, 384), (512, 384), (512, 384), (512, 384), (512, 384), (512, 384), (512, 384), (512, 384), (512, 384), (512, 384), (512, 384), (512, 384), (512, 384), (512, 384), (512, 384), (512, 384), (512, 384), (512, 384), (515, 385), (515, 385), (515, 385), (515, 385), (515, 385), (516, 386), (516, 386), (516, 386), (516, 386), (516, 386), (516, 386), (516, 386), (516, 386), (516, 386), (516, 386), (516, 386), (516, 386), (516, 386), (516, 386), (516, 386), (516, 386), (516, 386), (516, 386), (516, 386), (516, 386), (516, 386), (516, 386), (516, 386), (516, 386), (516, 386), (516, 386), (516, 386), (516, 386), (516, 386), (516, 386), (516, 386), (516, 386), (516, 386), (516, 386), (516, 386), (516, 386), (516, 386), (516, 386), (516, 386), (516, 386), (516, 386), (516, 386), (516, 386), (516, 386), (516, 386), (516, 386), (516, 385), (510, 380), (503, 375), (494, 370), (488, 364), (470, 349), (461, 343), (454, 336), (444, 330), (424, 316), (409, 306), (395, 299), (379, 289), (352, 269), (341, 261), (332, 253), (322, 243), (307, 227)]",217.44683022497077,"[4, 9, 3, 5, 7, 6, 8, 2, 1]","(0, 0.25)",THI006B,THI,B,Chinese,Tue Oct  9 12:49:18 2018,Mouse
2,2,2,0,44,4,4,1,1521,211,1310,139,0,500,200,8000,"[(512, 384), (512, 384), (512, 384), (512, 384), (512, 384), (512, 384), (512, 384), (512, 384), (512, 384), (512, 384), (512, 384), (512, 384), (512, 384), (512, 384), (512, 384), (512, 384), (512, 384), (512, 384), (512, 384), (512, 384), (512, 384), (513, 384), (513, 384), (513, 384), (513, 384), (513, 384), (513, 384), (513, 384), (513, 384), (513, 384), (513, 384), (513, 384), (515, 383), (516, 381), (516, 381), (516, 381), (516, 381), (516, 381), (516, 381), (516, 381), (516, 381), (516, 381), (516, 381), (516, 381), (516, 381), (516, 381), (516, 381), (516, 381), (516, 381), (516, 381), (516, 381), (516, 381), (516, 381), (516, 381), (516, 381), (516, 381), (516, 381), (516, 381), (516, 381), (516, 381), (516, 381), (516, 381), (516, 381), (516, 381), (516, 381), (516, 381), (516, 381), (516, 381), (516, 381), (516, 381), (516, 381), (516, 381), (516, 381), (516, 381), (516, 381), (516, 381), (516, 381), (516, 381), (516, 381), (516, 381), (516, 381), (516, 381), (516, 381), (516, 381), (516, 381), (516, 381), (516, 381), (516, 381), (516, 381), (516, 381), (516, 382), (516, 382), (516, 382), (516, 382), (516, 382), (516, 382), (516, 382), (516, 382), (516, 382), (516, 382), (516, 382), (516, 382), (516, 382), (516, 382), (516, 382), (516, 382), (516, 382), (516, 382), (516, 382), (516, 382), (516, 382), (516, 382), (516, 382), (516, 382), (516, 382), (516, 382), (516, 382), (518, 384), (520, 385), (522, 385), (527, 389), (530, 391), (535, 394), (543, 398), (562, 406), (572, 410), (581, 414), (589, 417), (605, 423), (611, 426), (618, 429), (624, 432), (634, 440), (640, 442), (645, 446), (654, 450), (667, 457), (676, 461), (681, 463), (687, 466), (692, 468), (697, 471), (700, 471), (700, 472), (705, 475), (709, 478), (714, 481), (718, 484), (726, 488), (730, 490), (733, 490), (736, 491), (740, 492)]",25.34617594194669,"[4, 9, 3, 5, 7, 6, 8, 2, 1]","(0, 0.25)",THI006B,THI,B,Chinese,Tue Oct  9 12:49:18 2018,Mouse
2,2,2,0,45,4,5,0,-2802,321,2481,138,0,500,200,8000,"[(512, 384), (512, 384), (512, 384), (512, 384), (512, 384), (512, 384), (512, 384), (512, 384), (512, 384), (512, 384), (512, 384), (512, 384), (512, 384), (512, 384), (512, 384), (512, 384), (512, 384), (512, 384), (512, 384), (512, 384), (512, 384), (512, 384), (512, 384), (512, 384), (512, 384), (512, 384), (512, 384), (512, 384), (512, 384), (512, 384), (512, 384), (512, 384), (513, 382), (513, 382), (513, 382), (513, 382), (513, 382), (513, 382), (513, 382), (513, 382), (513, 382), (513, 382), (513, 382), (513, 382), (513, 382), (513, 382), (513, 382), (513, 382), (513, 382), (513, 382), (513, 382), (513, 382), (513, 382), (513, 382), (513, 382), (513, 382), (513, 382), (513, 382), (513, 382), (513, 382), (513, 382), (513, 382), (513, 382), (513, 382), (513, 382), (513, 382), (513, 382), (513, 382), (513, 382), (513, 382), (513, 382), (513, 382), (513, 382), (513, 382), (513, 382), (513, 382), (513, 382), (513, 382), (513, 382), (513, 382), (513, 382), (513, 382), (513, 382), (513, 382), (513, 382), (513, 382), (513, 382), (513, 382), (513, 382), (513, 382), (513, 382), (513, 382), (513, 382), (513, 382), (513, 382), (513, 382), (513, 382), (513, 382), (513, 382), (513, 382), (513, 382), (513, 382), (513, 382), (513, 382), (513, 382), (513, 382), (513, 382), (513, 382), (513, 382), (513, 382), (513, 382), (511, 382), (510, 382), (510, 382), (510, 382), (510, 382), (510, 382), (510, 382), (510, 382), (510, 382), (510, 382), (510, 382), (510, 382), (510, 382), (509, 382), (509, 382), (509, 382), (509, 382), (508, 381), (508, 381), (508, 381), (508, 381), (508, 381), (508, 380), (508, 380), (508, 380), (508, 380), (508, 380), (508, 380), (508, 380), (508, 380), (508, 380), (508, 380), (508, 380), (508, 380), (508, 380), (508, 380), (508, 380), (508, 380), (508, 380), (508, 380), (508, 380), (508, 380), (508, 380), (508, 380), (508, 380), (508, 380), (508, 380), (508, 380), (508, 380), (508, 380), (508, 380), (508, 380), (508, 380), (508, 380), (508, 380), (508, 380), (508, 380), (508, 380), (508, 380), (508, 380), (508, 380), (508, 380), (508, 380), (508, 380), (508, 380), (508, 380), (508, 380), (508, 380), (508, 380), (508, 380), (508, 380), (508, 380), (508, 380), (508, 380), (508, 380), (508, 380), (508, 380), (508, 380), (508, 380), (508, 380), (508, 380), (508, 380), (508, 380), (508, 380), (508, 380), (508, 380), (508, 380), (508, 380), (508, 380), (508, 380), (508, 380), (508, 380), (508, 380), (508, 380), (508, 380), (508, 380), (508, 380), (508, 380), (508, 380), (508, 380), (508, 380), (508, 380), (508, 380), (508, 380), (508, 380), (508, 380), (508, 380), (508, 380), (508, 380), (508, 380), (508, 380), (508, 380), (508, 380), (508, 380), (508, 380), (508, 380), (508, 380), (508, 380), (508, 380), (508, 380), (508, 380), (508, 380), (508, 380), (508, 380), (508, 380), (508, 380), (508, 380), (508, 380), (508, 380), (508, 380), (508, 380), (508, 380), (508, 380), (508, 380), (508, 380), (508, 380), (508, 380), (508, 380), (508, 380), (508, 380), (507, 379), (503, 380), (500, 381), (498, 384), (496, 385), (490, 387), (486, 389), (483, 390), (478, 394), (465, 402), (461, 405), (454, 410), (444, 418), (424, 430), (414, 436), (404, 441), (396, 446), (380, 455), (375, 459), (366, 464), (362, 465), (350, 473), (345, 477), (339, 481), (333, 486), (320, 501), (315, 507), (312, 513), (310, 518), (305, 528)]",145.1755108430432,"[4, 9, 3, 5, 7, 6, 8, 2, 1]","(0, 0.25)",THI006B,THI,B,Chinese,Tue Oct  9 12:49:18 2018,Mouse
2,2,2,0,46,7,2,0,-842,162,680,139,0,500,200,8000,"[(512, 384), (512, 384), (512, 384), (512, 384), (512, 384), (512, 384), (512, 384), (512, 384), (512, 384), (512, 384), (512, 384), (512, 384), (512, 384), (512, 384), (512, 384), (512, 384), (513, 378), (513, 375), (513, 374), (513, 374), (513, 374), (513, 374), (513, 374), (513, 374), (513, 374), (513, 374), (513, 374), (513, 374), (513, 374), (513, 374), (513, 374), (513, 374), (513, 374), (513, 374), (513, 374), (513, 374), (513, 374), (513, 374), (513, 374), (513, 374), (513, 374), (513, 374), (513, 374), (513, 374), (513, 374), (513, 374), (513, 374), (513, 374), (513, 374), (513, 374), (513, 374), (513, 374), (513, 374), (513, 374), (513, 374), (513, 374), (513, 374), (513, 374), (513, 374), (513, 374), (513, 374), (515, 374), (515, 375), (515, 376), (516, 376), (518, 376), (518, 376), (519, 375), (523, 370), (524, 365), (527, 358), (529, 351), (533, 339), (537, 330), (538, 324), (545, 313), (559, 288), (569, 274), (579, 262), (588, 248), (604, 221), (614, 202), (621, 189), (627, 178), (637, 160)]",299.1630776149013,"[4, 9, 3, 5, 7, 6, 8, 2, 1]","(0, 0.25)",THI006B,THI,B,Chinese,Tue Oct  9 12:49:18 2018,Mouse
