NativeLangNumber,LanuageNumber,SessionNumber,Block,TrialNum,ConditionNumber,Response,Accuracy,RT,MovementOnsetTime,TimeInMotion,SignalContrast,SignalContrastNumber,StimDisplayTime,MaskTime,MaxResponseTime,MousePositionXY,MouseAngle,WheelOrder,NoiseMuSigma,ParticipantID,LanuageTested,SessionTested,NativeLanuage,Date,ResponseDevice
2,2,1,0,1,2,2,1,1212,1112,100,153,0,500,200,8000,"[(512, 384), (512, 384), (512, 384), (512, 384), (512, 384), (512, 384), (512, 384), (512, 384), (512, 384), (512, 384), (512, 384), (512, 384), (512, 384), (512, 384), (512, 384), (512, 384), (512, 384), (512, 384), (512, 384), (512, 384), (512, 384), (512, 384), (512, 384), (512, 384), (512, 384), (512, 384), (512, 384), (512, 384), (512, 384), (512, 384), (512, 384), (512, 384), (512, 384), (512, 384), (512, 384), (512, 384), (512, 384), (512, 384), (512, 384), (512, 384), (512, 384), (512, 384), (512, 384), (512, 384), (512, 384), (512, 384), (512, 384), (512, 384), (512, 384), (512, 384), (512, 384), (512, 384), (512, 384), (512, 384), (512, 384), (512, 384), (512, 384), (512, 384), (512, 384), (512, 384), (512, 384), (512, 384), (512, 384), (512, 384), (512, 384), (512, 384), (512, 384), (512, 384), (512, 384), (512, 384), (512, 384), (512, 384), (512, 384), (512, 384), (512, 384), (512, 384), (512, 384), (512, 384), (512, 384), (512, 384), (512, 384), (512, 384), (512, 384), (512, 384), (512, 384), (512, 384), (512, 384), (512, 384), (512, 384), (512, 384), (512, 384), (512, 384), (512, 384), (512, 384), (512, 384), (512, 384), (512, 384), (512, 384), (512, 384), (512, 384), (512, 384), (512, 384), (512, 384), (512, 384), (512, 384), (512, 384), (512, 384), (512, 384), (512, 384), (512, 384), (512, 384), (514, 384), (520, 387), (533, 401), (541, 413), (551, 426), (565, 448), (594, 486), (608, 506), (624, 531), (643, 556), (670, 595)]",53.17357410568763,"[6, 2, 1, 8, 7, 3, 5, 9, 4]","(0, 0.25)",THI008A,THI,A,Chinese,Tue Oct  9 17:20:06 2018,Mouse
2,2,1,0,2,7,7,1,549,499,50,153,0,500,200,8000,"[(512, 384), (512, 384), (512, 384), (512, 384), (512, 384), (512, 384), (512, 384), (512, 384), (512, 384), (512, 384), (512, 384), (512, 384), (512, 384), (512, 384), (512, 384), (512, 384), (512, 384), (512, 384), (512, 384), (512, 384), (512, 384), (512, 384), (512, 384), (512, 384), (512, 384), (512, 384), (512, 384), (512, 384), (512, 384), (512, 384), (512, 384), (512, 384), (512, 384), (512, 384), (512, 384), (512, 384), (512, 384), (512, 384), (512, 384), (512, 384), (512, 384), (512, 384), (512, 384), (512, 384), (512, 384), (512, 384), (512, 384), (512, 384), (512, 384), (508, 384), (471, 386), (441, 391), (401, 396), (353, 402), (257, 406)]",175.06904469802703,"[6, 2, 1, 8, 7, 3, 5, 9, 4]","(0, 0.25)",THI008A,THI,A,Chinese,Tue Oct  9 17:20:06 2018,Mouse
2,2,1,0,3,7,7,1,387,327,60,152,0,500,200,8000,"[(512, 384), (512, 384), (512, 384), (512, 384), (512, 384), (512, 384), (512, 384), (512, 384), (512, 384), (512, 384), (512, 384), (512, 384), (512, 384), (512, 384), (512, 384), (512, 384), (512, 384), (512, 384), (512, 384), (512, 384), (512, 384), (512, 384), (512, 384), (512, 384), (512, 384), (512, 384), (512, 384), (512, 384), (512, 384), (512, 384), (512, 384), (512, 384), (502, 385), (474, 390), (394, 399), (352, 401), (316, 401), (285, 401), (236, 399)]",176.88915934650925,"[6, 2, 1, 8, 7, 3, 5, 9, 4]","(0, 0.25)",THI008A,THI,A,Chinese,Tue Oct  9 17:20:06 2018,Mouse
2,2,1,0,4,7,7,1,348,288,60,151,0,500,200,8000,"[(512, 384), (512, 384), (512, 384), (512, 384), (512, 384), (512, 384), (512, 384), (512, 384), (512, 384), (512, 384), (512, 384), (512, 384), (512, 384), (512, 384), (512, 384), (512, 384), (512, 384), (512, 384), (512, 384), (512, 384), (512, 384), (512, 384), (512, 384), (512, 384), (512, 384), (512, 384), (512, 384), (512, 384), (509, 384), (495, 384), (447, 386), (414, 386), (372, 386), (328, 386), (250, 386)]",179.56263613247927,"[6, 2, 1, 8, 7, 3, 5, 9, 4]","(0, 0.25)",THI008A,THI,A,Chinese,Tue Oct  9 17:20:06 2018,Mouse
2,2,1,0,5,4,4,1,4218,3688,530,150,0,500,200,8000,"[(512, 384), (512, 384), (512, 384), (512, 384), (512, 384), (512, 384), (512, 384), (512, 384), (512, 384), (512, 384), (512, 384), (512, 384), (512, 384), (512, 384), (512, 384), (512, 384), (512, 384), (512, 384), (512, 384), (512, 384), (512, 384), (512, 384), (512, 384), (512, 384), (512, 384), (512, 384), (512, 384), (512, 384), (512, 384), (512, 384), (512, 384), (512, 384), (512, 384), (512, 384), (512, 384), (512, 384), (512, 384), (512, 384), (512, 384), (512, 384), (512, 384), (512, 384), (512, 384), (512, 384), (512, 384), (512, 384), (512, 384), (512, 384), (512, 384), (512, 384), (512, 384), (512, 384), (512, 384), (512, 384), (512, 384), (512, 384), (512, 384), (512, 384), (512, 384), (512, 384), (512, 384), (512, 384), (512, 384), (512, 384), (512, 384), (512, 384), (512, 384), (512, 384), (512, 384), (512, 384), (512, 384), (512, 384), (512, 384), (512, 384), (512, 384), (512, 384), (512, 384), (512, 384), (512, 384), (512, 384), (512, 384), (512, 384), (512, 384), (512, 384), (512, 384), (512, 384), (512, 384), (512, 384), (512, 384), (512, 384), (512, 384), (512, 384), (512, 384), (512, 384), (512, 384), (512, 384), (512, 384), (512, 384), (512, 384), (512, 384), (512, 384), (512, 384), (512, 384), (512, 384), (512, 384), (512, 384), (512, 384), (512, 384), (512, 384), (512, 384), (512, 384), (512, 384), (512, 384), (512, 384), (512, 384), (512, 384), (512, 384), (512, 384), (512, 384), (512, 384), (512, 384), (512, 384), (512, 384), (512, 384), (512, 384), (512, 384), (512, 384), (512, 384), (512, 384), (512, 384), (512, 384), (512, 384), (512, 384), (512, 384), (512, 384), (512, 384), (512, 384), (512, 384), (512, 384), (512, 384), (512, 384), (512, 384), (512, 384), (512, 384), (512, 384), (512, 384), (512, 384), (512, 384), (512, 384), (512, 384), (512, 384), (512, 384), (512, 384), (512, 384), (512, 384), (512, 384), (512, 384), (512, 384), (512, 384), (512, 384), (512, 384), (512, 384), (512, 384), (512, 384), (512, 384), (512, 384), (512, 384), (512, 384), (512, 384), (512, 384), (512, 384), (512, 384), (512, 384), (512, 384), (512, 384), (512, 384), (512, 384), (512, 384), (512, 384), (512, 384), (512, 384), (512, 384), (512, 384), (512, 384), (512, 384), (512, 384), (512, 384), (512, 384), (512, 384), (512, 384), (512, 384), (512, 384), (512, 384), (512, 384), (512, 384), (512, 384), (512, 384), (512, 384), (512, 384), (512, 384), (512, 384), (512, 384), (512, 384), (512, 384), (512, 384), (512, 384), (512, 384), (512, 384), (512, 384), (512, 384), (512, 384), (512, 384), (512, 384), (512, 384), (512, 384), (512, 384), (512, 384), (512, 384), (512, 384), (512, 384), (512, 384), (512, 384), (512, 384), (512, 384), (512, 384), (512, 384), (512, 384), (512, 384), (512, 384), (512, 384), (512, 384), (512, 384), (512, 384), (512, 384), (512, 384), (512, 384), (512, 384), (512, 384), (512, 384), (512, 384), (512, 384), (512, 384), (512, 384), (512, 384), (512, 384), (512, 384), (512, 384), (512, 384), (512, 384), (512, 384), (512, 384), (512, 384), (512, 384), (512, 384), (512, 384), (512, 384), (512, 384), (512, 384), (512, 384), (512, 384), (512, 384), (512, 384), (512, 384), (512, 384), (512, 384), (512, 384), (512, 384), (512, 384), (512, 384), (512, 384), (512, 384), (512, 384), (512, 384), (512, 384), (512, 384), (512, 384), (512, 384), (512, 384), (512, 384), (512, 384), (512, 384), (512, 384), (512, 384), (512, 384), (512, 384), (512, 384), (512, 384), (512, 384), (512, 384), (512, 384), (512, 384), (512, 384), (512, 384), (512, 384), (512, 384), (512, 384), (512, 384), (512, 384), (512, 384), (512, 384), (512, 384), (512, 384), (512, 384), (512, 384), (512, 384), (512, 384), (512, 384), (512, 384), (512, 384), (512, 384), (512, 384), (512, 384), (512, 384), (512, 384), (512, 384), (512, 384), (512, 384), (512, 384), (512, 384), (512, 384), (512, 384), (512, 384), (512, 384), (512, 384), (512, 384), (512, 384), (512, 384), (512, 384), (512, 384), (512, 384), (512, 384), (512, 384), (512, 384), (512, 384), (512, 384), (512, 384), (512, 384), (512, 384), (512, 384), (512, 384), (512, 384), (512, 384), (512, 384), (512, 384), (512, 384), (512, 384), (512, 384), (512, 384), (512, 384), (512, 384), (512, 384), (512, 384), (512, 384), (512, 384), (512, 384), (512, 384), (512, 384), (512, 384), (512, 384), (512, 384), (512, 384), (512, 384), (512, 384), (512, 384), (512, 384), (512, 384), (512, 384), (512, 384), (516, 383), (521, 380), (523, 378), (523, 378), (523, 378), (523, 378), (523, 378), (523, 378), (523, 378), (523, 378), (523, 378), (523, 378), (523, 378), (523, 378), (523, 378), (523, 378), (523, 378), (523, 378), (523, 378), (523, 378), (523, 378), (523, 378), (523, 378), (523, 378), (523, 378), (523, 378), (523, 378), (523, 378), (523, 378), (523, 378), (523, 378), (523, 378), (523, 378), (523, 378), (523, 378), (523, 378), (523, 378), (523, 378), (523, 378), (523, 378), (523, 378), (523, 378), (523, 378), (523, 378), (525, 378), (531, 377), (547, 374), (557, 370), (574, 369), (596, 363), (664, 349), (710, 339), (753, 334), (800, 324)]",348.23171106797935,"[6, 2, 1, 8, 7, 3, 5, 9, 4]","(0, 0.25)",THI008A,THI,A,Chinese,Tue Oct  9 17:20:06 2018,Mouse
2,2,1,0,6,7,7,1,338,278,60,149,0,500,200,8000,"[(512, 384), (512, 384), (512, 384), (512, 384), (512, 384), (512, 384), (512, 384), (512, 384), (512, 384), (512, 384), (512, 384), (512, 384), (512, 384), (512, 384), (512, 384), (512, 384), (512, 384), (512, 384), (512, 384), (512, 384), (512, 384), (512, 384), (512, 384), (512, 384), (512, 384), (512, 384), (512, 384), (503, 384), (487, 384), (459, 384), (423, 384), (330, 381), (280, 380), (229, 376)]",181.61923745387418,"[6, 2, 1, 8, 7, 3, 5, 9, 4]","(0, 0.25)",THI008A,THI,A,Chinese,Tue Oct  9 17:20:06 2018,Mouse
2,2,1,0,7,2,2,1,409,309,100,148,0,500,200,8000,"[(512, 384), (512, 384), (512, 384), (512, 384), (512, 384), (512, 384), (512, 384), (512, 384), (512, 384), (512, 384), (512, 384), (512, 384), (512, 384), (512, 384), (512, 384), (512, 384), (512, 384), (512, 384), (512, 384), (512, 384), (512, 384), (512, 384), (512, 384), (512, 384), (512, 384), (512, 384), (512, 384), (512, 384), (512, 384), (512, 384), (514, 384), (518, 386), (524, 391), (527, 397), (532, 403), (538, 416), (566, 476), (589, 514), (614, 553), (639, 587), (699, 648)]",54.68878656036681,"[6, 2, 1, 8, 7, 3, 5, 9, 4]","(0, 0.25)",THI008A,THI,A,Chinese,Tue Oct  9 17:20:06 2018,Mouse
2,2,1,0,8,8,8,1,1249,1149,100,147,0,500,200,8000,"[(512, 384), (512, 384), (512, 384), (512, 384), (512, 384), (512, 384), (512, 384), (512, 384), (512, 384), (512, 384), (512, 384), (512, 384), (512, 384), (512, 384), (512, 384), (512, 384), (512, 384), (512, 384), (512, 384), (512, 384), (512, 384), (512, 384), (512, 384), (512, 384), (512, 384), (512, 384), (512, 384), (512, 384), (512, 384), (512, 384), (512, 384), (512, 384), (512, 384), (512, 384), (512, 384), (512, 384), (512, 384), (512, 384), (512, 384), (512, 384), (512, 384), (512, 384), (512, 384), (512, 384), (512, 384), (512, 384), (512, 384), (512, 384), (512, 384), (512, 384), (512, 384), (512, 384), (512, 384), (512, 384), (512, 384), (512, 384), (512, 384), (512, 384), (512, 384), (512, 384), (512, 384), (512, 384), (512, 384), (512, 384), (512, 384), (512, 384), (512, 384), (512, 384), (512, 384), (512, 384), (512, 384), (512, 384), (512, 384), (512, 384), (512, 384), (512, 384), (512, 384), (512, 384), (512, 384), (512, 384), (512, 384), (512, 384), (512, 384), (512, 384), (512, 384), (512, 384), (512, 384), (512, 384), (512, 384), (512, 384), (512, 384), (512, 384), (512, 384), (512, 384), (512, 384), (512, 384), (512, 384), (512, 384), (512, 384), (512, 384), (512, 384), (512, 384), (512, 384), (512, 384), (512, 384), (512, 384), (512, 384), (512, 384), (512, 384), (512, 384), (512, 384), (512, 384), (512, 384), (512, 384), (508, 390), (494, 409), (470, 431), (443, 449), (399, 475), (384, 487), (376, 497), (367, 505), (340, 530), (324, 544), (304, 560)]",139.7636416907262,"[6, 2, 1, 8, 7, 3, 5, 9, 4]","(0, 0.25)",THI008A,THI,A,Chinese,Tue Oct  9 17:20:06 2018,Mouse
2,2,1,0,9,4,4,1,2847,2797,50,146,0,500,200,8000,"[(512, 384), (512, 384), (512, 384), (512, 384), (512, 384), (512, 384), (512, 384), (512, 384), (512, 384), (512, 384), (512, 384), (512, 384), (512, 384), (512, 384), (512, 384), (512, 384), (512, 384), (512, 384), (512, 384), (512, 384), (512, 384), (512, 384), (512, 384), (512, 384), (512, 384), (512, 384), (512, 384), (512, 384), (512, 384), (512, 384), (512, 384), (512, 384), (512, 384), (512, 384), (512, 384), (512, 384), (512, 384), (512, 384), (512, 384), (512, 384), (512, 384), (512, 384), (512, 384), (512, 384), (512, 384), (512, 384), (512, 384), (512, 384), (512, 384), (512, 384), (512, 384), (512, 384), (512, 384), (512, 384), (512, 384), (512, 384), (512, 384), (512, 384), (512, 384), (512, 384), (512, 384), (512, 384), (512, 384), (512, 384), (512, 384), (512, 384), (512, 384), (512, 384), (512, 384), (512, 384), (512, 384), (512, 384), (512, 384), (512, 384), (512, 384), (512, 384), (512, 384), (512, 384), (512, 384), (512, 384), (512, 384), (512, 384), (512, 384), (512, 384), (512, 384), (512, 384), (512, 384), (512, 384), (512, 384), (512, 384), (512, 384), (512, 384), (512, 384), (512, 384), (512, 384), (512, 384), (512, 384), (512, 384), (512, 384), (512, 384), (512, 384), (512, 384), (512, 384), (512, 384), (512, 384), (512, 384), (512, 384), (512, 384), (512, 384), (512, 384), (512, 384), (512, 384), (512, 384), (512, 384), (512, 384), (512, 384), (512, 384), (512, 384), (512, 384), (512, 384), (512, 384), (512, 384), (512, 384), (512, 384), (512, 384), (512, 384), (512, 384), (512, 384), (512, 384), (512, 384), (512, 384), (512, 384), (512, 384), (512, 384), (512, 384), (512, 384), (512, 384), (512, 384), (512, 384), (512, 384), (512, 384), (512, 384), (512, 384), (512, 384), (512, 384), (512, 384), (512, 384), (512, 384), (512, 384), (512, 384), (512, 384), (512, 384), (512, 384), (512, 384), (512, 384), (512, 384), (512, 384), (512, 384), (512, 384), (512, 384), (512, 384), (512, 384), (512, 384), (512, 384), (512, 384), (512, 384), (512, 384), (512, 384), (512, 384), (512, 384), (512, 384), (512, 384), (512, 384), (512, 384), (512, 384), (512, 384), (512, 384), (512, 384), (512, 384), (512, 384), (512, 384), (512, 384), (512, 384), (512, 384), (512, 384), (512, 384), (512, 384), (512, 384), (512, 384), (512, 384), (512, 384), (512, 384), (512, 384), (512, 384), (512, 384), (512, 384), (512, 384), (512, 384), (512, 384), (512, 384), (512, 384), (512, 384), (512, 384), (512, 384), (512, 384), (512, 384), (512, 384), (512, 384), (512, 384), (512, 384), (512, 384), (512, 384), (512, 384), (512, 384), (512, 384), (512, 384), (512, 384), (512, 384), (512, 384), (512, 384), (512, 384), (512, 384), (512, 384), (512, 384), (512, 384), (512, 384), (512, 384), (512, 384), (512, 384), (512, 384), (512, 384), (512, 384), (512, 384), (512, 384), (512, 384), (512, 384), (512, 384), (512, 384), (512, 384), (512, 384), (512, 384), (512, 384), (512, 384), (512, 384), (512, 384), (512, 384), (512, 384), (512, 384), (512, 384), (512, 384), (512, 384), (512, 384), (512, 384), (512, 384), (512, 384), (512, 384), (512, 384), (512, 384), (512, 384), (512, 384), (512, 384), (512, 384), (512, 384), (512, 384), (512, 384), (512, 384), (512, 384), (512, 384), (512, 384), (512, 384), (512, 384), (512, 384), (512, 384), (512, 384), (512, 384), (512, 384), (512, 384), (512, 384), (512, 384), (513, 383), (537, 369), (559, 357), (589, 341), (632, 321), (764, 267)]",335.0952311919048,"[6, 2, 1, 8, 7, 3, 5, 9, 4]","(0, 0.25)",THI008A,THI,A,Chinese,Tue Oct  9 17:20:06 2018,Mouse
2,2,1,0,10,2,2,1,708,618,90,145,0,500,200,8000,"[(512, 384), (512, 384), (512, 384), (512, 384), (512, 384), (512, 384), (512, 384), (512, 384), (512, 384), (512, 384), (512, 384), (512, 384), (512, 384), (512, 384), (512, 384), (512, 384), (512, 384), (512, 384), (512, 384), (512, 384), (512, 384), (512, 384), (512, 384), (512, 384), (512, 384), (512, 384), (512, 384), (512, 384), (512, 384), (512, 384), (512, 384), (512, 384), (512, 384), (512, 384), (512, 384), (512, 384), (512, 384), (512, 384), (512, 384), (512, 384), (512, 384), (512, 384), (512, 384), (512, 384), (512, 384), (512, 384), (512, 384), (512, 384), (512, 384), (512, 384), (512, 384), (512, 384), (512, 384), (512, 384), (512, 384), (512, 384), (512, 384), (512, 384), (512, 384), (512, 384), (512, 384), (513, 384), (524, 392), (530, 397), (538, 404), (548, 412), (584, 454), (610, 479), (644, 503), (673, 530), (727, 591)]",43.9139541739936,"[6, 2, 1, 8, 7, 3, 5, 9, 4]","(0, 0.25)",THI008A,THI,A,Chinese,Tue Oct  9 17:20:06 2018,Mouse
2,2,1,0,11,6,6,1,2719,2249,470,144,0,500,200,8000,"[(512, 384), (512, 384), (512, 384), (512, 384), (512, 384), (512, 384), (512, 384), (512, 384), (512, 384), (512, 384), (512, 384), (512, 384), (512, 384), (512, 384), (512, 384), (512, 384), (512, 384), (512, 384), (512, 384), (512, 384), (512, 384), (512, 384), (512, 384), (512, 384), (512, 384), (512, 384), (512, 384), (512, 384), (512, 384), (512, 384), (512, 384), (512, 384), (512, 384), (512, 384), (512, 384), (512, 384), (512, 384), (512, 384), (512, 384), (512, 384), (512, 384), (512, 384), (512, 384), (512, 384), (512, 384), (512, 384), (512, 384), (512, 384), (512, 384), (512, 384), (512, 384), (512, 384), (512, 384), (512, 384), (512, 384), (512, 384), (512, 384), (512, 384), (512, 384), (512, 384), (512, 384), (512, 384), (512, 384), (512, 384), (512, 384), (512, 384), (512, 384), (512, 384), (512, 384), (512, 384), (512, 384), (512, 384), (512, 384), (512, 384), (512, 384), (512, 384), (512, 384), (512, 384), (512, 384), (512, 384), (512, 384), (512, 384), (512, 384), (512, 384), (512, 384), (512, 384), (512, 384), (512, 384), (512, 384), (512, 384), (512, 384), (512, 384), (512, 384), (512, 384), (512, 384), (512, 384), (512, 384), (512, 384), (512, 384), (512, 384), (512, 384), (512, 384), (512, 384), (512, 384), (512, 384), (512, 384), (512, 384), (512, 384), (512, 384), (512, 384), (512, 384), (512, 384), (512, 384), (512, 384), (512, 384), (512, 384), (512, 384), (512, 384), (512, 384), (512, 384), (512, 384), (512, 384), (512, 384), (512, 384), (512, 384), (512, 384), (512, 384), (512, 384), (512, 384), (512, 384), (512, 384), (512, 384), (512, 384), (512, 384), (512, 384), (512, 384), (512, 384), (512, 384), (512, 384), (512, 384), (512, 384), (512, 384), (512, 384), (512, 384), (512, 384), (512, 384), (512, 384), (512, 384), (512, 384), (512, 384), (512, 384), (512, 384), (512, 384), (512, 384), (512, 384), (512, 384), (512, 384), (512, 384), (512, 384), (512, 384), (512, 384), (512, 384), (512, 384), (512, 384), (512, 384), (512, 384), (512, 384), (512, 384), (512, 384), (512, 384), (512, 384), (512, 384), (512, 384), (512, 384), (512, 384), (512, 384), (512, 384), (512, 384), (512, 384), (512, 384), (512, 384), (512, 384), (512, 384), (512, 384), (512, 384), (512, 384), (512, 384), (512, 384), (512, 384), (512, 384), (512, 384), (512, 384), (512, 384), (512, 384), (512, 384), (512, 384), (512, 384), (512, 384), (512, 384), (512, 384), (512, 384), (512, 384), (512, 384), (512, 384), (512, 384), (512, 384), (512, 384), (512, 384), (512, 384), (512, 384), (512, 384), (512, 384), (512, 384), (512, 384), (512, 384), (512, 384), (512, 384), (512, 384), (512, 384), (512, 384), (512, 384), (512, 384), (512, 384), (512, 384), (518, 385), (524, 387), (529, 389), (531, 391), (533, 392), (533, 392), (533, 392), (533, 392), (533, 392), (533, 392), (533, 392), (533, 392), (533, 392), (533, 392), (533, 392), (533, 392), (533, 392), (533, 392), (533, 392), (533, 392), (533, 392), (533, 392), (533, 392), (533, 392), (533, 392), (533, 392), (533, 392), (533, 392), (533, 392), (533, 392), (533, 392), (533, 392), (533, 392), (533, 392), (533, 392), (533, 392), (533, 392), (533, 392), (533, 392), (533, 392), (535, 393), (543, 396), (563, 404), (577, 408), (597, 414), (624, 419), (708, 436), (755, 445)]",14.091708871232624,"[6, 2, 1, 8, 7, 3, 5, 9, 4]","(0, 0.25)",THI008A,THI,A,Chinese,Tue Oct  9 17:20:06 2018,Mouse
2,2,1,0,12,8,8,1,648,528,120,143,0,500,200,8000,"[(512, 384), (512, 384), (512, 384), (512, 384), (512, 384), (512, 384), (512, 384), (512, 384), (512, 384), (512, 384), (512, 384), (512, 384), (512, 384), (512, 384), (512, 384), (512, 384), (512, 384), (512, 384), (512, 384), (512, 384), (512, 384), (512, 384), (512, 384), (512, 384), (512, 384), (512, 384), (512, 384), (512, 384), (512, 384), (512, 384), (512, 384), (512, 384), (512, 384), (512, 384), (512, 384), (512, 384), (512, 384), (512, 384), (512, 384), (512, 384), (512, 384), (512, 384), (512, 384), (512, 384), (512, 384), (512, 384), (512, 384), (512, 384), (512, 384), (512, 384), (512, 384), (512, 384), (512, 387), (507, 398), (503, 405), (497, 411), (492, 418), (477, 433), (465, 441), (447, 454), (423, 481), (374, 520), (351, 536), (339, 545), (325, 554)]",137.72631099390625,"[6, 2, 1, 8, 7, 3, 5, 9, 4]","(0, 0.25)",THI008A,THI,A,Chinese,Tue Oct  9 17:20:06 2018,Mouse
2,2,1,0,13,1,1,1,1027,917,110,142,0,500,200,8000,"[(512, 384), (512, 384), (512, 384), (512, 384), (512, 384), (512, 384), (512, 384), (512, 384), (512, 384), (512, 384), (512, 384), (512, 384), (512, 384), (512, 384), (512, 384), (512, 384), (512, 384), (512, 384), (512, 384), (512, 384), (512, 384), (512, 384), (512, 384), (512, 384), (512, 384), (512, 384), (512, 384), (512, 384), (512, 384), (512, 384), (512, 384), (512, 384), (512, 384), (512, 384), (512, 384), (512, 384), (512, 384), (512, 384), (512, 384), (512, 384), (512, 384), (512, 384), (512, 384), (512, 384), (512, 384), (512, 384), (512, 384), (512, 384), (512, 384), (512, 384), (512, 384), (512, 384), (512, 384), (512, 384), (512, 384), (512, 384), (512, 384), (512, 384), (512, 384), (512, 384), (512, 384), (512, 384), (512, 384), (512, 384), (512, 384), (512, 384), (512, 384), (512, 384), (512, 384), (512, 384), (512, 384), (512, 384), (512, 384), (512, 384), (512, 384), (512, 384), (512, 384), (512, 384), (512, 384), (512, 384), (512, 384), (512, 384), (512, 384), (512, 384), (512, 384), (512, 384), (512, 384), (512, 384), (512, 384), (512, 384), (512, 384), (512, 385), (510, 389), (509, 395), (505, 402), (499, 422), (494, 435), (490, 454), (485, 489), (483, 548), (483, 579), (483, 607), (486, 636)]",95.8906264162041,"[6, 2, 1, 8, 7, 3, 5, 9, 4]","(0, 0.25)",THI008A,THI,A,Chinese,Tue Oct  9 17:20:06 2018,Mouse
2,2,1,0,14,3,3,1,1478,1378,100,141,0,500,200,8000,"[(512, 384), (512, 384), (512, 384), (512, 384), (512, 384), (512, 384), (512, 384), (512, 384), (512, 384), (512, 384), (512, 384), (512, 384), (512, 384), (512, 384), (512, 384), (512, 384), (512, 384), (512, 384), (512, 384), (512, 384), (512, 384), (512, 384), (512, 384), (512, 384), (512, 384), (512, 384), (512, 384), (512, 384), (512, 384), (512, 384), (512, 384), (512, 384), (512, 384), (512, 384), (512, 384), (512, 384), (512, 384), (512, 384), (512, 384), (512, 384), (512, 384), (512, 384), (512, 384), (512, 384), (512, 384), (512, 384), (512, 384), (512, 384), (512, 384), (512, 384), (512, 384), (512, 384), (512, 384), (512, 384), (512, 384), (512, 384), (512, 384), (512, 384), (512, 384), (512, 384), (512, 384), (512, 384), (512, 384), (512, 384), (512, 384), (512, 384), (512, 384), (512, 384), (512, 384), (512, 384), (512, 384), (512, 384), (512, 384), (512, 384), (512, 384), (512, 384), (512, 384), (512, 384), (512, 384), (512, 384), (512, 384), (512, 384), (512, 384), (512, 384), (512, 384), (512, 384), (512, 384), (512, 384), (512, 384), (512, 384), (512, 384), (512, 384), (512, 384), (512, 384), (512, 384), (512, 384), (512, 384), (512, 384), (512, 384), (512, 384), (512, 384), (512, 384), (512, 384), (512, 384), (512, 384), (512, 384), (512, 384), (512, 384), (512, 384), (512, 384), (512, 384), (512, 384), (512, 384), (512, 384), (512, 384), (512, 384), (512, 384), (512, 384), (512, 384), (512, 384), (512, 384), (512, 384), (512, 384), (512, 384), (512, 384), (512, 384), (512, 384), (512, 384), (512, 384), (512, 384), (512, 384), (512, 384), (512, 384), (512, 384), (512, 384), (512, 384), (512, 384), (511, 384), (508, 382), (493, 372), (481, 363), (464, 352), (443, 334), (396, 301), (373, 283), (348, 267), (330, 254), (302, 234)]",215.53767779197437,"[6, 2, 1, 8, 7, 3, 5, 9, 4]","(0, 0.25)",THI008A,THI,A,Chinese,Tue Oct  9 17:20:06 2018,Mouse
2,2,1,0,15,3,3,1,423,353,70,140,0,500,200,8000,"[(512, 384), (512, 384), (512, 384), (512, 384), (512, 384), (512, 384), (512, 384), (512, 384), (512, 384), (512, 384), (512, 384), (512, 384), (512, 384), (512, 384), (512, 384), (512, 384), (512, 384), (512, 384), (512, 384), (512, 384), (512, 384), (512, 384), (512, 384), (512, 384), (512, 384), (512, 384), (512, 384), (512, 384), (512, 384), (512, 384), (512, 384), (512, 384), (512, 384), (512, 384), (512, 384), (509, 382), (489, 371), (463, 357), (429, 345), (365, 316), (332, 296), (302, 279), (264, 256)]",207.2995722113328,"[6, 2, 1, 8, 7, 3, 5, 9, 4]","(0, 0.25)",THI008A,THI,A,Chinese,Tue Oct  9 17:20:06 2018,Mouse
2,2,1,0,16,5,7,0,-4198,3918,280,139,0,500,200,8000,"[(512, 384), (512, 384), (512, 384), (512, 384), (512, 384), (512, 384), (512, 384), (512, 384), (512, 384), (512, 384), (512, 384), (512, 384), (512, 384), (512, 384), (512, 384), (512, 384), (512, 384), (512, 384), (512, 384), (512, 384), (512, 384), (512, 384), (512, 384), (512, 384), (512, 384), (512, 384), (512, 384), (512, 384), (512, 384), (512, 384), (512, 384), (512, 384), (512, 384), (512, 384), (512, 384), (512, 384), (512, 384), (512, 384), (512, 384), (512, 384), (512, 384), (512, 384), (512, 384), (512, 384), (512, 384), (512, 384), (512, 384), (512, 384), (512, 384), (512, 384), (512, 384), (512, 384), (512, 384), (512, 384), (512, 384), (512, 384), (512, 384), (512, 384), (512, 384), (512, 384), (512, 384), (512, 384), (512, 384), (512, 384), (512, 384), (512, 384), (512, 384), (512, 384), (512, 384), (512, 384), (512, 384), (512, 384), (512, 384), (512, 384), (512, 384), (512, 384), (512, 384), (512, 384), (512, 384), (512, 384), (512, 384), (512, 384), (512, 384), (512, 384), (512, 384), (512, 384), (512, 384), (512, 384), (512, 384), (512, 384), (512, 384), (512, 384), (512, 384), (512, 384), (512, 384), (512, 384), (512, 384), (512, 384), (512, 384), (512, 384), (512, 384), (512, 384), (512, 384), (512, 384), (512, 384), (512, 384), (512, 384), (512, 384), (512, 384), (512, 384), (512, 384), (512, 384), (512, 384), (512, 384), (512, 384), (512, 384), (512, 384), (512, 384), (512, 384), (512, 384), (512, 384), (512, 384), (512, 384), (512, 384), (512, 384), (512, 384), (512, 384), (512, 384), (512, 384), (512, 384), (512, 384), (512, 384), (512, 384), (512, 384), (512, 384), (512, 384), (512, 384), (512, 384), (512, 384), (512, 384), (512, 384), (512, 384), (512, 384), (512, 384), (512, 384), (512, 384), (512, 384), (512, 384), (512, 384), (512, 384), (512, 384), (512, 384), (512, 384), (512, 384), (512, 384), (512, 384), (512, 384), (512, 384), (512, 384), (512, 384), (512, 384), (512, 384), (512, 384), (512, 384), (512, 384), (512, 384), (512, 384), (512, 384), (512, 384), (512, 384), (512, 384), (512, 384), (512, 384), (512, 384), (512, 384), (512, 384), (512, 384), (512, 384), (512, 384), (512, 384), (512, 384), (512, 384), (512, 384), (512, 384), (512, 384), (512, 384), (512, 384), (512, 384), (512, 384), (512, 384), (512, 384), (512, 384), (512, 384), (512, 384), (512, 384), (512, 384), (512, 384), (512, 384), (512, 384), (512, 384), (512, 384), (512, 384), (512, 384), (512, 384), (512, 384), (512, 384), (512, 384), (512, 384), (512, 384), (512, 384), (512, 384), (512, 384), (512, 384), (512, 384), (512, 384), (512, 384), (512, 384), (512, 384), (512, 384), (512, 384), (512, 384), (512, 384), (512, 384), (512, 384), (512, 384), (512, 384), (512, 384), (512, 384), (512, 384), (512, 384), (512, 384), (512, 384), (512, 384), (512, 384), (512, 384), (512, 384), (512, 384), (512, 384), (512, 384), (512, 384), (512, 384), (512, 384), (512, 384), (512, 384), (512, 384), (512, 384), (512, 384), (512, 384), (512, 384), (512, 384), (512, 384), (512, 384), (512, 384), (512, 384), (512, 384), (512, 384), (512, 384), (512, 384), (512, 384), (512, 384), (512, 384), (512, 384), (512, 384), (512, 384), (512, 384), (512, 384), (512, 384), (512, 384), (512, 384), (512, 384), (512, 384), (512, 384), (512, 384), (512, 384), (512, 384), (512, 384), (512, 384), (512, 384), (512, 384), (512, 384), (512, 384), (512, 384), (512, 384), (512, 384), (512, 384), (512, 384), (512, 384), (512, 384), (512, 384), (512, 384), (512, 384), (512, 384), (512, 384), (512, 384), (512, 384), (512, 384), (512, 384), (512, 384), (512, 384), (512, 384), (512, 384), (512, 384), (512, 384), (512, 384), (512, 384), (512, 384), (512, 384), (512, 384), (512, 384), (512, 384), (512, 384), (512, 384), (512, 384), (512, 384), (512, 384), (512, 384), (512, 384), (512, 384), (512, 384), (512, 384), (512, 384), (512, 384), (512, 384), (512, 384), (512, 384), (512, 384), (512, 384), (512, 384), (512, 384), (512, 384), (512, 384), (512, 384), (512, 384), (512, 384), (512, 384), (512, 384), (512, 384), (512, 384), (512, 384), (512, 384), (512, 384), (512, 384), (512, 384), (512, 384), (512, 384), (512, 384), (512, 384), (512, 384), (512, 384), (512, 384), (512, 384), (512, 384), (512, 384), (512, 384), (512, 384), (512, 384), (512, 384), (512, 384), (512, 384), (512, 384), (512, 384), (512, 384), (512, 384), (512, 384), (512, 384), (512, 384), (512, 384), (512, 384), (512, 384), (512, 384), (512, 384), (512, 384), (512, 384), (512, 384), (512, 384), (512, 384), (512, 384), (512, 384), (512, 384), (512, 384), (512, 384), (512, 384), (512, 384), (512, 384), (512, 384), (512, 384), (512, 384), (512, 384), (512, 384), (512, 384), (512, 384), (511, 385), (509, 385), (506, 385), (506, 385), (503, 385), (503, 385), (503, 386), (503, 386), (503, 386), (503, 386), (503, 386), (503, 386), (503, 386), (503, 386), (503, 386), (503, 386), (502, 386), (499, 388), (491, 391), (482, 394), (464, 396), (457, 396), (451, 396), (444, 396), (415, 410), (381, 422), (341, 430), (290, 432), (193, 434)]",171.09194757392638,"[6, 2, 1, 8, 7, 3, 5, 9, 4]","(0, 0.25)",THI008A,THI,A,Chinese,Tue Oct  9 17:20:06 2018,Mouse
2,2,1,0,17,4,4,1,2977,2867,110,140,0,500,200,8000,"[(512, 384), (512, 384), (512, 384), (512, 384), (512, 384), (512, 384), (512, 384), (512, 384), (512, 384), (512, 384), (512, 384), (512, 384), (512, 384), (512, 384), (512, 384), (512, 384), (512, 384), (512, 384), (512, 384), (512, 384), (512, 384), (512, 384), (512, 384), (512, 384), (512, 384), (512, 384), (512, 384), (512, 384), (512, 384), (512, 384), (512, 384), (512, 384), (512, 384), (512, 384), (512, 384), (512, 384), (512, 384), (512, 384), (512, 384), (512, 384), (512, 384), (512, 384), (512, 384), (512, 384), (512, 384), (512, 384), (512, 384), (512, 384), (512, 384), (512, 384), (512, 384), (512, 384), (512, 384), (512, 384), (512, 384), (512, 384), (512, 384), (512, 384), (512, 384), (512, 384), (512, 384), (512, 384), (512, 384), (512, 384), (512, 384), (512, 384), (512, 384), (512, 384), (512, 384), (512, 384), (512, 384), (512, 384), (512, 384), (512, 384), (512, 384), (512, 384), (512, 384), (512, 384), (512, 384), (512, 384), (512, 384), (512, 384), (512, 384), (512, 384), (512, 384), (512, 384), (512, 384), (512, 384), (512, 384), (512, 384), (512, 384), (512, 384), (512, 384), (512, 384), (512, 384), (512, 384), (512, 384), (512, 384), (512, 384), (512, 384), (512, 384), (512, 384), (512, 384), (512, 384), (512, 384), (512, 384), (512, 384), (512, 384), (512, 384), (512, 384), (512, 384), (512, 384), (512, 384), (512, 384), (512, 384), (512, 384), (512, 384), (512, 384), (512, 384), (512, 384), (512, 384), (512, 384), (512, 384), (512, 384), (512, 384), (512, 384), (512, 384), (512, 384), (512, 384), (512, 384), (512, 384), (512, 384), (512, 384), (512, 384), (512, 384), (512, 384), (512, 384), (512, 384), (512, 384), (512, 384), (512, 384), (512, 384), (512, 384), (512, 384), (512, 384), (512, 384), (512, 384), (512, 384), (512, 384), (512, 384), (512, 384), (512, 384), (512, 384), (512, 384), (512, 384), (512, 384), (512, 384), (512, 384), (512, 384), (512, 384), (512, 384), (512, 384), (512, 384), (512, 384), (512, 384), (512, 384), (512, 384), (512, 384), (512, 384), (512, 384), (512, 384), (512, 384), (512, 384), (512, 384), (512, 384), (512, 384), (512, 384), (512, 384), (512, 384), (512, 384), (512, 384), (512, 384), (512, 384), (512, 384), (512, 384), (512, 384), (512, 384), (512, 384), (512, 384), (512, 384), (512, 384), (512, 384), (512, 384), (512, 384), (512, 384), (512, 384), (512, 384), (512, 384), (512, 384), (512, 384), (512, 384), (512, 384), (512, 384), (512, 384), (512, 384), (512, 384), (512, 384), (512, 384), (512, 384), (512, 384), (512, 384), (512, 384), (512, 384), (512, 384), (512, 384), (512, 384), (512, 384), (512, 384), (512, 384), (512, 384), (512, 384), (512, 384), (512, 384), (512, 384), (512, 384), (512, 384), (512, 384), (512, 384), (512, 384), (512, 384), (512, 384), (512, 384), (512, 384), (512, 384), (512, 384), (512, 384), (512, 384), (512, 384), (512, 384), (512, 384), (512, 384), (512, 384), (512, 384), (512, 384), (512, 384), (512, 384), (512, 384), (512, 384), (512, 384), (512, 384), (512, 384), (512, 384), (512, 384), (512, 384), (512, 384), (512, 384), (512, 384), (512, 384), (512, 384), (512, 384), (512, 384), (512, 384), (512, 384), (512, 384), (512, 384), (512, 384), (512, 384), (512, 384), (512, 384), (512, 384), (512, 384), (512, 384), (512, 384), (512, 384), (512, 384), (512, 384), (512, 384), (512, 384), (512, 384), (512, 384), (512, 384), (512, 384), (512, 384), (512, 384), (512, 384), (512, 384), (513, 384), (519, 382), (525, 379), (532, 375), (564, 362), (585, 353), (608, 344), (632, 335), (682, 312), (710, 300), (739, 290), (769, 283)]",338.54536638395325,"[6, 2, 1, 8, 7, 3, 5, 9, 4]","(0, 0.25)",THI008A,THI,A,Chinese,Tue Oct  9 17:20:06 2018,Mouse
2,2,1,0,18,3,3,1,1048,908,140,140,0,500,200,8000,"[(512, 384), (512, 384), (512, 384), (512, 384), (512, 384), (512, 384), (512, 384), (512, 384), (512, 384), (512, 384), (512, 384), (512, 384), (512, 384), (512, 384), (512, 384), (512, 384), (512, 384), (512, 384), (512, 384), (512, 384), (512, 384), (512, 384), (512, 384), (512, 384), (512, 384), (512, 384), (512, 384), (512, 384), (512, 384), (512, 384), (512, 384), (512, 384), (512, 384), (512, 384), (512, 384), (512, 384), (512, 384), (512, 384), (512, 384), (512, 384), (512, 384), (512, 384), (512, 384), (512, 384), (512, 384), (512, 384), (512, 384), (512, 384), (512, 384), (512, 384), (512, 384), (512, 384), (512, 384), (512, 384), (512, 384), (512, 384), (512, 384), (512, 384), (512, 384), (512, 384), (512, 384), (512, 384), (512, 384), (512, 384), (512, 384), (512, 384), (512, 384), (512, 384), (512, 384), (512, 384), (512, 384), (512, 384), (512, 384), (512, 384), (512, 384), (512, 384), (512, 384), (512, 384), (512, 384), (512, 384), (512, 384), (512, 384), (512, 384), (512, 384), (512, 384), (512, 384), (512, 384), (512, 384), (512, 384), (512, 384), (511, 383), (498, 372), (488, 364), (474, 354), (459, 342), (426, 321), (407, 309), (396, 303), (381, 295), (353, 278), (342, 274), (331, 268), (321, 263), (304, 251), (298, 244)]",213.19293657840143,"[6, 2, 1, 8, 7, 3, 5, 9, 4]","(0, 0.25)",THI008A,THI,A,Chinese,Tue Oct  9 17:20:06 2018,Mouse
2,2,1,0,19,4,4,1,1416,767,649,139,0,500,200,8000,"[(512, 384), (512, 384), (512, 384), (512, 384), (512, 384), (512, 384), (512, 384), (512, 384), (512, 384), (512, 384), (512, 384), (512, 384), (512, 384), (512, 384), (512, 384), (512, 384), (512, 384), (512, 384), (512, 384), (512, 384), (512, 384), (512, 384), (512, 384), (512, 384), (512, 384), (512, 384), (512, 384), (512, 384), (512, 384), (512, 384), (512, 384), (512, 384), (512, 384), (512, 384), (512, 384), (512, 384), (512, 384), (512, 384), (512, 384), (512, 384), (512, 384), (512, 384), (512, 384), (512, 384), (512, 384), (512, 384), (512, 384), (512, 384), (512, 384), (512, 384), (512, 384), (512, 384), (512, 384), (512, 384), (512, 384), (512, 384), (512, 384), (512, 384), (512, 384), (512, 384), (512, 384), (512, 384), (512, 384), (512, 384), (512, 384), (512, 384), (512, 384), (512, 384), (512, 384), (512, 384), (512, 384), (512, 384), (512, 384), (512, 384), (512, 384), (512, 384), (513, 384), (513, 384), (513, 384), (513, 384), (513, 384), (513, 384), (513, 384), (513, 384), (513, 384), (513, 384), (513, 384), (513, 384), (513, 384), (513, 384), (513, 384), (513, 384), (513, 384), (513, 384), (513, 384), (513, 384), (513, 384), (513, 384), (513, 384), (513, 384), (513, 383), (513, 383), (513, 383), (514, 383), (514, 383), (514, 382), (515, 382), (516, 382), (516, 381), (517, 381), (518, 381), (518, 381), (518, 381), (518, 381), (518, 381), (518, 381), (518, 381), (518, 381), (518, 381), (518, 381), (518, 381), (518, 381), (518, 381), (518, 381), (518, 381), (518, 381), (518, 381), (518, 381), (518, 381), (518, 381), (518, 381), (518, 381), (518, 381), (524, 379), (530, 377), (542, 374), (554, 371), (589, 359), (619, 351), (653, 342), (689, 331), (757, 317)]",344.7053123947294,"[6, 2, 1, 8, 7, 3, 5, 9, 4]","(0, 0.25)",THI008A,THI,A,Chinese,Tue Oct  9 17:20:06 2018,Mouse
2,2,1,0,20,9,5,0,-3240,189,3051,138,0,500,200,8000,"[(512, 384), (512, 384), (512, 384), (512, 384), (512, 384), (512, 384), (512, 384), (512, 384), (512, 384), (512, 384), (512, 384), (512, 384), (512, 384), (512, 384), (512, 384), (512, 384), (512, 384), (512, 384), (511, 384), (511, 384), (511, 384), (511, 384), (511, 384), (511, 384), (511, 384), (511, 384), (511, 384), (511, 384), (511, 384), (511, 384), (511, 384), (511, 384), (511, 384), (511, 384), (511, 384), (511, 384), (511, 384), (511, 384), (511, 384), (511, 384), (511, 384), (511, 384), (511, 384), (511, 384), (511, 384), (511, 384), (511, 384), (511, 384), (511, 384), (511, 384), (511, 384), (511, 384), (511, 384), (511, 384), (511, 384), (511, 384), (511, 384), (511, 384), (511, 384), (511, 384), (511, 384), (511, 384), (511, 384), (511, 384), (511, 384), (511, 384), (511, 384), (511, 384), (511, 384), (511, 384), (511, 384), (511, 384), (511, 384), (511, 384), (511, 384), (511, 384), (511, 384), (511, 384), (511, 384), (511, 384), (511, 384), (511, 384), (511, 384), (511, 384), (511, 384), (511, 384), (511, 384), (511, 384), (511, 384), (511, 384), (511, 384), (511, 384), (511, 384), (511, 384), (511, 384), (511, 384), (511, 384), (511, 384), (511, 384), (511, 384), (511, 384), (511, 384), (511, 384), (511, 384), (511, 384), (511, 384), (511, 384), (511, 384), (511, 384), (511, 384), (511, 384), (511, 384), (511, 384), (511, 384), (511, 384), (511, 384), (511, 384), (511, 384), (511, 384), (511, 384), (511, 384), (511, 384), (511, 384), (511, 384), (511, 384), (511, 384), (511, 384), (511, 384), (511, 384), (511, 384), (511, 384), (511, 384), (511, 384), (511, 384), (511, 384), (511, 384), (511, 384), (511, 384), (511, 384), (511, 384), (511, 384), (511, 384), (511, 384), (511, 384), (511, 384), (511, 384), (511, 384), (511, 384), (511, 384), (511, 384), (511, 384), (511, 384), (511, 384), (511, 384), (511, 384), (511, 384), (511, 384), (511, 384), (511, 384), (511, 384), (511, 384), (511, 384), (511, 384), (511, 384), (511, 384), (511, 384), (511, 384), (511, 384), (511, 384), (511, 384), (511, 384), (511, 384), (511, 384), (511, 384), (511, 384), (511, 384), (511, 384), (511, 384), (511, 384), (511, 385), (511, 386), (511, 386), (510, 388), (510, 390), (509, 394), (507, 406), (504, 420), (503, 422), (503, 426), (503, 427), (503, 429), (503, 429), (503, 429), (503, 429), (503, 429), (503, 429), (503, 429), (503, 429), (503, 429), (503, 429), (503, 429), (503, 429), (503, 429), (503, 429), (503, 429), (503, 429), (503, 429), (503, 429), (503, 429), (503, 429), (503, 429), (503, 429), (503, 429), (503, 429), (503, 429), (503, 429), (503, 429), (503, 429), (503, 429), (503, 430), (503, 430), (503, 430), (503, 430), (503, 430), (503, 430), (503, 430), (503, 430), (503, 430), (504, 429), (505, 428), (506, 425), (506, 423), (507, 421), (507, 417), (508, 404), (508, 400), (508, 395), (508, 391), (508, 387), (508, 385), (508, 382), (510, 378), (514, 365), (518, 355), (521, 344), (524, 334), (529, 316), (530, 309), (533, 302), (535, 294), (541, 275), (545, 263), (549, 251), (552, 241), (556, 229), (556, 227), (557, 227), (557, 226), (557, 226), (557, 226), (557, 226), (557, 226), (557, 226), (557, 226), (557, 226), (557, 226), (557, 226), (557, 227), (557, 228), (557, 231), (557, 234), (557, 235), (557, 235), (557, 235), (557, 235), (557, 235), (557, 235), (557, 235), (557, 235), (557, 235), (557, 235), (557, 235), (557, 235), (557, 235), (557, 235), (557, 235), (557, 238), (557, 240), (557, 242), (557, 244), (557, 248), (557, 250), (556, 253), (556, 256), (554, 264), (553, 268), (551, 281), (549, 293), (542, 317), (541, 327), (540, 335), (539, 344), (537, 359), (537, 363), (537, 365), (537, 366), (537, 366), (537, 366), (537, 366), (537, 366), (537, 366), (537, 366), (537, 366), (537, 366), (537, 366), (537, 362), (536, 355), (534, 341), (529, 303), (523, 278), (515, 252), (506, 219), (483, 149), (471, 120)]",261.1723127789269,"[6, 2, 1, 8, 7, 3, 5, 9, 4]","(0, 0.25)",THI008A,THI,A,Chinese,Tue Oct  9 17:20:06 2018,Mouse
2,2,1,0,21,3,3,1,1239,339,900,139,0,500,200,8000,"[(512, 384), (512, 384), (512, 384), (512, 384), (512, 384), (512, 384), (512, 384), (512, 384), (512, 384), (512, 384), (512, 384), (512, 384), (512, 384), (512, 384), (512, 384), (512, 384), (512, 384), (512, 384), (512, 384), (512, 384), (512, 384), (512, 384), (512, 384), (512, 384), (512, 384), (512, 384), (512, 384), (512, 384), (512, 384), (512, 384), (512, 384), (512, 384), (512, 384), (511, 388), (511, 392), (511, 395), (511, 402), (511, 428), (516, 439), (519, 448), (523, 456), (529, 469), (531, 472), (532, 473), (532, 474), (532, 474), (532, 474), (532, 474), (532, 474), (532, 474), (532, 474), (532, 474), (532, 474), (532, 474), (532, 474), (532, 474), (532, 474), (532, 474), (532, 474), (532, 474), (532, 474), (532, 474), (532, 474), (532, 474), (532, 474), (532, 474), (532, 473), (532, 473), (531, 473), (531, 473), (531, 473), (531, 473), (529, 473), (527, 471), (523, 470), (519, 469), (512, 466), (489, 457), (476, 451), (460, 445), (442, 438), (405, 426), (382, 418), (366, 414), (348, 412), (326, 410), (320, 410), (320, 410), (320, 410), (320, 410), (320, 410), (320, 410), (320, 410), (320, 410), (320, 410), (320, 410), (320, 410), (321, 410), (323, 410), (324, 410), (327, 410), (329, 410), (330, 411), (331, 411), (332, 411), (333, 411), (333, 411), (334, 411), (334, 411), (336, 411), (337, 411), (338, 411), (340, 411), (343, 409), (345, 406), (349, 400), (352, 391), (356, 369), (356, 349), (356, 326), (355, 301), (343, 251), (333, 223), (323, 204)]",223.60281897270363,"[6, 2, 1, 8, 7, 3, 5, 9, 4]","(0, 0.25)",THI008A,THI,A,Chinese,Tue Oct  9 17:20:06 2018,Mouse
2,2,1,0,22,9,9,1,1738,1578,160,139,0,500,200,8000,"[(512, 384), (512, 384), (512, 384), (512, 384), (512, 384), (512, 384), (512, 384), (512, 384), (512, 384), (512, 384), (512, 384), (512, 384), (512, 384), (512, 384), (512, 384), (512, 384), (512, 384), (512, 384), (512, 384), (512, 384), (512, 384), (512, 384), (512, 384), (512, 384), (512, 384), (512, 384), (512, 384), (512, 384), (512, 384), (512, 384), (512, 384), (512, 384), (512, 384), (512, 384), (512, 384), (512, 384), (512, 384), (512, 384), (512, 384), (512, 384), (512, 384), (512, 384), (512, 384), (512, 384), (512, 384), (512, 384), (512, 384), (512, 384), (512, 384), (512, 384), (512, 384), (512, 384), (512, 384), (512, 384), (512, 384), (512, 384), (512, 384), (512, 384), (512, 384), (512, 384), (512, 384), (512, 384), (512, 384), (512, 384), (512, 384), (512, 384), (512, 384), (512, 384), (512, 384), (512, 384), (512, 384), (512, 384), (512, 384), (512, 384), (512, 384), (512, 384), (512, 384), (512, 384), (512, 384), (512, 384), (512, 384), (512, 384), (512, 384), (512, 384), (512, 384), (512, 384), (512, 384), (512, 384), (512, 384), (512, 384), (512, 384), (512, 384), (512, 384), (512, 384), (512, 384), (512, 384), (512, 384), (512, 384), (512, 384), (512, 384), (512, 384), (512, 384), (512, 384), (512, 384), (512, 384), (512, 384), (512, 384), (512, 384), (512, 384), (512, 384), (512, 384), (512, 384), (512, 384), (512, 384), (512, 384), (512, 384), (512, 384), (512, 384), (512, 384), (512, 384), (512, 384), (512, 384), (512, 384), (512, 384), (512, 384), (512, 384), (512, 384), (512, 384), (512, 384), (512, 384), (512, 384), (512, 384), (512, 384), (512, 384), (512, 384), (512, 384), (512, 384), (512, 384), (512, 384), (512, 384), (512, 384), (512, 384), (512, 384), (512, 384), (512, 384), (512, 384), (512, 384), (512, 384), (512, 384), (512, 384), (512, 384), (512, 384), (512, 384), (512, 384), (512, 384), (512, 384), (512, 384), (514, 383), (515, 382), (517, 381), (518, 381), (520, 381), (521, 379), (524, 377), (536, 364), (542, 353), (547, 343), (553, 330), (568, 299), (579, 278), (590, 257), (599, 231), (622, 181), (629, 163)]",297.89727103094765,"[6, 2, 1, 8, 7, 3, 5, 9, 4]","(0, 0.25)",THI008A,THI,A,Chinese,Tue Oct  9 17:20:06 2018,Mouse
2,2,1,0,23,1,3,0,-5198,1238,3960,138,0,500,200,8000,"[(512, 384), (512, 384), (512, 384), (512, 384), (512, 384), (512, 384), (512, 384), (512, 384), (512, 384), (512, 384), (512, 384), (512, 384), (512, 384), (512, 384), (512, 384), (512, 384), (512, 384), (512, 384), (512, 384), (512, 384), (512, 384), (512, 384), (512, 384), (512, 384), (512, 384), (512, 384), (512, 384), (512, 384), (512, 384), (512, 384), (512, 384), (512, 384), (512, 384), (512, 384), (512, 384), (512, 384), (512, 384), (512, 384), (512, 384), (512, 384), (512, 384), (512, 384), (512, 384), (512, 384), (512, 384), (512, 384), (512, 384), (512, 384), (512, 384), (512, 384), (512, 384), (512, 384), (512, 384), (512, 384), (512, 384), (512, 384), (512, 384), (512, 384), (512, 384), (512, 384), (512, 384), (512, 384), (512, 384), (512, 384), (512, 384), (512, 384), (512, 384), (512, 384), (512, 384), (512, 384), (512, 384), (512, 384), (512, 384), (512, 384), (512, 384), (512, 384), (512, 384), (512, 384), (512, 384), (512, 384), (512, 384), (512, 384), (512, 384), (512, 384), (512, 384), (512, 384), (512, 384), (512, 384), (512, 384), (512, 384), (512, 384), (512, 384), (512, 384), (512, 384), (512, 384), (512, 384), (512, 384), (512, 384), (512, 384), (512, 384), (512, 384), (512, 384), (512, 384), (512, 384), (512, 384), (512, 384), (512, 384), (512, 384), (512, 384), (512, 384), (512, 384), (512, 384), (512, 384), (512, 384), (512, 384), (512, 384), (512, 384), (512, 384), (512, 384), (512, 384), (512, 384), (512, 384), (512, 384), (511, 384), (509, 385), (505, 385), (505, 385), (504, 385), (504, 388), (505, 388), (505, 388), (505, 388), (505, 388), (505, 388), (505, 388), (505, 388), (505, 388), (505, 388), (505, 388), (505, 388), (505, 388), (505, 388), (505, 388), (505, 388), (505, 388), (505, 388), (505, 388), (505, 388), (505, 388), (505, 388), (505, 388), (505, 388), (505, 388), (505, 388), (505, 388), (505, 388), (505, 388), (505, 388), (505, 388), (505, 388), (505, 388), (505, 388), (505, 388), (505, 388), (505, 388), (505, 388), (505, 388), (505, 388), (505, 388), (505, 388), (505, 388), (505, 388), (505, 388), (505, 388), (505, 388), (505, 388), (505, 388), (505, 388), (505, 388), (505, 388), (505, 388), (505, 388), (505, 388), (505, 388), (505, 388), (505, 388), (505, 388), (505, 388), (505, 388), (505, 388), (505, 388), (505, 388), (505, 388), (505, 388), (505, 388), (505, 388), (505, 388), (505, 388), (505, 388), (505, 388), (505, 388), (505, 388), (505, 388), (505, 388), (505, 388), (505, 388), (505, 388), (505, 388), (505, 388), (505, 388), (505, 388), (505, 388), (505, 388), (505, 388), (505, 388), (505, 388), (505, 388), (505, 388), (505, 388), (505, 388), (505, 388), (505, 388), (505, 388), (505, 388), (507, 389), (510, 390), (510, 390), (510, 390), (515, 391), (516, 391), (516, 391), (517, 391), (517, 391), (517, 391), (517, 391), (517, 391), (517, 391), (517, 391), (518, 391), (518, 391), (518, 390), (522, 390), (525, 390), (529, 390), (531, 390), (535, 390), (536, 390), (536, 390), (536, 390), (536, 390), (536, 390), (536, 390), (536, 390), (536, 390), (536, 390), (536, 390), (536, 390), (536, 390), (536, 390), (536, 390), (536, 390), (536, 390), (536, 390), (536, 390), (536, 390), (536, 390), (536, 390), (536, 390), (536, 390), (536, 390), (536, 390), (536, 390), (536, 390), (536, 390), (536, 390), (536, 389), (536, 389), (536, 389), (536, 389), (536, 389), (537, 389), (537, 388), (537, 388), (537, 388), (537, 388), (537, 388), (537, 388), (537, 388), (537, 388), (537, 388), (537, 388), (537, 388), (537, 387), (537, 386), (538, 386), (538, 386), (538, 386), (538, 386), (538, 386), (538, 386), (538, 386), (538, 386), (538, 386), (538, 386), (538, 386), (538, 385), (538, 385), (538, 385), (539, 385), (539, 385), (539, 385), (539, 385), (539, 385), (539, 385), (539, 385), (539, 385), (539, 385), (539, 385), (539, 385), (539, 385), (539, 385), (539, 385), (539, 385), (539, 385), (539, 385), (539, 385), (539, 385), (539, 385), (539, 385), (539, 385), (539, 385), (539, 385), (539, 385), (539, 385), (539, 385), (539, 385), (539, 385), (539, 385), (539, 385), (539, 385), (539, 385), (539, 385), (539, 385), (539, 385), (539, 385), (539, 385), (539, 385), (539, 385), (539, 385), (539, 385), (539, 385), (539, 385), (539, 385), (539, 385), (539, 385), (539, 385), (539, 385), (539, 385), (539, 385), (539, 385), (539, 385), (539, 385), (539, 385), (539, 385), (539, 385), (539, 385), (539, 385), (539, 385), (539, 385), (539, 385), (539, 385), (539, 385), (539, 385), (539, 385), (539, 385), (539, 385), (539, 385), (539, 385), (539, 385), (539, 385), (539, 385), (539, 385), (539, 385), (539, 385), (539, 385), (539, 385), (539, 385), (539, 385), (539, 385), (539, 385), (539, 385), (539, 385), (539, 385), (539, 385), (539, 385), (539, 385), (539, 385), (539, 385), (539, 385), (539, 385), (539, 385), (539, 385), (539, 385), (539, 385), (539, 385), (539, 385), (539, 385), (539, 385), (539, 385), (539, 385), (539, 385), (539, 385), (539, 385), (539, 385), (539, 385), (539, 385), (539, 385), (539, 385), (539, 385), (539, 385), (539, 385), (539, 385), (539, 385), (539, 385), (539, 385), (539, 385), (539, 385), (539, 385), (539, 385), (539, 385), (539, 385), (539, 385), (539, 385), (542, 385), (543, 385), (543, 385), (543, 385), (543, 385), (543, 385), (543, 385), (544, 385), (544, 385), (544, 385), (544, 385), (544, 385), (544, 385), (544, 385), (544, 385), (544, 385), (544, 385), (544, 385), (544, 385), (544, 385), (544, 385), (544, 385), (544, 385), (544, 385), (544, 385), (544, 385), (544, 385), (544, 385), (544, 385), (544, 385), (544, 385), (544, 385), (544, 385), (544, 385), (544, 385), (544, 385), (544, 385), (544, 385), (544, 385), (544, 385), (544, 385), (544, 385), (544, 385), (544, 385), (544, 385), (544, 385), (544, 385), (544, 385), (544, 385), (544, 385), (544, 385), (544, 385), (544, 385), (544, 385), (544, 385), (544, 385), (544, 385), (544, 385), (544, 385), (544, 385), (544, 385), (544, 385), (544, 385), (544, 385), (544, 385), (544, 385), (544, 385), (544, 385), (544, 385), (544, 385), (544, 385), (544, 383), (536, 375), (534, 372), (532, 371), (530, 368), (528, 365), (524, 359), (518, 350), (508, 336), (481, 308), (462, 291), (439, 273), (413, 250), (365, 215), (346, 203), (327, 193)]",225.914216760449,"[6, 2, 1, 8, 7, 3, 5, 9, 4]","(0, 0.25)",THI008A,THI,A,Chinese,Tue Oct  9 17:20:06 2018,Mouse
2,2,1,0,24,3,3,1,1837,407,1430,139,0,500,200,8000,"[(512, 384), (512, 384), (512, 384), (512, 384), (512, 384), (512, 384), (512, 384), (512, 384), (512, 384), (512, 384), (512, 384), (512, 384), (512, 384), (512, 384), (512, 384), (512, 384), (512, 384), (512, 384), (512, 384), (512, 384), (512, 384), (512, 384), (512, 384), (512, 384), (512, 384), (512, 384), (512, 384), (512, 384), (512, 384), (512, 384), (512, 384), (512, 384), (512, 384), (512, 384), (512, 384), (512, 384), (512, 384), (512, 384), (512, 384), (512, 384), (512, 385), (513, 385), (513, 385), (513, 386), (513, 387), (514, 387), (514, 387), (515, 388), (515, 388), (515, 388), (515, 388), (515, 388), (515, 388), (515, 388), (515, 388), (515, 388), (515, 388), (515, 388), (515, 388), (515, 388), (516, 389), (516, 389), (516, 389), (516, 390), (516, 390), (516, 390), (516, 391), (516, 391), (516, 391), (516, 391), (516, 391), (516, 391), (516, 391), (516, 391), (516, 391), (516, 391), (516, 391), (516, 391), (516, 391), (516, 391), (516, 391), (516, 391), (516, 391), (516, 391), (516, 391), (516, 391), (516, 391), (516, 391), (516, 391), (517, 391), (517, 391), (517, 391), (518, 392), (518, 392), (518, 392), (519, 392), (519, 392), (519, 392), (519, 392), (519, 392), (519, 392), (519, 392), (519, 392), (519, 392), (519, 392), (519, 392), (519, 392), (519, 392), (519, 392), (520, 392), (521, 393), (523, 393), (526, 395), (528, 395), (528, 395), (529, 395), (529, 395), (529, 395), (529, 395), (529, 395), (529, 395), (529, 395), (529, 395), (530, 395), (531, 395), (531, 395), (532, 395), (532, 395), (532, 395), (532, 395), (532, 395), (533, 395), (534, 394), (534, 394), (534, 393), (535, 393), (536, 392), (536, 392), (536, 392), (537, 391), (537, 391), (537, 390), (538, 390), (538, 390), (539, 388), (540, 387), (540, 385), (540, 384), (540, 383), (540, 383), (540, 383), (540, 382), (539, 380), (539, 378), (538, 376), (536, 373), (533, 370), (532, 369), (532, 369), (532, 369), (532, 369), (532, 369), (532, 369), (532, 369), (532, 369), (532, 369), (532, 369), (532, 369), (532, 369), (532, 369), (532, 369), (532, 369), (532, 369), (532, 369), (532, 369), (531, 369), (522, 364), (515, 359), (505, 351), (492, 340), (443, 299), (406, 268), (366, 234), (319, 197)]",224.0954049662673,"[6, 2, 1, 8, 7, 3, 5, 9, 4]","(0, 0.25)",THI008A,THI,A,Chinese,Tue Oct  9 17:20:06 2018,Mouse
2,2,1,0,25,8,8,1,598,518,80,139,0,500,200,8000,"[(512, 384), (512, 384), (512, 384), (512, 384), (512, 384), (512, 384), (512, 384), (512, 384), (512, 384), (512, 384), (512, 384), (512, 384), (512, 384), (512, 384), (512, 384), (512, 384), (512, 384), (512, 384), (512, 384), (512, 384), (512, 384), (512, 384), (512, 384), (512, 384), (512, 384), (512, 384), (512, 384), (512, 384), (512, 384), (512, 384), (512, 384), (512, 384), (512, 384), (512, 384), (512, 384), (512, 384), (512, 384), (512, 384), (512, 384), (512, 384), (512, 384), (512, 384), (512, 384), (512, 384), (512, 384), (512, 384), (512, 384), (512, 384), (512, 384), (512, 384), (512, 384), (510, 388), (507, 390), (501, 394), (491, 406), (458, 442), (432, 467), (405, 494), (373, 522), (313, 573)]",136.47636850981308,"[6, 2, 1, 8, 7, 3, 5, 9, 4]","(0, 0.25)",THI008A,THI,A,Chinese,Tue Oct  9 17:20:06 2018,Mouse
2,2,1,0,26,6,2,0,-3928,458,3470,138,0,500,200,8000,"[(512, 384), (512, 384), (512, 384), (512, 384), (512, 384), (512, 384), (512, 384), (512, 384), (512, 384), (512, 384), (512, 384), (512, 384), (512, 384), (512, 384), (512, 384), (512, 384), (512, 384), (512, 384), (512, 384), (512, 384), (512, 384), (512, 384), (512, 384), (512, 384), (512, 384), (512, 384), (512, 384), (512, 384), (512, 384), (512, 384), (512, 384), (512, 384), (512, 384), (512, 384), (512, 384), (512, 384), (512, 384), (512, 384), (512, 384), (512, 384), (512, 384), (512, 384), (512, 384), (512, 384), (512, 384), (496, 384), (486, 383), (478, 383), (471, 382), (464, 381), (464, 381), (463, 381), (463, 381), (463, 381), (463, 381), (463, 381), (463, 381), (463, 381), (463, 381), (463, 381), (463, 381), (463, 381), (463, 381), (463, 381), (463, 381), (463, 381), (463, 381), (463, 381), (463, 381), (463, 381), (463, 381), (463, 381), (463, 381), (464, 381), (464, 381), (464, 381), (464, 381), (464, 381), (464, 381), (464, 381), (464, 381), (464, 381), (464, 381), (464, 381), (464, 381), (464, 381), (464, 381), (464, 381), (464, 381), (464, 381), (464, 381), (464, 381), (464, 381), (465, 381), (467, 381), (467, 381), (468, 382), (468, 382), (468, 382), (468, 382), (468, 382), (468, 382), (468, 382), (468, 382), (468, 382), (468, 382), (468, 382), (468, 382), (468, 382), (468, 382), (468, 382), (468, 382), (468, 382), (468, 382), (468, 382), (468, 382), (468, 382), (468, 382), (468, 382), (468, 382), (468, 382), (468, 382), (468, 382), (468, 382), (468, 382), (468, 382), (468, 382), (468, 382), (468, 382), (468, 382), (468, 382), (468, 382), (468, 382), (468, 382), (468, 382), (468, 382), (468, 382), (468, 382), (468, 382), (469, 382), (470, 382), (474, 382), (475, 382), (476, 382), (478, 382), (479, 382), (481, 382), (481, 382), (481, 382), (481, 382), (481, 382), (481, 382), (481, 382), (481, 382), (481, 382), (481, 382), (481, 382), (481, 382), (481, 382), (481, 382), (481, 382), (481, 382), (481, 382), (481, 382), (481, 382), (482, 383), (482, 384), (482, 384), (482, 384), (482, 385), (482, 385), (482, 385), (482, 385), (482, 385), (482, 385), (482, 385), (482, 385), (482, 385), (482, 385), (482, 385), (482, 385), (482, 385), (482, 385), (482, 385), (482, 385), (482, 385), (482, 385), (482, 385), (482, 385), (482, 386), (482, 386), (482, 386), (482, 386), (482, 386), (482, 386), (482, 386), (482, 386), (482, 387), (482, 387), (482, 387), (482, 387), (482, 387), (482, 387), (482, 387), (482, 387), (482, 387), (482, 387), (482, 387), (482, 387), (482, 387), (482, 387), (482, 387), (482, 387), (482, 387), (482, 387), (482, 387), (482, 387), (482, 387), (482, 387), (482, 387), (482, 387), (482, 387), (482, 387), (482, 387), (482, 387), (482, 387), (482, 387), (482, 387), (482, 387), (482, 387), (482, 387), (482, 387), (482, 387), (482, 387), (482, 387), (481, 387), (481, 387), (481, 387), (481, 387), (481, 387), (481, 387), (481, 387), (481, 387), (481, 387), (481, 387), (481, 387), (481, 387), (481, 387), (481, 387), (481, 387), (481, 387), (481, 387), (481, 387), (481, 387), (481, 387), (481, 387), (481, 387), (481, 387), (481, 387), (481, 387), (481, 387), (481, 387), (481, 387), (481, 387), (481, 387), (481, 387), (481, 387), (481, 387), (481, 387), (481, 387), (481, 387), (481, 387), (481, 387), (481, 387), (481, 387), (481, 387), (481, 387), (481, 387), (481, 387), (481, 387), (481, 387), (481, 387), (481, 387), (481, 387), (481, 387), (481, 387), (481, 387), (481, 387), (481, 387), (481, 387), (481, 387), (481, 387), (481, 387), (481, 387), (481, 387), (481, 387), (481, 387), (481, 387), (481, 387), (481, 387), (481, 387), (481, 387), (481, 387), (481, 387), (481, 387), (487, 388), (489, 390), (491, 390), (493, 392), (498, 394), (500, 396), (502, 397), (503, 398), (507, 399), (509, 401), (511, 402), (512, 404), (516, 407), (518, 408), (520, 410), (524, 412), (532, 417), (535, 419), (538, 420), (539, 421), (542, 423), (543, 424), (546, 425), (547, 425), (552, 428), (554, 428), (556, 428), (557, 428), (561, 428), (562, 429), (564, 429), (566, 429), (568, 429), (569, 429), (570, 429), (570, 429), (571, 429), (573, 428), (574, 427), (575, 427), (576, 426), (577, 426), (578, 425), (578, 425), (579, 424), (579, 423), (579, 422), (579, 421), (581, 418), (581, 417), (581, 416), (581, 415), (581, 414), (581, 414), (581, 414), (581, 414), (583, 413), (583, 413), (583, 413), (583, 413), (584, 413), (584, 412), (584, 411), (584, 411), (585, 411), (585, 411), (587, 411), (588, 412), (596, 416), (598, 418), (602, 422), (605, 427), (613, 442), (616, 448), (619, 454), (622, 460), (626, 470), (627, 475), (628, 479), (630, 485), (635, 504), (639, 512), (644, 522), (651, 532), (662, 550), (669, 559), (674, 568), (680, 575)]",48.66575029263038,"[6, 2, 1, 8, 7, 3, 5, 9, 4]","(0, 0.25)",THI008A,THI,A,Chinese,Tue Oct  9 17:20:06 2018,Mouse
2,2,1,0,27,2,2,1,1007,867,140,139,0,500,200,8000,"[(511, 384), (511, 384), (511, 384), (511, 384), (511, 384), (511, 384), (511, 384), (511, 384), (511, 384), (511, 384), (511, 384), (511, 384), (511, 384), (511, 384), (511, 384), (511, 384), (511, 384), (511, 384), (511, 384), (511, 384), (511, 384), (511, 384), (511, 384), (511, 384), (511, 384), (511, 384), (511, 384), (511, 384), (511, 384), (511, 384), (511, 384), (511, 384), (511, 384), (511, 384), (511, 384), (511, 384), (511, 384), (511, 384), (511, 384), (511, 384), (511, 384), (511, 384), (511, 384), (511, 384), (511, 384), (511, 384), (511, 384), (511, 384), (511, 384), (511, 384), (511, 384), (511, 384), (511, 384), (511, 384), (511, 384), (511, 384), (511, 384), (511, 384), (511, 384), (511, 384), (511, 384), (511, 384), (511, 384), (511, 384), (511, 384), (511, 384), (511, 384), (511, 384), (511, 384), (511, 384), (511, 384), (511, 384), (511, 384), (511, 384), (511, 384), (511, 384), (511, 384), (511, 384), (511, 384), (511, 384), (511, 384), (511, 384), (511, 384), (511, 384), (511, 384), (511, 384), (514, 387), (515, 390), (517, 400), (518, 405), (518, 416), (518, 431), (522, 471), (528, 493), (534, 515), (538, 537), (550, 578), (554, 595), (557, 607), (562, 619), (573, 639)]",76.5467646935446,"[6, 2, 1, 8, 7, 3, 5, 9, 4]","(0, 0.25)",THI008A,THI,A,Chinese,Tue Oct  9 17:20:06 2018,Mouse
2,2,1,0,28,7,9,0,-1739,1229,510,139,0,500,200,8000,"[(512, 384), (512, 384), (512, 384), (512, 384), (512, 384), (512, 384), (512, 384), (512, 384), (512, 384), (512, 384), (512, 384), (512, 384), (512, 384), (512, 384), (512, 384), (512, 384), (512, 384), (512, 384), (512, 384), (512, 384), (512, 384), (512, 384), (512, 384), (512, 384), (512, 384), (512, 384), (512, 384), (512, 384), (512, 384), (512, 384), (512, 384), (512, 384), (512, 384), (512, 384), (512, 384), (512, 384), (512, 384), (512, 384), (512, 384), (512, 384), (512, 384), (512, 384), (512, 384), (512, 384), (512, 384), (512, 384), (512, 384), (512, 384), (512, 384), (512, 384), (512, 384), (512, 384), (512, 384), (512, 384), (512, 384), (512, 384), (512, 384), (512, 384), (512, 384), (512, 384), (512, 384), (512, 384), (512, 384), (512, 384), (512, 384), (512, 384), (512, 384), (512, 384), (512, 384), (512, 384), (512, 384), (512, 384), (512, 384), (512, 384), (512, 384), (512, 384), (512, 384), (512, 384), (512, 384), (512, 384), (512, 384), (512, 384), (512, 384), (512, 384), (512, 384), (512, 384), (512, 384), (512, 384), (512, 384), (512, 384), (512, 384), (512, 384), (512, 384), (512, 384), (512, 384), (512, 384), (512, 384), (512, 384), (512, 384), (512, 384), (512, 384), (512, 384), (512, 384), (512, 384), (512, 384), (512, 384), (512, 384), (512, 384), (512, 384), (512, 384), (512, 384), (512, 384), (512, 384), (512, 384), (512, 384), (512, 384), (512, 384), (512, 384), (512, 384), (512, 384), (512, 384), (512, 384), (513, 384), (514, 384), (514, 384), (515, 384), (515, 384), (515, 384), (515, 384), (515, 384), (516, 384), (516, 384), (516, 383), (517, 383), (517, 383), (517, 383), (517, 383), (517, 383), (517, 383), (517, 383), (517, 383), (517, 383), (517, 383), (517, 383), (517, 383), (517, 383), (517, 383), (517, 383), (517, 383), (517, 383), (517, 383), (517, 383), (517, 383), (517, 383), (517, 382), (519, 382), (521, 380), (526, 377), (538, 369), (546, 364), (552, 360), (561, 354), (581, 338), (595, 325), (610, 313), (622, 298), (645, 266), (654, 248), (660, 233), (663, 220), (664, 198), (664, 191), (664, 186), (664, 182)]",306.96055544916334,"[6, 2, 1, 8, 7, 3, 5, 9, 4]","(0, 0.25)",THI008A,THI,A,Chinese,Tue Oct  9 17:20:06 2018,Mouse
2,2,1,0,29,8,7,0,-2637,1757,880,140,0,500,200,8000,"[(512, 384), (512, 384), (512, 384), (512, 384), (512, 384), (512, 384), (512, 384), (512, 384), (512, 384), (512, 384), (512, 384), (512, 384), (512, 384), (512, 384), (512, 384), (512, 384), (512, 384), (512, 384), (512, 384), (512, 384), (512, 384), (512, 384), (512, 384), (512, 384), (512, 384), (512, 384), (512, 384), (512, 384), (512, 384), (512, 384), (512, 384), (512, 384), (512, 384), (512, 384), (512, 384), (512, 384), (512, 384), (512, 384), (512, 384), (512, 384), (512, 384), (512, 384), (512, 384), (512, 384), (512, 384), (512, 384), (512, 384), (512, 384), (512, 384), (512, 384), (512, 384), (512, 384), (512, 384), (512, 384), (512, 384), (512, 384), (512, 384), (512, 384), (512, 384), (512, 384), (512, 384), (512, 384), (512, 384), (512, 384), (512, 384), (512, 384), (512, 384), (512, 384), (512, 384), (512, 384), (512, 384), (512, 384), (512, 384), (512, 384), (512, 384), (512, 384), (512, 384), (512, 384), (512, 384), (512, 384), (512, 384), (512, 384), (512, 384), (512, 384), (512, 384), (512, 384), (512, 384), (512, 384), (512, 384), (512, 384), (512, 384), (512, 384), (512, 384), (512, 384), (512, 384), (512, 384), (512, 384), (512, 384), (512, 384), (512, 384), (512, 384), (512, 384), (512, 384), (512, 384), (512, 384), (512, 384), (512, 384), (512, 384), (512, 384), (512, 384), (512, 384), (512, 384), (512, 384), (512, 384), (512, 384), (512, 384), (512, 384), (512, 384), (512, 384), (512, 384), (512, 384), (512, 384), (512, 384), (512, 384), (512, 384), (512, 384), (512, 384), (512, 384), (512, 384), (512, 384), (512, 384), (512, 384), (512, 384), (512, 384), (512, 384), (512, 384), (512, 384), (512, 384), (512, 384), (512, 384), (512, 384), (512, 384), (512, 384), (512, 384), (512, 384), (512, 384), (512, 384), (512, 384), (512, 384), (512, 384), (512, 384), (512, 384), (512, 384), (512, 384), (512, 384), (512, 384), (512, 384), (512, 384), (512, 384), (512, 384), (512, 384), (512, 384), (512, 384), (512, 384), (512, 384), (512, 384), (512, 384), (512, 384), (512, 384), (512, 384), (512, 384), (512, 384), (512, 384), (512, 384), (512, 384), (510, 384), (506, 382), (501, 379), (494, 376), (482, 371), (476, 369), (471, 366), (465, 363), (463, 363), (463, 363), (463, 363), (463, 363), (463, 363), (463, 363), (463, 363), (463, 363), (463, 363), (463, 363), (463, 363), (463, 363), (463, 363), (463, 363), (463, 363), (463, 363), (463, 363), (463, 363), (463, 363), (463, 363), (463, 363), (463, 363), (463, 363), (464, 363), (464, 363), (464, 363), (465, 363), (465, 363), (465, 363), (465, 363), (465, 363), (465, 363), (465, 363), (465, 363), (465, 363), (465, 363), (465, 363), (465, 363), (465, 363), (465, 363), (465, 363), (465, 363), (465, 363), (465, 363), (465, 363), (465, 363), (465, 363), (465, 363), (465, 363), (465, 363), (465, 363), (465, 363), (465, 363), (465, 363), (465, 363), (469, 364), (470, 365), (473, 366), (473, 366), (474, 366), (475, 366), (475, 366), (475, 367), (475, 367), (476, 367), (476, 368), (477, 368), (477, 368), (477, 370), (477, 371), (477, 374), (476, 377), (474, 379), (471, 381), (466, 384), (447, 403), (431, 412), (407, 425), (373, 437), (294, 456), (256, 459)]",163.67106444504793,"[6, 2, 1, 8, 7, 3, 5, 9, 4]","(0, 0.25)",THI008A,THI,A,Chinese,Tue Oct  9 17:20:06 2018,Mouse
2,2,1,0,30,3,3,1,1418,398,1020,141,0,500,200,8000,"[(512, 384), (512, 384), (512, 384), (512, 384), (512, 384), (512, 384), (512, 384), (512, 384), (512, 384), (512, 384), (512, 384), (512, 384), (512, 384), (512, 384), (512, 384), (512, 384), (512, 384), (512, 384), (512, 384), (512, 384), (512, 384), (512, 384), (512, 384), (512, 384), (512, 384), (512, 384), (512, 384), (512, 384), (512, 384), (512, 384), (512, 384), (512, 384), (512, 384), (512, 384), (512, 384), (512, 384), (512, 384), (512, 384), (512, 384), (512, 387), (514, 391), (515, 393), (516, 395), (516, 395), (516, 395), (516, 395), (516, 395), (516, 395), (516, 395), (507, 394), (501, 392), (494, 387), (487, 382), (472, 374), (466, 370), (461, 367), (457, 365), (451, 362), (450, 362), (447, 362), (444, 362), (437, 362), (431, 362), (424, 362), (416, 363), (402, 365), (399, 365), (397, 365), (397, 365), (397, 365), (397, 365), (397, 365), (397, 365), (397, 365), (397, 365), (397, 365), (397, 365), (397, 365), (397, 365), (397, 365), (397, 365), (397, 365), (397, 365), (397, 365), (397, 365), (397, 365), (398, 365), (398, 365), (398, 365), (398, 364), (398, 364), (398, 364), (398, 364), (398, 364), (398, 364), (398, 364), (398, 364), (398, 364), (398, 364), (398, 364), (398, 364), (398, 364), (398, 364), (398, 364), (398, 364), (398, 364), (398, 364), (398, 364), (398, 365), (397, 366), (397, 366), (397, 366), (397, 366), (397, 366), (397, 366), (397, 366), (397, 366), (397, 366), (397, 366), (397, 366), (397, 366), (397, 366), (397, 366), (397, 366), (397, 366), (397, 366), (397, 366), (397, 366), (397, 366), (397, 365), (397, 362), (397, 359), (397, 355), (390, 338), (384, 328), (375, 317), (365, 305), (346, 285), (338, 270), (328, 256), (321, 245), (310, 229)]",217.49999079303495,"[6, 2, 1, 8, 7, 3, 5, 9, 4]","(0, 0.25)",THI008A,THI,A,Chinese,Tue Oct  9 17:20:06 2018,Mouse
2,2,1,0,31,1,6,0,-3396,2026,1370,141,0,500,200,8000,"[(512, 384), (512, 384), (512, 384), (512, 384), (512, 384), (512, 384), (512, 384), (512, 384), (512, 384), (512, 384), (512, 384), (512, 384), (512, 384), (512, 384), (512, 384), (512, 384), (512, 384), (512, 384), (512, 384), (512, 384), (512, 384), (512, 384), (512, 384), (512, 384), (512, 384), (512, 384), (512, 384), (512, 384), (512, 384), (512, 384), (512, 384), (512, 384), (512, 384), (512, 384), (512, 384), (512, 384), (512, 384), (512, 384), (512, 384), (512, 384), (512, 384), (512, 384), (512, 384), (512, 384), (512, 384), (512, 384), (512, 384), (512, 384), (512, 384), (512, 384), (512, 384), (512, 384), (512, 384), (512, 384), (512, 384), (512, 384), (512, 384), (512, 384), (512, 384), (512, 384), (512, 384), (512, 384), (512, 384), (512, 384), (512, 384), (512, 384), (512, 384), (512, 384), (512, 384), (512, 384), (512, 384), (512, 384), (512, 384), (512, 384), (512, 384), (512, 384), (512, 384), (512, 384), (512, 384), (512, 384), (512, 384), (512, 384), (512, 384), (512, 384), (512, 384), (512, 384), (512, 384), (512, 384), (512, 384), (512, 384), (512, 384), (512, 384), (512, 384), (512, 384), (512, 384), (512, 384), (512, 384), (512, 384), (512, 384), (512, 384), (512, 384), (512, 384), (512, 384), (512, 384), (512, 384), (512, 384), (512, 384), (512, 384), (512, 384), (512, 384), (512, 384), (512, 384), (512, 384), (512, 384), (512, 384), (512, 384), (512, 384), (512, 384), (512, 384), (512, 384), (512, 384), (512, 384), (512, 384), (512, 384), (512, 384), (512, 384), (512, 384), (512, 384), (512, 384), (512, 384), (512, 384), (512, 384), (512, 384), (512, 384), (512, 384), (512, 384), (512, 384), (512, 384), (512, 384), (512, 384), (512, 384), (512, 384), (512, 384), (512, 384), (512, 384), (512, 384), (512, 384), (512, 384), (512, 384), (512, 384), (512, 384), (512, 384), (512, 384), (512, 384), (512, 384), (512, 384), (512, 384), (512, 384), (512, 384), (512, 384), (512, 384), (512, 384), (512, 384), (512, 384), (512, 384), (512, 384), (512, 384), (512, 384), (512, 384), (512, 384), (512, 384), (512, 384), (512, 384), (512, 384), (512, 384), (512, 384), (512, 384), (512, 384), (512, 384), (512, 384), (512, 384), (512, 384), (512, 384), (512, 384), (512, 384), (512, 384), (512, 384), (512, 384), (512, 384), (512, 384), (512, 384), (512, 384), (512, 384), (512, 384), (512, 384), (512, 384), (512, 384), (512, 384), (512, 384), (512, 384), (512, 384), (512, 384), (513, 384), (514, 384), (514, 384), (514, 384), (514, 384), (514, 384), (514, 384), (514, 384), (514, 384), (514, 384), (514, 384), (514, 384), (514, 384), (514, 384), (514, 384), (514, 384), (514, 384), (514, 384), (514, 384), (514, 384), (514, 384), (514, 384), (514, 384), (514, 384), (514, 384), (514, 384), (514, 384), (514, 384), (514, 384), (514, 384), (514, 384), (514, 384), (514, 384), (514, 384), (514, 384), (514, 384), (514, 384), (515, 384), (515, 384), (515, 384), (516, 384), (516, 384), (516, 384), (517, 384), (517, 384), (518, 384), (518, 384), (518, 384), (518, 384), (519, 384), (519, 384), (520, 384), (520, 384), (520, 384), (521, 384), (521, 384), (521, 384), (522, 384), (522, 384), (522, 384), (523, 384), (523, 384), (524, 384), (524, 384), (525, 384), (525, 385), (526, 385), (526, 385), (527, 385), (527, 385), (527, 385), (527, 385), (527, 385), (527, 385), (527, 385), (527, 385), (527, 385), (527, 385), (527, 385), (527, 385), (527, 385), (527, 385), (527, 385), (527, 385), (527, 385), (527, 385), (527, 385), (527, 385), (527, 385), (527, 385), (527, 385), (527, 385), (527, 385), (527, 385), (527, 385), (527, 385), (527, 385), (527, 385), (528, 385), (529, 385), (529, 385), (529, 385), (529, 385), (529, 385), (529, 385), (529, 385), (529, 385), (529, 385), (529, 385), (529, 385), (529, 385), (529, 385), (529, 385), (529, 385), (529, 385), (529, 385), (529, 385), (529, 385), (529, 385), (529, 385), (529, 385), (529, 385), (529, 385), (529, 385), (529, 385), (529, 385), (530, 386), (534, 388), (540, 391), (563, 398), (583, 405), (603, 410), (623, 418), (668, 431), (690, 437), (720, 442), (744, 455), (794, 479)]",18.617612750860765,"[6, 2, 1, 8, 7, 3, 5, 9, 4]","(0, 0.25)",THI008A,THI,A,Chinese,Tue Oct  9 17:20:06 2018,Mouse
2,2,1,0,32,3,3,1,359,269,90,142,0,500,200,8000,"[(512, 384), (512, 384), (512, 384), (512, 384), (512, 384), (512, 384), (512, 384), (512, 384), (512, 384), (512, 384), (512, 384), (512, 384), (512, 384), (512, 384), (512, 384), (512, 384), (512, 384), (512, 384), (512, 384), (512, 384), (512, 384), (512, 384), (512, 384), (512, 384), (512, 384), (512, 384), (506, 382), (494, 376), (479, 367), (461, 359), (416, 337), (394, 323), (370, 310), (343, 297), (297, 271), (280, 260)]",208.12373538328882,"[6, 2, 1, 8, 7, 3, 5, 9, 4]","(0, 0.25)",THI008A,THI,A,Chinese,Tue Oct  9 17:20:06 2018,Mouse
2,2,1,0,33,9,9,1,1237,1107,130,142,0,500,200,8000,"[(512, 384), (512, 384), (512, 384), (512, 384), (512, 384), (512, 384), (512, 384), (512, 384), (512, 384), (512, 384), (512, 384), (512, 384), (512, 384), (512, 384), (512, 384), (512, 384), (512, 384), (512, 384), (512, 384), (512, 384), (512, 384), (512, 384), (512, 384), (512, 384), (512, 384), (512, 384), (512, 384), (512, 384), (512, 384), (512, 384), (512, 384), (512, 384), (512, 384), (512, 384), (512, 384), (512, 384), (512, 384), (512, 384), (512, 384), (512, 384), (512, 384), (512, 384), (512, 384), (512, 384), (512, 384), (512, 384), (512, 384), (512, 384), (512, 384), (512, 384), (512, 384), (512, 384), (512, 384), (512, 384), (512, 384), (512, 384), (512, 384), (512, 384), (512, 384), (512, 384), (512, 384), (512, 384), (512, 384), (512, 384), (512, 384), (512, 384), (512, 384), (512, 384), (512, 384), (512, 384), (512, 384), (512, 384), (512, 384), (512, 384), (512, 384), (512, 384), (512, 384), (512, 384), (512, 384), (512, 384), (512, 384), (512, 384), (512, 384), (512, 384), (512, 384), (512, 384), (512, 384), (512, 384), (512, 384), (512, 384), (512, 384), (512, 384), (512, 384), (512, 384), (512, 384), (512, 384), (512, 384), (512, 384), (512, 384), (512, 384), (512, 384), (512, 384), (512, 384), (512, 384), (512, 384), (512, 384), (512, 384), (512, 384), (512, 384), (512, 384), (512, 383), (513, 382), (516, 377), (518, 372), (523, 366), (529, 356), (545, 328), (556, 304), (567, 280), (578, 256), (586, 234), (601, 186), (606, 167), (611, 150)]",292.9321004375898,"[6, 2, 1, 8, 7, 3, 5, 9, 4]","(0, 0.25)",THI008A,THI,A,Chinese,Tue Oct  9 17:20:06 2018,Mouse
2,2,1,0,34,1,1,1,998,738,260,141,0,500,200,8000,"[(512, 384), (512, 384), (512, 384), (512, 384), (512, 384), (512, 384), (512, 384), (512, 384), (512, 384), (512, 384), (512, 384), (512, 384), (512, 384), (512, 384), (512, 384), (512, 384), (512, 384), (512, 384), (512, 384), (512, 384), (512, 384), (512, 384), (512, 384), (512, 384), (512, 384), (512, 384), (512, 384), (512, 384), (512, 384), (512, 384), (512, 384), (512, 384), (512, 384), (512, 384), (512, 384), (512, 384), (512, 384), (512, 384), (512, 384), (512, 384), (512, 384), (512, 384), (512, 384), (512, 384), (512, 384), (512, 384), (512, 384), (512, 384), (512, 384), (512, 384), (512, 384), (512, 384), (512, 384), (512, 384), (512, 384), (512, 384), (512, 384), (512, 384), (512, 384), (512, 384), (512, 384), (512, 384), (512, 384), (512, 384), (512, 384), (512, 384), (512, 384), (512, 384), (512, 384), (512, 384), (512, 384), (512, 384), (512, 384), (514, 385), (517, 386), (519, 391), (519, 397), (519, 411), (519, 432), (518, 467), (518, 482), (518, 494), (518, 503), (518, 522), (517, 531), (516, 542), (514, 550), (511, 566), (508, 574), (505, 582), (502, 588), (498, 600), (497, 604), (497, 608), (497, 613), (497, 620), (497, 623), (496, 626), (495, 630), (493, 637)]",94.29478325702267,"[6, 2, 1, 8, 7, 3, 5, 9, 4]","(0, 0.25)",THI008A,THI,A,Chinese,Tue Oct  9 17:20:06 2018,Mouse
2,2,1,0,35,2,1,0,-708,608,100,140,0,500,200,8000,"[(512, 384), (512, 384), (512, 384), (512, 384), (512, 384), (512, 384), (512, 384), (512, 384), (512, 384), (512, 384), (512, 384), (512, 384), (512, 384), (512, 384), (512, 384), (512, 384), (512, 384), (512, 384), (512, 384), (512, 384), (512, 384), (512, 384), (512, 384), (512, 384), (512, 384), (512, 384), (512, 384), (512, 384), (512, 384), (512, 384), (512, 384), (512, 384), (512, 384), (512, 384), (512, 384), (512, 384), (512, 384), (512, 384), (512, 384), (512, 384), (512, 384), (512, 384), (512, 384), (512, 384), (512, 384), (512, 384), (512, 384), (512, 384), (512, 384), (512, 384), (512, 384), (512, 384), (512, 384), (512, 384), (512, 384), (512, 384), (512, 384), (512, 384), (512, 384), (512, 384), (506, 387), (489, 397), (467, 420), (465, 431), (465, 449), (467, 473), (485, 517), (494, 540), (504, 566), (513, 589), (535, 637)]",84.8055710922652,"[6, 2, 1, 8, 7, 3, 5, 9, 4]","(0, 0.25)",THI008A,THI,A,Chinese,Tue Oct  9 17:20:06 2018,Mouse
2,2,1,0,36,4,8,0,-1147,1057,90,141,0,500,200,8000,"[(512, 384), (512, 384), (512, 384), (512, 384), (512, 384), (512, 384), (512, 384), (512, 384), (512, 384), (512, 384), (512, 384), (512, 384), (512, 384), (512, 384), (512, 384), (512, 384), (512, 384), (512, 384), (512, 384), (512, 384), (512, 384), (512, 384), (512, 384), (512, 384), (512, 384), (512, 384), (512, 384), (512, 384), (512, 384), (512, 384), (512, 384), (512, 384), (512, 384), (512, 384), (512, 384), (512, 384), (512, 384), (512, 384), (512, 384), (512, 384), (512, 384), (512, 384), (512, 384), (512, 384), (512, 384), (512, 384), (512, 384), (512, 384), (512, 384), (512, 384), (512, 384), (512, 384), (512, 384), (512, 384), (512, 384), (512, 384), (512, 384), (512, 384), (512, 384), (512, 384), (512, 384), (512, 384), (512, 384), (512, 384), (512, 384), (512, 384), (512, 384), (512, 384), (512, 384), (512, 384), (512, 384), (512, 384), (512, 384), (512, 384), (512, 384), (512, 384), (512, 384), (512, 384), (512, 384), (512, 384), (512, 384), (512, 384), (512, 384), (512, 384), (512, 384), (512, 384), (512, 384), (512, 384), (512, 384), (512, 384), (512, 384), (512, 384), (512, 384), (512, 384), (512, 384), (512, 384), (512, 384), (512, 384), (512, 384), (512, 384), (512, 384), (512, 384), (512, 384), (512, 384), (512, 384), (512, 390), (508, 399), (494, 417), (484, 426), (471, 433), (451, 445), (400, 486), (373, 509), (345, 530), (324, 549)]",138.72788342956204,"[6, 2, 1, 8, 7, 3, 5, 9, 4]","(0, 0.25)",THI008A,THI,A,Chinese,Tue Oct  9 17:20:06 2018,Mouse
2,2,1,0,37,4,4,1,418,288,130,142,0,500,200,8000,"[(512, 384), (512, 384), (512, 384), (512, 384), (512, 384), (512, 384), (512, 384), (512, 384), (512, 384), (512, 384), (512, 384), (512, 384), (512, 384), (512, 384), (512, 384), (512, 384), (512, 384), (512, 384), (512, 384), (512, 384), (512, 384), (512, 384), (512, 384), (512, 384), (512, 384), (512, 384), (512, 384), (512, 384), (513, 383), (520, 380), (540, 376), (576, 367), (597, 364), (616, 361), (629, 360), (666, 358), (681, 357), (696, 357), (709, 356), (736, 354), (749, 352), (761, 349)]",351.9987968198618,"[6, 2, 1, 8, 7, 3, 5, 9, 4]","(0, 0.25)",THI008A,THI,A,Chinese,Tue Oct  9 17:20:06 2018,Mouse
2,2,1,0,38,8,8,1,688,398,290,142,0,500,200,8000,"[(512, 384), (512, 384), (512, 384), (512, 384), (512, 384), (512, 384), (512, 384), (512, 384), (512, 384), (512, 384), (512, 384), (512, 384), (512, 384), (512, 384), (512, 384), (512, 384), (512, 384), (512, 384), (512, 384), (512, 384), (512, 384), (512, 384), (512, 384), (512, 384), (512, 384), (512, 384), (512, 384), (512, 384), (512, 384), (512, 384), (512, 384), (512, 384), (512, 384), (512, 384), (512, 384), (512, 384), (512, 384), (512, 384), (512, 384), (512, 383), (512, 382), (512, 382), (512, 382), (512, 382), (512, 382), (512, 382), (512, 382), (512, 382), (512, 382), (512, 382), (512, 382), (512, 382), (512, 382), (512, 382), (512, 382), (511, 384), (509, 386), (504, 389), (498, 392), (486, 400), (478, 404), (471, 411), (461, 423), (450, 435), (418, 459), (396, 475), (373, 491), (329, 519), (308, 535)]",143.49130027694645,"[6, 2, 1, 8, 7, 3, 5, 9, 4]","(0, 0.25)",THI008A,THI,A,Chinese,Tue Oct  9 17:20:06 2018,Mouse
2,2,1,0,39,8,8,1,587,287,300,141,0,500,200,8000,"[(512, 384), (512, 384), (512, 384), (512, 384), (512, 384), (512, 384), (512, 384), (512, 384), (512, 384), (512, 384), (512, 384), (512, 384), (512, 384), (512, 384), (512, 384), (512, 384), (512, 384), (512, 384), (512, 384), (512, 384), (512, 384), (512, 384), (512, 384), (512, 384), (512, 384), (512, 384), (512, 384), (512, 384), (510, 389), (492, 408), (476, 420), (461, 430), (447, 439), (418, 464), (406, 473), (394, 483), (383, 492), (363, 507), (355, 513), (349, 517), (346, 520), (342, 523), (340, 524), (339, 524), (338, 526), (335, 529), (335, 531), (332, 533), (332, 535), (329, 537), (328, 538), (328, 539), (327, 539), (327, 539), (327, 539), (326, 539), (325, 540), (321, 543), (319, 546)]",139.99063380346226,"[6, 2, 1, 8, 7, 3, 5, 9, 4]","(0, 0.25)",THI008A,THI,A,Chinese,Tue Oct  9 17:20:06 2018,Mouse
2,2,1,0,40,9,9,1,1698,1558,140,140,0,500,200,8000,"[(512, 384), (512, 384), (512, 384), (512, 384), (512, 384), (512, 384), (512, 384), (512, 384), (512, 384), (512, 384), (512, 384), (512, 384), (512, 384), (512, 384), (512, 384), (512, 384), (512, 384), (512, 384), (512, 384), (512, 384), (512, 384), (512, 384), (512, 384), (512, 384), (512, 384), (512, 384), (512, 384), (512, 384), (512, 384), (512, 384), (512, 384), (512, 384), (512, 384), (512, 384), (512, 384), (512, 384), (512, 384), (512, 384), (512, 384), (512, 384), (512, 384), (512, 384), (512, 384), (512, 384), (512, 384), (512, 384), (512, 384), (512, 384), (512, 384), (512, 384), (512, 384), (512, 384), (512, 384), (512, 384), (512, 384), (512, 384), (512, 384), (512, 384), (512, 384), (512, 384), (512, 384), (512, 384), (512, 384), (512, 384), (512, 384), (512, 384), (512, 384), (512, 384), (512, 384), (512, 384), (512, 384), (512, 384), (512, 384), (512, 384), (512, 384), (512, 384), (512, 384), (512, 384), (512, 384), (512, 384), (512, 384), (512, 384), (512, 384), (512, 384), (512, 384), (512, 384), (512, 384), (512, 384), (512, 384), (512, 384), (512, 384), (512, 384), (512, 384), (512, 384), (512, 384), (512, 384), (512, 384), (512, 384), (512, 384), (512, 384), (512, 384), (512, 384), (512, 384), (512, 384), (512, 384), (512, 384), (512, 384), (512, 384), (512, 384), (512, 384), (512, 384), (512, 384), (512, 384), (512, 384), (512, 384), (512, 384), (512, 384), (512, 384), (512, 384), (512, 384), (512, 384), (512, 384), (512, 384), (512, 384), (512, 384), (512, 384), (512, 384), (512, 384), (512, 384), (512, 384), (512, 384), (512, 384), (512, 384), (512, 384), (512, 384), (512, 384), (512, 384), (512, 384), (512, 384), (512, 384), (512, 384), (512, 384), (512, 384), (512, 384), (512, 384), (512, 384), (512, 384), (512, 384), (512, 384), (512, 384), (512, 384), (512, 384), (512, 384), (512, 384), (512, 384), (513, 382), (518, 373), (534, 340), (542, 324), (549, 304), (556, 289), (566, 261), (571, 250), (575, 239), (580, 226), (591, 202), (596, 191), (600, 179), (604, 168), (609, 150)]",292.5154694738066,"[6, 2, 1, 8, 7, 3, 5, 9, 4]","(0, 0.25)",THI008A,THI,A,Chinese,Tue Oct  9 17:20:06 2018,Mouse
2,2,1,0,41,5,4,0,-838,588,250,139,0,500,200,8000,"[(512, 384), (512, 384), (512, 384), (512, 384), (512, 384), (512, 384), (512, 384), (512, 384), (512, 384), (512, 384), (512, 384), (512, 384), (512, 384), (512, 384), (512, 384), (512, 384), (512, 384), (512, 384), (512, 384), (512, 384), (512, 384), (512, 384), (512, 384), (512, 384), (512, 384), (512, 384), (512, 384), (512, 384), (512, 384), (512, 384), (512, 384), (512, 384), (512, 384), (512, 384), (512, 384), (512, 384), (512, 384), (512, 384), (512, 384), (512, 384), (512, 384), (512, 384), (512, 384), (512, 384), (512, 384), (512, 384), (512, 384), (512, 384), (512, 384), (512, 384), (512, 384), (512, 384), (512, 384), (512, 384), (512, 384), (512, 384), (512, 384), (512, 384), (514, 383), (523, 379), (534, 374), (550, 369), (579, 360), (592, 356), (606, 350), (617, 347), (632, 340), (636, 338), (637, 338), (637, 337), (637, 337), (638, 337), (639, 337), (645, 335), (660, 331), (670, 326), (682, 323), (690, 320), (711, 314), (719, 313), (728, 312), (733, 312), (747, 311), (753, 311)]",343.1481998478623,"[6, 2, 1, 8, 7, 3, 5, 9, 4]","(0, 0.25)",THI008A,THI,A,Chinese,Tue Oct  9 17:20:06 2018,Mouse
2,2,1,0,42,2,2,1,1017,847,170,140,0,500,200,8000,"[(512, 384), (512, 384), (512, 384), (512, 384), (512, 384), (512, 384), (512, 384), (512, 384), (512, 384), (512, 384), (512, 384), (512, 384), (512, 384), (512, 384), (512, 384), (512, 384), (512, 384), (512, 384), (512, 384), (512, 384), (512, 384), (512, 384), (512, 384), (512, 384), (512, 384), (512, 384), (512, 384), (512, 384), (512, 384), (512, 384), (512, 384), (512, 384), (512, 384), (512, 384), (512, 384), (512, 384), (512, 384), (512, 384), (512, 384), (512, 384), (512, 384), (512, 384), (512, 384), (512, 384), (512, 384), (512, 384), (512, 384), (512, 384), (512, 384), (512, 384), (512, 384), (512, 384), (512, 384), (512, 384), (512, 384), (512, 384), (512, 384), (512, 384), (512, 384), (512, 384), (512, 384), (512, 384), (512, 384), (512, 384), (512, 384), (512, 384), (512, 384), (512, 384), (512, 384), (512, 384), (512, 384), (512, 384), (512, 384), (512, 384), (512, 384), (512, 384), (512, 384), (512, 384), (512, 384), (512, 384), (512, 384), (512, 384), (512, 384), (512, 384), (513, 386), (514, 387), (516, 391), (519, 394), (520, 397), (521, 403), (527, 430), (531, 443), (537, 460), (546, 476), (562, 498), (572, 510), (585, 521), (598, 534), (629, 556), (643, 566), (658, 577), (667, 585)]",52.36259251121255,"[6, 2, 1, 8, 7, 3, 5, 9, 4]","(0, 0.25)",THI008A,THI,A,Chinese,Tue Oct  9 17:20:06 2018,Mouse
2,2,1,0,43,6,6,1,2833,2643,190,140,0,500,200,8000,"[(512, 384), (512, 384), (512, 384), (512, 384), (512, 384), (512, 384), (512, 384), (512, 384), (512, 384), (512, 384), (512, 384), (512, 384), (512, 384), (512, 384), (512, 384), (512, 384), (512, 384), (512, 384), (512, 384), (512, 384), (512, 384), (512, 384), (512, 384), (512, 384), (512, 384), (512, 384), (512, 384), (512, 384), (512, 384), (512, 384), (512, 384), (512, 384), (512, 384), (512, 384), (512, 384), (512, 384), (512, 384), (512, 384), (512, 384), (512, 384), (512, 384), (512, 384), (512, 384), (512, 384), (512, 384), (512, 384), (512, 384), (512, 384), (512, 384), (512, 384), (512, 384), (512, 384), (512, 384), (512, 384), (512, 384), (512, 384), (512, 384), (512, 384), (512, 384), (512, 384), (512, 384), (512, 384), (512, 384), (512, 384), (512, 384), (512, 384), (512, 384), (512, 384), (512, 384), (512, 384), (512, 384), (512, 384), (512, 384), (512, 384), (512, 384), (512, 384), (512, 384), (512, 384), (512, 384), (512, 384), (512, 384), (512, 384), (512, 384), (512, 384), (512, 384), (512, 384), (512, 384), (512, 384), (512, 384), (512, 384), (512, 384), (512, 384), (512, 384), (512, 384), (512, 384), (512, 384), (512, 384), (512, 384), (512, 384), (512, 384), (512, 384), (512, 384), (512, 384), (512, 384), (512, 384), (512, 384), (512, 384), (512, 384), (512, 384), (512, 384), (512, 384), (512, 384), (512, 384), (512, 384), (512, 384), (512, 384), (512, 384), (512, 384), (512, 384), (512, 384), (512, 384), (512, 384), (512, 384), (512, 384), (512, 384), (512, 384), (512, 384), (512, 384), (512, 384), (512, 384), (512, 384), (512, 384), (512, 384), (512, 384), (512, 384), (512, 384), (512, 384), (512, 384), (512, 384), (512, 384), (512, 384), (512, 384), (512, 384), (512, 384), (512, 384), (512, 384), (512, 384), (512, 384), (512, 384), (512, 384), (512, 384), (512, 384), (512, 384), (512, 384), (512, 384), (512, 384), (512, 384), (512, 384), (512, 384), (512, 384), (512, 384), (512, 384), (512, 384), (512, 384), (512, 384), (512, 384), (512, 384), (512, 384), (512, 384), (512, 384), (512, 384), (512, 384), (512, 384), (512, 384), (512, 384), (512, 384), (512, 384), (512, 384), (512, 384), (512, 384), (512, 384), (512, 384), (512, 384), (512, 384), (512, 384), (512, 384), (512, 384), (512, 384), (512, 384), (512, 384), (512, 384), (512, 384), (512, 384), (512, 384), (512, 384), (512, 384), (512, 384), (512, 384), (512, 384), (512, 384), (512, 384), (512, 384), (512, 384), (512, 384), (512, 384), (512, 384), (512, 384), (512, 384), (512, 384), (512, 384), (512, 384), (512, 384), (512, 384), (512, 384), (512, 384), (512, 384), (512, 384), (512, 384), (512, 384), (512, 384), (512, 384), (512, 384), (512, 384), (512, 384), (512, 384), (512, 384), (512, 384), (512, 384), (512, 384), (512, 384), (512, 384), (512, 384), (512, 384), (512, 384), (512, 384), (512, 384), (512, 384), (512, 384), (512, 384), (512, 384), (512, 384), (512, 384), (512, 384), (512, 384), (512, 384), (512, 384), (512, 384), (512, 384), (512, 384), (512, 384), (512, 384), (512, 384), (512, 384), (512, 384), (512, 384), (512, 384), (512, 384), (512, 384), (512, 384), (512, 384), (512, 384), (512, 384), (512, 384), (512, 384), (517, 384), (524, 387), (528, 388), (539, 394), (545, 396), (552, 399), (561, 403), (582, 410), (591, 414), (601, 417), (609, 419), (630, 426), (641, 429), (651, 434), (664, 438), (688, 447), (699, 451), (713, 454), (727, 458), (756, 462)]",17.727629454377755,"[6, 2, 1, 8, 7, 3, 5, 9, 4]","(0, 0.25)",THI008A,THI,A,Chinese,Tue Oct  9 17:20:06 2018,Mouse
2,2,1,0,44,8,4,0,-1388,388,1000,139,0,500,200,8000,"[(512, 384), (512, 384), (512, 384), (512, 384), (512, 384), (512, 384), (512, 384), (512, 384), (512, 384), (512, 384), (512, 384), (512, 384), (512, 384), (512, 384), (512, 384), (512, 384), (512, 384), (512, 384), (512, 384), (512, 384), (512, 384), (512, 384), (512, 384), (512, 384), (512, 384), (512, 384), (512, 384), (512, 384), (512, 384), (512, 384), (512, 384), (512, 384), (512, 384), (512, 384), (512, 384), (512, 384), (512, 384), (512, 384), (515, 384), (521, 384), (529, 384), (537, 384), (552, 384), (561, 381), (569, 379), (574, 376), (586, 372), (592, 370), (596, 369), (600, 367), (604, 366), (609, 364), (612, 363), (615, 361), (617, 359), (618, 359), (619, 358), (619, 358), (619, 358), (619, 358), (619, 358), (619, 358), (619, 358), (619, 358), (619, 358), (619, 358), (619, 358), (619, 358), (619, 358), (619, 358), (619, 358), (619, 358), (619, 358), (619, 358), (619, 358), (619, 358), (619, 358), (619, 358), (619, 358), (619, 358), (619, 358), (619, 358), (619, 358), (619, 358), (619, 358), (619, 358), (619, 358), (619, 358), (619, 358), (619, 358), (619, 358), (619, 358), (619, 358), (619, 358), (619, 358), (619, 358), (619, 358), (619, 358), (619, 358), (619, 358), (619, 358), (619, 358), (619, 358), (619, 358), (619, 358), (619, 358), (619, 358), (619, 358), (619, 358), (619, 358), (619, 358), (619, 358), (619, 358), (619, 358), (619, 358), (619, 358), (619, 358), (619, 358), (619, 358), (619, 358), (619, 358), (619, 358), (619, 358), (619, 358), (619, 358), (619, 358), (620, 358), (627, 356), (634, 355), (640, 353), (652, 349), (660, 347), (673, 343), (686, 341), (716, 336), (730, 333), (742, 332), (754, 328), (771, 324)]",346.9569232989906,"[6, 2, 1, 8, 7, 3, 5, 9, 4]","(0, 0.25)",THI008A,THI,A,Chinese,Tue Oct  9 17:20:06 2018,Mouse
2,2,1,0,45,5,5,1,2699,1379,1320,140,0,500,200,8000,"[(512, 384), (512, 384), (512, 384), (512, 384), (512, 384), (512, 384), (512, 384), (512, 384), (512, 384), (512, 384), (512, 384), (512, 384), (512, 384), (512, 384), (512, 384), (512, 384), (512, 384), (512, 384), (512, 384), (512, 384), (512, 384), (512, 384), (512, 384), (512, 384), (512, 384), (512, 384), (512, 384), (512, 384), (512, 384), (512, 384), (512, 384), (512, 384), (512, 384), (512, 384), (512, 384), (512, 384), (512, 384), (512, 384), (512, 384), (512, 384), (512, 384), (512, 384), (512, 384), (512, 384), (512, 384), (512, 384), (512, 384), (512, 384), (512, 384), (512, 384), (512, 384), (512, 384), (512, 384), (512, 384), (512, 384), (512, 384), (512, 384), (512, 384), (512, 384), (512, 384), (512, 384), (512, 384), (512, 384), (512, 384), (512, 384), (512, 384), (512, 384), (512, 384), (512, 384), (512, 384), (512, 384), (512, 384), (512, 384), (512, 384), (512, 384), (512, 384), (512, 384), (512, 384), (512, 384), (512, 384), (512, 384), (512, 384), (512, 384), (512, 384), (512, 384), (512, 384), (512, 384), (512, 384), (512, 384), (512, 384), (512, 384), (512, 384), (512, 384), (512, 384), (512, 384), (512, 384), (512, 384), (512, 384), (512, 384), (512, 384), (512, 384), (512, 384), (512, 384), (512, 384), (512, 384), (512, 384), (512, 384), (512, 384), (512, 384), (512, 384), (512, 384), (512, 384), (512, 384), (512, 384), (512, 384), (512, 384), (512, 384), (512, 384), (512, 384), (512, 384), (512, 384), (512, 384), (512, 384), (512, 384), (512, 384), (512, 384), (512, 384), (512, 384), (512, 384), (512, 384), (512, 384), (512, 384), (512, 384), (512, 384), (512, 384), (512, 384), (512, 384), (512, 383), (511, 378), (509, 376), (508, 374), (508, 373), (507, 372), (507, 372), (507, 372), (507, 372), (507, 372), (507, 372), (507, 372), (507, 372), (507, 372), (507, 372), (507, 372), (507, 372), (507, 372), (507, 372), (507, 372), (507, 372), (507, 372), (507, 372), (507, 372), (507, 372), (507, 372), (507, 372), (507, 372), (507, 372), (507, 372), (507, 372), (507, 372), (507, 372), (507, 372), (507, 372), (507, 372), (507, 372), (507, 372), (507, 372), (507, 372), (507, 372), (507, 372), (507, 372), (507, 372), (507, 372), (507, 372), (507, 372), (507, 372), (507, 371), (508, 369), (510, 368), (513, 367), (515, 365), (517, 364), (518, 363), (519, 363), (520, 362), (522, 361), (522, 360), (523, 360), (523, 360), (523, 359), (524, 358), (525, 358), (525, 357), (526, 357), (526, 356), (526, 356), (527, 356), (527, 356), (527, 356), (527, 355), (528, 355), (530, 351), (532, 349), (533, 348), (534, 346), (535, 346), (535, 346), (535, 346), (535, 346), (535, 346), (535, 346), (535, 346), (535, 346), (535, 346), (535, 346), (535, 346), (535, 346), (535, 346), (535, 346), (535, 346), (535, 346), (535, 346), (535, 346), (535, 346), (535, 346), (535, 346), (535, 346), (535, 346), (535, 346), (535, 346), (535, 346), (535, 346), (535, 346), (535, 346), (535, 346), (535, 346), (535, 346), (535, 346), (535, 346), (535, 346), (535, 346), (535, 346), (535, 346), (535, 346), (535, 346), (535, 346), (535, 346), (535, 346), (535, 346), (536, 342), (537, 338), (539, 331), (540, 325), (543, 307), (543, 295), (543, 280), (543, 259), (538, 209), (523, 177), (514, 154), (499, 127)]",267.1042380265334,"[6, 2, 1, 8, 7, 3, 5, 9, 4]","(0, 0.25)",THI008A,THI,A,Chinese,Tue Oct  9 17:20:06 2018,Mouse
2,2,1,0,46,5,5,1,368,48,320,140,0,500,200,8000,"[(512, 384), (512, 384), (512, 384), (512, 384), (512, 380), (512, 378), (512, 374), (512, 370), (513, 358), (513, 351), (513, 345), (513, 338), (512, 322), (511, 317), (509, 309), (508, 304), (506, 296), (505, 294), (505, 292), (505, 292), (505, 292), (505, 292), (505, 292), (505, 292), (505, 291), (505, 286), (505, 279), (505, 271), (503, 250), (503, 241), (500, 227), (500, 213), (497, 186), (496, 171), (493, 154), (491, 135), (487, 108)]",264.82428908555977,"[6, 2, 1, 8, 7, 3, 5, 9, 4]","(0, 0.25)",THI008A,THI,A,Chinese,Tue Oct  9 17:20:06 2018,Mouse
2,2,1,0,47,7,7,1,1273,1173,100,139,0,500,200,8000,"[(512, 384), (512, 384), (512, 384), (512, 384), (512, 384), (512, 384), (512, 384), (512, 384), (512, 384), (512, 384), (512, 384), (512, 384), (512, 384), (512, 384), (512, 384), (512, 384), (512, 384), (512, 384), (512, 384), (512, 384), (512, 384), (512, 384), (512, 384), (512, 384), (512, 384), (512, 384), (512, 384), (512, 384), (512, 384), (512, 384), (512, 384), (512, 384), (512, 384), (512, 384), (512, 384), (512, 384), (512, 384), (512, 384), (512, 384), (512, 384), (512, 384), (512, 384), (512, 384), (512, 384), (512, 384), (512, 384), (512, 384), (512, 384), (512, 384), (512, 384), (512, 384), (512, 384), (512, 384), (512, 384), (512, 384), (512, 384), (512, 384), (512, 384), (512, 384), (512, 384), (512, 384), (512, 384), (512, 384), (512, 384), (512, 384), (512, 384), (512, 384), (512, 384), (512, 384), (512, 384), (512, 384), (512, 384), (512, 384), (512, 384), (512, 384), (512, 384), (512, 384), (512, 384), (512, 384), (512, 384), (512, 384), (512, 384), (512, 384), (512, 384), (512, 384), (512, 384), (512, 384), (512, 384), (512, 384), (512, 384), (512, 384), (512, 384), (512, 384), (512, 384), (512, 384), (512, 384), (512, 384), (512, 384), (512, 384), (512, 384), (512, 384), (512, 384), (512, 384), (512, 384), (512, 384), (512, 384), (512, 384), (512, 384), (512, 384), (512, 384), (512, 384), (512, 384), (512, 384), (512, 384), (512, 384), (512, 384), (512, 384), (510, 384), (465, 384), (434, 383), (409, 383), (389, 383), (362, 380), (345, 379), (329, 377), (308, 374), (275, 369), (257, 366)]",184.03771062097712,"[6, 2, 1, 8, 7, 3, 5, 9, 4]","(0, 0.25)",THI008A,THI,A,Chinese,Tue Oct  9 17:20:06 2018,Mouse
