NativeLangNumber,LanuageNumber,SessionNumber,Block,TrialNum,ConditionNumber,Response,Accuracy,RT,MovementOnsetTime,TimeInMotion,SignalContrast,SignalContrastNumber,StimDisplayTime,MaskTime,MaxResponseTime,MousePositionXY,MouseAngle,WheelOrder,NoiseMuSigma,ParticipantID,LanuageTested,SessionTested,NativeLanuage,Date,ResponseDevice
1,2,3,0,1,1,1,1,826,596,230,153,0,500,200,8000,"[(960, 540), (960, 540), (960, 540), (960, 540), (960, 540), (960, 540), (960, 540), (960, 540), (960, 540), (960, 540), (960, 540), (960, 540), (960, 540), (960, 540), (960, 540), (960, 540), (960, 540), (960, 540), (960, 540), (960, 540), (960, 540), (960, 540), (960, 540), (960, 540), (960, 540), (960, 540), (960, 540), (960, 540), (960, 540), (960, 540), (960, 540), (960, 540), (960, 540), (960, 540), (960, 540), (960, 540), (960, 540), (960, 540), (960, 540), (960, 540), (960, 540), (960, 540), (960, 540), (960, 540), (960, 540), (960, 540), (960, 540), (960, 540), (960, 540), (960, 540), (960, 540), (960, 540), (960, 540), (960, 540), (960, 540), (960, 540), (960, 540), (960, 540), (960, 540), (960, 541), (959, 544), (954, 549), (943, 561), (935, 569), (929, 574), (922, 579), (902, 596), (890, 604), (880, 611), (870, 619), (848, 635), (831, 647), (813, 660), (799, 669), (767, 696), (754, 707), (741, 720), (726, 738), (706, 763), (695, 777), (687, 786), (680, 793), (660, 809)]",138.1184796541996,"[8, 3, 4, 1, 6, 7, 2, 5, 9]","(0, 0.25)",THI005C,THI,C,English,Thu Aug 23 13:12:19 2018,Mouse
1,2,3,0,2,4,4,1,2141,1891,250,153,0,500,200,8000,"[(960, 540), (960, 540), (960, 540), (960, 540), (960, 540), (960, 540), (960, 540), (960, 540), (960, 540), (960, 540), (960, 540), (960, 540), (960, 540), (960, 540), (960, 540), (960, 540), (960, 540), (960, 540), (960, 540), (960, 540), (960, 540), (960, 540), (960, 540), (960, 540), (960, 540), (960, 540), (960, 540), (960, 540), (960, 540), (960, 540), (960, 540), (960, 540), (960, 540), (960, 540), (960, 540), (960, 540), (960, 540), (960, 540), (960, 540), (960, 540), (960, 540), (960, 540), (960, 540), (960, 540), (960, 540), (960, 540), (960, 540), (960, 540), (960, 540), (960, 540), (960, 540), (960, 540), (960, 540), (960, 540), (960, 540), (960, 540), (960, 540), (960, 540), (960, 540), (960, 540), (960, 540), (960, 540), (960, 540), (960, 540), (960, 540), (960, 540), (960, 540), (960, 540), (960, 540), (960, 540), (960, 540), (960, 540), (960, 540), (960, 540), (960, 540), (960, 540), (960, 540), (960, 540), (960, 540), (960, 540), (960, 540), (960, 540), (960, 540), (960, 540), (960, 540), (960, 540), (960, 540), (960, 540), (960, 540), (960, 540), (960, 540), (960, 540), (960, 540), (960, 540), (960, 540), (960, 540), (960, 540), (960, 540), (960, 540), (960, 540), (960, 540), (960, 540), (960, 540), (960, 540), (960, 540), (960, 540), (960, 540), (960, 540), (960, 540), (960, 540), (960, 540), (960, 540), (960, 540), (960, 540), (960, 540), (960, 540), (960, 540), (960, 540), (960, 540), (960, 540), (960, 540), (960, 540), (960, 540), (960, 540), (960, 540), (960, 540), (960, 540), (960, 540), (960, 540), (960, 540), (960, 540), (960, 540), (960, 540), (960, 540), (960, 540), (960, 540), (960, 540), (960, 540), (960, 540), (960, 540), (960, 540), (960, 540), (960, 540), (960, 540), (960, 540), (960, 540), (960, 540), (960, 540), (960, 540), (960, 540), (960, 540), (960, 540), (960, 540), (960, 540), (960, 540), (960, 540), (960, 540), (960, 540), (960, 540), (960, 540), (960, 540), (960, 540), (960, 540), (960, 540), (960, 540), (960, 540), (960, 540), (960, 540), (960, 540), (960, 540), (960, 540), (960, 540), (960, 540), (960, 540), (960, 540), (960, 540), (960, 540), (960, 540), (960, 540), (960, 540), (960, 540), (960, 540), (960, 540), (960, 540), (960, 540), (960, 540), (960, 540), (960, 540), (960, 540), (960, 541), (962, 545), (962, 555), (962, 560), (962, 567), (962, 573), (962, 588), (962, 595), (962, 604), (962, 617), (959, 646), (951, 671), (945, 696), (939, 720), (927, 767), (923, 786), (919, 803), (918, 820), (913, 848), (912, 862), (911, 871), (910, 881), (906, 903), (905, 914), (904, 928), (901, 941)]",98.36999954060339,"[8, 3, 4, 1, 6, 7, 2, 5, 9]","(0, 0.25)",THI005C,THI,C,English,Thu Aug 23 13:12:19 2018,Mouse
1,2,3,0,3,7,7,1,1560,1290,270,152,0,500,200,8000,"[(960, 540), (960, 540), (960, 540), (960, 540), (960, 540), (960, 540), (960, 540), (960, 540), (960, 540), (960, 540), (960, 540), (960, 540), (960, 540), (960, 540), (960, 540), (960, 540), (960, 540), (960, 540), (960, 540), (960, 540), (960, 540), (960, 540), (960, 540), (960, 540), (960, 540), (960, 540), (960, 540), (960, 540), (960, 540), (960, 540), (960, 540), (960, 540), (960, 540), (960, 540), (960, 540), (960, 540), (960, 540), (960, 540), (960, 540), (960, 540), (960, 540), (960, 540), (960, 540), (960, 540), (960, 540), (960, 540), (960, 540), (960, 540), (960, 540), (960, 540), (960, 540), (960, 540), (960, 540), (960, 540), (960, 540), (960, 540), (960, 540), (960, 540), (960, 540), (960, 540), (960, 540), (960, 540), (960, 540), (960, 540), (960, 540), (960, 540), (960, 540), (960, 540), (960, 540), (960, 540), (960, 540), (960, 540), (960, 540), (960, 540), (960, 540), (960, 540), (960, 540), (960, 540), (960, 540), (960, 540), (960, 540), (960, 540), (960, 540), (960, 540), (960, 540), (960, 540), (960, 540), (960, 540), (960, 540), (960, 540), (960, 540), (960, 540), (960, 540), (960, 540), (960, 540), (960, 540), (960, 540), (960, 540), (960, 540), (960, 540), (960, 540), (960, 540), (960, 540), (960, 540), (960, 540), (960, 540), (960, 540), (960, 540), (960, 540), (960, 540), (960, 540), (960, 540), (960, 540), (960, 540), (960, 540), (960, 540), (960, 540), (960, 540), (960, 540), (960, 540), (960, 540), (960, 540), (960, 540), (960, 540), (960, 540), (960, 540), (960, 540), (960, 540), (960, 538), (955, 533), (948, 526), (933, 511), (924, 502), (913, 493), (901, 482), (874, 458), (861, 447), (849, 437), (839, 428), (820, 411), (809, 403), (798, 396), (789, 389), (771, 375), (762, 370), (751, 364), (742, 359), (725, 349), (717, 344), (710, 339), (702, 333), (689, 323), (681, 317), (673, 309), (663, 302), (639, 283)]",218.68156889851022,"[8, 3, 4, 1, 6, 7, 2, 5, 9]","(0, 0.25)",THI005C,THI,C,English,Thu Aug 23 13:12:19 2018,Mouse
1,2,3,0,4,3,3,1,1751,1551,200,151,0,500,200,8000,"[(960, 540), (960, 540), (960, 540), (960, 540), (960, 540), (960, 540), (960, 540), (960, 540), (960, 540), (960, 540), (960, 540), (960, 540), (960, 540), (960, 540), (960, 540), (960, 540), (960, 540), (960, 540), (960, 540), (960, 540), (960, 540), (960, 540), (960, 540), (960, 540), (960, 540), (960, 540), (960, 540), (960, 540), (960, 540), (960, 540), (960, 540), (960, 540), (960, 540), (960, 540), (960, 540), (960, 540), (960, 540), (960, 540), (960, 540), (960, 540), (960, 540), (960, 540), (960, 540), (960, 540), (960, 540), (960, 540), (960, 540), (960, 540), (960, 540), (960, 540), (960, 540), (960, 540), (960, 540), (960, 540), (960, 540), (960, 540), (960, 540), (960, 540), (960, 540), (960, 540), (960, 540), (960, 540), (960, 540), (960, 540), (960, 540), (960, 540), (960, 540), (960, 540), (960, 540), (960, 540), (960, 540), (960, 540), (960, 540), (960, 540), (960, 540), (960, 540), (960, 540), (960, 540), (960, 540), (960, 540), (960, 540), (960, 540), (960, 540), (960, 540), (960, 540), (960, 540), (960, 540), (960, 540), (960, 540), (960, 540), (960, 540), (960, 540), (960, 540), (960, 540), (960, 540), (960, 540), (960, 540), (960, 540), (960, 540), (960, 540), (960, 540), (960, 540), (960, 540), (960, 540), (960, 540), (960, 540), (960, 540), (960, 540), (960, 540), (960, 540), (960, 540), (960, 540), (960, 540), (960, 540), (960, 540), (960, 540), (960, 540), (960, 540), (960, 540), (960, 540), (960, 540), (960, 540), (960, 540), (960, 540), (960, 540), (960, 540), (960, 540), (960, 540), (960, 540), (960, 540), (960, 540), (960, 540), (960, 540), (960, 540), (960, 540), (960, 540), (960, 540), (960, 540), (960, 540), (960, 540), (960, 540), (960, 540), (960, 540), (960, 540), (960, 540), (960, 540), (960, 540), (960, 540), (960, 540), (960, 540), (960, 540), (960, 540), (960, 540), (960, 540), (960, 540), (962, 542), (966, 548), (972, 557), (979, 566), (1002, 599), (1010, 610), (1022, 626), (1030, 642), (1042, 668), (1052, 684), (1057, 698), (1063, 714), (1074, 741), (1080, 753), (1089, 772), (1097, 791), (1111, 828), (1120, 847), (1129, 867), (1134, 887), (1149, 923)]",63.734923985225926,"[8, 3, 4, 1, 6, 7, 2, 5, 9]","(0, 0.25)",THI005C,THI,C,English,Thu Aug 23 13:12:19 2018,Mouse
1,2,3,0,5,4,4,1,530,270,260,150,0,500,200,8000,"[(960, 540), (960, 540), (960, 540), (960, 540), (960, 540), (960, 540), (960, 540), (960, 540), (960, 540), (960, 540), (960, 540), (960, 540), (960, 540), (960, 540), (960, 540), (960, 540), (960, 540), (960, 540), (960, 540), (960, 540), (960, 540), (960, 540), (960, 540), (960, 540), (960, 540), (960, 540), (960, 542), (960, 551), (960, 556), (960, 562), (960, 570), (959, 592), (955, 603), (954, 614), (953, 625), (948, 656), (945, 673), (944, 685), (941, 698), (937, 721), (933, 731), (930, 745), (927, 759), (918, 785), (915, 796), (913, 810), (910, 824), (903, 849), (899, 861), (896, 873), (891, 887), (884, 916), (879, 933)]",101.64597424848323,"[8, 3, 4, 1, 6, 7, 2, 5, 9]","(0, 0.25)",THI005C,THI,C,English,Thu Aug 23 13:12:19 2018,Mouse
1,2,3,0,6,2,7,0,-1240,950,290,149,0,500,200,8000,"[(960, 540), (960, 540), (960, 540), (960, 540), (960, 540), (960, 540), (960, 540), (960, 540), (960, 540), (960, 540), (960, 540), (960, 540), (960, 540), (960, 540), (960, 540), (960, 540), (960, 540), (960, 540), (960, 540), (960, 540), (960, 540), (960, 540), (960, 540), (960, 540), (960, 540), (960, 540), (960, 540), (960, 540), (960, 540), (960, 540), (960, 540), (960, 540), (960, 540), (960, 540), (960, 540), (960, 540), (960, 540), (960, 540), (960, 540), (960, 540), (960, 540), (960, 540), (960, 540), (960, 540), (960, 540), (960, 540), (960, 540), (960, 540), (960, 540), (960, 540), (960, 540), (960, 540), (960, 540), (960, 540), (960, 540), (960, 540), (960, 540), (960, 540), (960, 540), (960, 540), (960, 540), (960, 540), (960, 540), (960, 540), (960, 540), (960, 540), (960, 540), (960, 540), (960, 540), (960, 540), (960, 540), (960, 540), (960, 540), (960, 540), (960, 540), (960, 540), (960, 540), (960, 540), (960, 540), (960, 540), (960, 540), (960, 540), (960, 540), (960, 540), (960, 540), (960, 540), (960, 540), (960, 540), (960, 540), (960, 540), (960, 540), (960, 540), (960, 540), (960, 540), (960, 538), (955, 532), (944, 520), (936, 513), (927, 505), (917, 499), (899, 486), (889, 479), (880, 472), (873, 466), (854, 452), (845, 446), (837, 439), (832, 434), (818, 422), (812, 416), (800, 408), (793, 400), (775, 388), (766, 382), (756, 374), (746, 366), (724, 351), (714, 343), (702, 332), (690, 324), (673, 308), (663, 298), (651, 286), (640, 276)]",219.52263127117112,"[8, 3, 4, 1, 6, 7, 2, 5, 9]","(0, 0.25)",THI005C,THI,C,English,Thu Aug 23 13:12:19 2018,Mouse
1,2,3,0,7,9,9,1,642,432,210,150,0,500,200,8000,"[(960, 540), (960, 540), (960, 540), (960, 540), (960, 540), (960, 540), (960, 540), (960, 540), (960, 540), (960, 540), (960, 540), (960, 540), (960, 540), (960, 540), (960, 540), (960, 540), (960, 540), (960, 540), (960, 540), (960, 540), (960, 540), (960, 540), (960, 540), (960, 540), (960, 540), (960, 540), (960, 540), (960, 540), (960, 540), (960, 540), (960, 540), (960, 540), (960, 540), (960, 540), (960, 540), (960, 540), (960, 540), (960, 540), (960, 540), (960, 540), (960, 540), (960, 540), (960, 540), (961, 540), (965, 540), (969, 540), (981, 540), (994, 539), (1031, 532), (1046, 531), (1059, 528), (1078, 526), (1108, 521), (1121, 519), (1138, 515), (1150, 513), (1178, 508), (1198, 503), (1221, 500), (1245, 497), (1285, 490), (1303, 488), (1325, 482), (1346, 474), (1396, 460)]",349.6026664775637,"[8, 3, 4, 1, 6, 7, 2, 5, 9]","(0, 0.25)",THI005C,THI,C,English,Thu Aug 23 13:12:19 2018,Mouse
1,2,3,0,8,2,2,1,1479,1269,210,150,0,500,200,8000,"[(960, 540), (960, 540), (960, 540), (960, 540), (960, 540), (960, 540), (960, 540), (960, 540), (960, 540), (960, 540), (960, 540), (960, 540), (960, 540), (960, 540), (960, 540), (960, 540), (960, 540), (960, 540), (960, 540), (960, 540), (960, 540), (960, 540), (960, 540), (960, 540), (960, 540), (960, 540), (960, 540), (960, 540), (960, 540), (960, 540), (960, 540), (960, 540), (960, 540), (960, 540), (960, 540), (960, 540), (960, 540), (960, 540), (960, 540), (960, 540), (960, 540), (960, 540), (960, 540), (960, 540), (960, 540), (960, 540), (960, 540), (960, 540), (960, 540), (960, 540), (960, 540), (960, 540), (960, 540), (960, 540), (960, 540), (960, 540), (960, 540), (960, 540), (960, 540), (960, 540), (960, 540), (960, 540), (960, 540), (960, 540), (960, 540), (960, 540), (960, 540), (960, 540), (960, 540), (960, 540), (960, 540), (960, 540), (960, 540), (960, 540), (960, 540), (960, 540), (960, 540), (960, 540), (960, 540), (960, 540), (960, 540), (960, 540), (960, 540), (960, 540), (960, 540), (960, 540), (960, 540), (960, 540), (960, 540), (960, 540), (960, 540), (960, 540), (960, 540), (960, 540), (960, 540), (960, 540), (960, 540), (960, 540), (960, 540), (960, 540), (960, 540), (960, 540), (960, 540), (960, 540), (960, 540), (960, 540), (960, 540), (960, 540), (960, 540), (960, 540), (960, 540), (960, 540), (960, 540), (960, 540), (960, 540), (960, 540), (960, 540), (960, 540), (960, 540), (960, 540), (960, 540), (960, 540), (960, 540), (960, 540), (960, 540), (960, 540), (959, 529), (959, 519), (956, 508), (955, 497), (950, 472), (949, 460), (948, 446), (946, 434), (942, 406), (942, 394), (940, 379), (940, 364), (937, 329), (936, 309), (932, 287), (929, 269), (926, 238), (923, 223), (919, 204), (918, 186), (913, 152), (912, 137)]",263.20768767771966,"[8, 3, 4, 1, 6, 7, 2, 5, 9]","(0, 0.25)",THI005C,THI,C,English,Thu Aug 23 13:12:19 2018,Mouse
1,2,3,0,9,6,6,1,931,621,310,149,0,500,200,8000,"[(960, 540), (960, 540), (960, 540), (960, 540), (960, 540), (960, 540), (960, 540), (960, 540), (960, 540), (960, 540), (960, 540), (960, 540), (960, 540), (960, 540), (960, 540), (960, 540), (960, 540), (960, 540), (960, 540), (960, 540), (960, 540), (960, 540), (960, 540), (960, 540), (960, 540), (960, 540), (960, 540), (960, 540), (960, 540), (960, 540), (960, 540), (960, 540), (960, 540), (960, 540), (960, 540), (960, 540), (960, 540), (960, 540), (960, 540), (960, 540), (960, 540), (960, 540), (960, 540), (960, 540), (960, 540), (960, 540), (960, 540), (960, 540), (960, 540), (960, 540), (960, 540), (960, 540), (960, 540), (960, 540), (960, 540), (960, 540), (960, 540), (960, 540), (960, 540), (960, 540), (960, 540), (960, 540), (956, 541), (951, 542), (944, 542), (940, 544), (933, 544), (929, 544), (922, 545), (918, 545), (900, 546), (889, 546), (875, 546), (862, 546), (830, 546), (811, 546), (794, 546), (777, 546), (749, 546), (738, 546), (725, 546), (713, 546), (689, 546), (678, 546), (670, 546), (660, 546), (640, 546), (632, 546), (622, 546), (612, 546), (591, 546), (578, 546), (566, 546), (554, 546)]",179.15332597613852,"[8, 3, 4, 1, 6, 7, 2, 5, 9]","(0, 0.25)",THI005C,THI,C,English,Thu Aug 23 13:12:19 2018,Mouse
1,2,3,0,10,1,1,1,438,98,340,148,0,500,200,8000,"[(960, 540), (960, 540), (960, 540), (960, 540), (960, 540), (960, 540), (960, 540), (960, 540), (960, 540), (961, 541), (961, 542), (961, 543), (959, 546), (958, 547), (957, 548), (956, 549), (956, 549), (955, 550), (954, 550), (954, 551), (953, 552), (952, 553), (950, 554), (949, 556), (943, 563), (938, 568), (933, 573), (925, 581), (914, 593), (907, 601), (898, 610), (889, 618), (858, 642), (843, 654), (820, 670), (799, 690), (758, 725), (746, 736), (728, 751), (713, 763), (686, 785), (676, 794), (667, 802), (658, 809)]",138.3076354484593,"[8, 3, 4, 1, 6, 7, 2, 5, 9]","(0, 0.25)",THI005C,THI,C,English,Thu Aug 23 13:12:19 2018,Mouse
1,2,3,0,11,6,6,1,681,461,220,147,0,500,200,8000,"[(960, 540), (960, 540), (960, 540), (960, 540), (960, 540), (960, 540), (960, 540), (960, 540), (960, 540), (960, 540), (960, 540), (960, 540), (960, 540), (960, 540), (960, 540), (960, 540), (960, 540), (960, 540), (960, 540), (960, 540), (960, 540), (960, 540), (960, 540), (960, 540), (960, 540), (960, 540), (960, 540), (960, 540), (960, 540), (960, 540), (960, 540), (960, 540), (960, 540), (960, 540), (960, 540), (960, 540), (960, 540), (960, 540), (960, 540), (960, 540), (960, 540), (960, 540), (960, 540), (960, 540), (960, 540), (960, 540), (959, 540), (951, 539), (936, 537), (929, 535), (918, 535), (904, 534), (882, 529), (870, 528), (857, 525), (835, 522), (824, 521), (814, 521), (801, 518), (772, 518), (756, 518), (733, 518), (714, 518), (669, 518), (647, 518), (630, 518), (607, 519), (569, 525), (554, 527)]",181.8339673312148,"[8, 3, 4, 1, 6, 7, 2, 5, 9]","(0, 0.25)",THI005C,THI,C,English,Thu Aug 23 13:12:19 2018,Mouse
1,2,3,0,12,1,1,1,371,60,311,146,0,500,200,8000,"[(960, 540), (960, 540), (960, 540), (960, 540), (960, 540), (958, 541), (958, 542), (958, 542), (957, 542), (957, 544), (956, 546), (956, 546), (955, 546), (955, 547), (955, 547), (954, 547), (954, 548), (952, 550), (950, 553), (948, 555), (944, 560), (935, 572), (925, 583), (916, 596), (902, 612), (865, 653), (841, 677), (819, 699), (801, 717), (762, 749), (742, 765), (730, 775), (716, 785), (697, 800), (685, 809), (676, 815), (666, 821)]",136.29516219583832,"[8, 3, 4, 1, 6, 7, 2, 5, 9]","(0, 0.25)",THI005C,THI,C,English,Thu Aug 23 13:12:19 2018,Mouse
1,2,3,0,13,6,6,1,601,381,220,145,0,500,200,8000,"[(960, 540), (960, 540), (960, 540), (960, 540), (960, 540), (960, 540), (960, 540), (960, 540), (960, 540), (960, 540), (960, 540), (960, 540), (960, 540), (960, 540), (960, 540), (960, 540), (960, 540), (960, 540), (960, 540), (960, 540), (960, 540), (960, 540), (960, 540), (960, 540), (960, 540), (960, 540), (960, 540), (960, 540), (960, 540), (960, 540), (960, 540), (960, 540), (960, 540), (960, 540), (960, 540), (960, 540), (960, 540), (960, 540), (960, 539), (959, 539), (946, 540), (938, 541), (924, 542), (906, 546), (877, 546), (862, 546), (843, 546), (821, 546), (784, 546), (765, 546), (745, 546), (725, 546), (691, 547), (670, 549), (655, 549), (639, 549), (604, 549), (591, 549), (576, 549), (564, 549), (541, 550)]",178.63281850545687,"[8, 3, 4, 1, 6, 7, 2, 5, 9]","(0, 0.25)",THI005C,THI,C,English,Thu Aug 23 13:12:19 2018,Mouse
1,2,3,0,14,4,4,1,711,431,280,144,0,500,200,8000,"[(960, 540), (960, 540), (960, 540), (960, 540), (960, 540), (960, 540), (960, 540), (960, 540), (960, 540), (960, 540), (960, 540), (960, 540), (960, 540), (960, 540), (960, 540), (960, 540), (960, 540), (960, 540), (960, 540), (960, 540), (960, 540), (960, 540), (960, 540), (960, 540), (960, 540), (960, 540), (960, 540), (960, 540), (960, 540), (960, 540), (960, 540), (960, 540), (960, 540), (960, 540), (960, 540), (960, 540), (960, 540), (960, 540), (960, 540), (960, 540), (960, 540), (960, 540), (960, 540), (954, 553), (948, 566), (942, 582), (938, 596), (930, 623), (927, 635), (925, 644), (923, 654), (917, 671), (916, 682), (914, 693), (913, 704), (908, 729), (907, 740), (906, 748), (905, 759), (902, 784), (902, 793), (902, 804), (901, 814), (900, 834), (900, 844), (900, 854), (900, 862), (897, 884), (896, 897), (895, 910), (894, 923), (890, 949)]",99.71202489599457,"[8, 3, 4, 1, 6, 7, 2, 5, 9]","(0, 0.25)",THI005C,THI,C,English,Thu Aug 23 13:12:19 2018,Mouse
1,2,3,0,15,5,5,1,930,670,260,143,0,500,200,8000,"[(960, 540), (960, 540), (960, 540), (960, 540), (960, 540), (960, 540), (960, 540), (960, 540), (960, 540), (960, 540), (960, 540), (960, 540), (960, 540), (960, 540), (960, 540), (960, 540), (960, 540), (960, 540), (960, 540), (960, 540), (960, 540), (960, 540), (960, 540), (960, 540), (960, 540), (960, 540), (960, 540), (960, 540), (960, 540), (960, 540), (960, 540), (960, 540), (960, 540), (960, 540), (960, 540), (960, 540), (960, 540), (960, 540), (960, 540), (960, 540), (960, 540), (960, 540), (960, 540), (960, 540), (960, 540), (960, 540), (960, 540), (960, 540), (960, 540), (960, 540), (960, 540), (960, 540), (960, 540), (960, 540), (960, 540), (960, 540), (960, 540), (960, 540), (960, 540), (960, 540), (960, 540), (960, 540), (960, 540), (960, 540), (960, 540), (960, 540), (961, 539), (963, 537), (967, 531), (971, 522), (980, 509), (985, 499), (991, 490), (998, 477), (1015, 447), (1024, 431), (1036, 412), (1042, 399), (1054, 371), (1058, 361), (1062, 350), (1067, 339), (1076, 319), (1082, 309), (1086, 300), (1089, 292), (1100, 266), (1106, 253), (1111, 240), (1117, 228), (1133, 201), (1140, 190), (1146, 181)]",297.38893811896264,"[8, 3, 4, 1, 6, 7, 2, 5, 9]","(0, 0.25)",THI005C,THI,C,English,Thu Aug 23 13:12:19 2018,Mouse
1,2,3,0,16,7,7,1,809,419,390,142,0,500,200,8000,"[(960, 540), (960, 540), (960, 540), (960, 540), (960, 540), (960, 540), (960, 540), (960, 540), (960, 540), (960, 540), (960, 540), (960, 540), (960, 540), (960, 540), (960, 540), (960, 540), (960, 540), (960, 540), (960, 540), (960, 540), (960, 540), (960, 540), (960, 540), (960, 540), (960, 540), (960, 540), (960, 540), (960, 540), (960, 540), (960, 540), (960, 540), (960, 540), (960, 540), (960, 540), (960, 540), (960, 540), (960, 540), (960, 540), (960, 540), (960, 540), (960, 540), (959, 541), (958, 541), (955, 538), (955, 537), (953, 534), (952, 533), (951, 531), (950, 530), (948, 527), (947, 526), (944, 521), (943, 519), (937, 509), (932, 501), (925, 492), (916, 482), (899, 460), (886, 448), (875, 435), (862, 424), (838, 403), (828, 394), (819, 386), (810, 378), (790, 362), (781, 354), (775, 349), (770, 345), (758, 335), (754, 332), (749, 328), (744, 323), (729, 311), (720, 303), (715, 298), (707, 292), (690, 278), (681, 271), (673, 265), (667, 261)]",223.5979356709586,"[8, 3, 4, 1, 6, 7, 2, 5, 9]","(0, 0.25)",THI005C,THI,C,English,Thu Aug 23 13:12:19 2018,Mouse
1,2,3,0,17,8,8,1,740,410,330,141,0,500,200,8000,"[(960, 540), (960, 540), (960, 540), (960, 540), (960, 540), (960, 540), (960, 540), (960, 540), (960, 540), (960, 540), (960, 540), (960, 540), (960, 540), (960, 540), (960, 540), (960, 540), (960, 540), (960, 540), (960, 540), (960, 540), (960, 540), (960, 540), (960, 540), (960, 540), (960, 540), (960, 540), (960, 540), (960, 540), (960, 540), (960, 540), (960, 540), (960, 540), (960, 540), (960, 540), (960, 540), (960, 540), (960, 540), (960, 540), (960, 540), (960, 540), (961, 541), (965, 542), (968, 546), (977, 552), (984, 557), (990, 560), (999, 566), (1011, 572), (1016, 576), (1022, 578), (1027, 582), (1040, 588), (1047, 591), (1053, 593), (1061, 596), (1082, 605), (1094, 610), (1107, 615), (1120, 620), (1148, 631), (1161, 633), (1172, 636), (1182, 638), (1202, 645), (1210, 648), (1221, 650), (1238, 655), (1247, 659), (1258, 664), (1268, 669), (1281, 674), (1306, 685), (1321, 691), (1332, 695)]",22.619864948040426,"[8, 3, 4, 1, 6, 7, 2, 5, 9]","(0, 0.25)",THI005C,THI,C,English,Thu Aug 23 13:12:19 2018,Mouse
1,2,3,0,18,9,9,1,672,392,280,140,0,500,200,8000,"[(960, 540), (960, 540), (960, 540), (960, 540), (960, 540), (960, 540), (960, 540), (960, 540), (960, 540), (960, 540), (960, 540), (960, 540), (960, 540), (960, 540), (960, 540), (960, 540), (960, 540), (960, 540), (960, 540), (960, 540), (960, 540), (960, 540), (960, 540), (960, 540), (960, 540), (960, 540), (960, 540), (960, 540), (960, 540), (960, 540), (960, 540), (960, 540), (960, 540), (960, 540), (960, 540), (960, 540), (960, 540), (960, 540), (960, 540), (960, 538), (980, 533), (991, 532), (1000, 529), (1008, 527), (1030, 524), (1045, 522), (1056, 521), (1066, 517), (1085, 512), (1095, 510), (1104, 506), (1113, 504), (1129, 500), (1137, 497), (1147, 495), (1156, 492), (1178, 485), (1189, 483), (1203, 478), (1221, 471), (1248, 459), (1261, 455), (1272, 450), (1287, 443), (1315, 431), (1326, 424), (1336, 418), (1347, 414)]",341.96571443287013,"[8, 3, 4, 1, 6, 7, 2, 5, 9]","(0, 0.25)",THI005C,THI,C,English,Thu Aug 23 13:12:19 2018,Mouse
1,2,3,0,19,4,4,1,680,440,240,139,0,500,200,8000,"[(960, 540), (960, 540), (960, 540), (960, 540), (960, 540), (960, 540), (960, 540), (960, 540), (960, 540), (960, 540), (960, 540), (960, 540), (960, 540), (960, 540), (960, 540), (960, 540), (960, 540), (960, 540), (960, 540), (960, 540), (960, 540), (960, 540), (960, 540), (960, 540), (960, 540), (960, 540), (960, 540), (960, 540), (960, 540), (960, 540), (960, 540), (960, 540), (960, 540), (960, 540), (960, 540), (960, 540), (960, 540), (960, 540), (960, 540), (960, 540), (960, 540), (960, 540), (960, 540), (960, 541), (960, 545), (960, 554), (959, 565), (956, 582), (955, 593), (952, 606), (948, 619), (937, 653), (935, 666), (931, 679), (928, 693), (924, 716), (923, 731), (920, 747), (918, 765), (914, 794), (912, 811), (910, 829), (908, 842), (903, 873), (901, 883), (900, 897), (899, 908), (894, 935)]",99.48584264164411,"[8, 3, 4, 1, 6, 7, 2, 5, 9]","(0, 0.25)",THI005C,THI,C,English,Thu Aug 23 13:12:19 2018,Mouse
1,2,3,0,20,5,5,1,571,311,260,138,0,500,200,8000,"[(960, 540), (960, 540), (960, 540), (960, 540), (960, 540), (960, 540), (960, 540), (960, 540), (960, 540), (960, 540), (960, 540), (960, 540), (960, 540), (960, 540), (960, 540), (960, 540), (960, 540), (960, 540), (960, 540), (960, 540), (960, 540), (960, 540), (960, 540), (960, 540), (960, 540), (960, 540), (960, 540), (960, 540), (960, 540), (960, 540), (960, 540), (964, 534), (968, 524), (971, 516), (974, 508), (983, 487), (990, 477), (997, 466), (1004, 457), (1018, 436), (1027, 425), (1032, 415), (1039, 406), (1055, 383), (1062, 373), (1068, 364), (1073, 353), (1090, 326), (1098, 313), (1107, 299), (1113, 288), (1128, 261), (1136, 250), (1141, 241), (1148, 229), (1159, 209), (1164, 199), (1167, 192)]",300.7453492817733,"[8, 3, 4, 1, 6, 7, 2, 5, 9]","(0, 0.25)",THI005C,THI,C,English,Thu Aug 23 13:12:19 2018,Mouse
1,2,3,0,21,1,1,1,510,290,220,137,0,500,200,8000,"[(960, 540), (960, 540), (960, 540), (960, 540), (960, 540), (960, 540), (960, 540), (960, 540), (960, 540), (960, 540), (960, 540), (960, 540), (960, 540), (960, 540), (960, 540), (960, 540), (960, 540), (960, 540), (960, 540), (960, 540), (960, 540), (960, 540), (960, 540), (960, 540), (960, 540), (960, 540), (960, 540), (960, 540), (959, 542), (955, 548), (949, 555), (941, 564), (928, 578), (919, 586), (910, 593), (896, 602), (868, 623), (850, 637), (831, 649), (817, 658), (777, 687), (763, 696), (748, 708), (736, 718), (715, 735), (704, 747), (698, 754), (687, 763), (669, 779), (659, 784), (649, 792)]",140.98251692585748,"[8, 3, 4, 1, 6, 7, 2, 5, 9]","(0, 0.25)",THI005C,THI,C,English,Thu Aug 23 13:12:19 2018,Mouse
1,2,3,0,22,8,8,1,1139,509,630,136,0,500,200,8000,"[(960, 540), (960, 540), (960, 540), (960, 540), (960, 540), (960, 540), (960, 540), (960, 540), (960, 540), (960, 540), (960, 540), (960, 540), (960, 540), (960, 540), (960, 540), (960, 540), (960, 540), (960, 540), (960, 540), (960, 540), (960, 540), (960, 540), (960, 540), (960, 540), (960, 540), (960, 540), (960, 540), (960, 540), (960, 540), (960, 540), (960, 540), (960, 540), (960, 540), (960, 540), (960, 540), (960, 540), (960, 540), (960, 540), (960, 540), (960, 540), (960, 540), (960, 540), (960, 540), (960, 540), (960, 540), (960, 540), (960, 540), (960, 540), (960, 540), (960, 540), (960, 539), (962, 539), (964, 539), (968, 540), (972, 543), (975, 546), (977, 548), (984, 556), (986, 560), (986, 561), (989, 564), (992, 569), (994, 573), (994, 576), (998, 581), (1004, 590), (1007, 597), (1009, 606), (1014, 612), (1020, 628), (1023, 632), (1024, 635), (1027, 639), (1032, 646), (1035, 648), (1036, 649), (1038, 651), (1038, 651), (1039, 651), (1039, 651), (1039, 651), (1039, 651), (1039, 651), (1039, 651), (1039, 651), (1041, 651), (1041, 651), (1041, 651), (1041, 651), (1045, 651), (1049, 651), (1055, 650), (1061, 649), (1077, 649), (1085, 649), (1096, 649), (1105, 649), (1116, 649), (1120, 649), (1123, 649), (1127, 649), (1134, 649), (1138, 649), (1144, 649), (1152, 649), (1173, 651), (1188, 654), (1207, 656), (1228, 661), (1272, 665), (1291, 669), (1305, 671), (1323, 676), (1355, 687)]",20.412845846653035,"[8, 3, 4, 1, 6, 7, 2, 5, 9]","(0, 0.25)",THI005C,THI,C,English,Thu Aug 23 13:12:19 2018,Mouse
1,2,3,0,23,7,2,0,-771,391,380,135,0,500,200,8000,"[(960, 540), (960, 540), (960, 540), (960, 540), (960, 540), (960, 540), (960, 540), (960, 540), (960, 540), (960, 540), (960, 540), (960, 540), (960, 540), (960, 540), (960, 540), (960, 540), (960, 540), (960, 540), (960, 540), (960, 540), (960, 540), (960, 540), (960, 540), (960, 540), (960, 540), (960, 540), (960, 540), (960, 540), (960, 540), (960, 540), (960, 540), (960, 540), (960, 540), (960, 540), (960, 540), (960, 540), (960, 540), (960, 540), (960, 540), (959, 539), (959, 536), (959, 528), (959, 521), (959, 511), (959, 505), (959, 500), (959, 493), (959, 488), (959, 484), (959, 480), (958, 476), (957, 463), (955, 453), (954, 443), (952, 432), (950, 417), (950, 413), (950, 409), (948, 401), (944, 381), (944, 371), (942, 359), (941, 348), (936, 322), (935, 311), (933, 302), (932, 289), (931, 280), (930, 271), (928, 262), (924, 235), (921, 221), (917, 206), (914, 192), (909, 166), (908, 155), (907, 145), (905, 137)]",262.22848963662074,"[8, 3, 4, 1, 6, 7, 2, 5, 9]","(0, 0.25)",THI005C,THI,C,English,Thu Aug 23 13:12:19 2018,Mouse
1,2,3,0,24,3,7,0,-1102,862,240,136,0,500,200,8000,"[(960, 540), (960, 540), (960, 540), (960, 540), (960, 540), (960, 540), (960, 540), (960, 540), (960, 540), (960, 540), (960, 540), (960, 540), (960, 540), (960, 540), (960, 540), (960, 540), (960, 540), (960, 540), (960, 540), (960, 540), (960, 540), (960, 540), (960, 540), (960, 540), (960, 540), (960, 540), (960, 540), (960, 540), (960, 540), (960, 540), (960, 540), (960, 540), (960, 540), (960, 540), (960, 540), (960, 540), (960, 540), (960, 540), (960, 540), (960, 540), (960, 540), (960, 540), (960, 540), (960, 540), (960, 540), (960, 540), (960, 540), (960, 540), (960, 540), (960, 540), (960, 540), (960, 540), (960, 540), (960, 540), (960, 540), (960, 540), (960, 540), (960, 540), (960, 540), (960, 540), (960, 540), (960, 540), (960, 540), (960, 540), (960, 540), (960, 540), (960, 540), (960, 540), (960, 540), (960, 540), (960, 540), (960, 540), (960, 540), (960, 540), (960, 540), (960, 540), (960, 540), (960, 540), (960, 540), (960, 540), (960, 540), (960, 540), (960, 540), (960, 540), (960, 540), (960, 540), (956, 540), (946, 527), (929, 506), (920, 496), (911, 487), (899, 477), (872, 460), (855, 448), (843, 440), (830, 430), (801, 411), (791, 404), (782, 399), (772, 391), (754, 378), (748, 371), (740, 365), (734, 360), (718, 347), (713, 344), (704, 337), (694, 328), (675, 314), (662, 303), (645, 290)]",218.43730149106253,"[8, 3, 4, 1, 6, 7, 2, 5, 9]","(0, 0.25)",THI005C,THI,C,English,Thu Aug 23 13:12:19 2018,Mouse
1,2,3,0,25,6,6,1,1301,311,990,137,0,500,200,8000,"[(960, 540), (960, 540), (960, 540), (960, 540), (960, 540), (960, 540), (960, 540), (960, 540), (960, 540), (960, 540), (960, 540), (960, 540), (960, 540), (960, 540), (960, 540), (960, 540), (960, 540), (960, 540), (960, 540), (960, 540), (960, 540), (960, 540), (960, 540), (960, 540), (960, 540), (960, 540), (960, 540), (960, 540), (960, 540), (960, 540), (960, 540), (959, 540), (956, 540), (956, 539), (956, 539), (956, 539), (956, 539), (956, 539), (956, 539), (956, 539), (956, 539), (956, 539), (956, 539), (956, 539), (956, 539), (956, 539), (956, 539), (956, 539), (956, 539), (956, 539), (956, 539), (956, 539), (956, 539), (956, 539), (956, 539), (956, 539), (956, 539), (956, 539), (956, 539), (956, 539), (956, 539), (956, 539), (956, 539), (956, 539), (956, 539), (956, 539), (956, 539), (956, 539), (956, 539), (956, 539), (956, 539), (956, 539), (956, 539), (956, 539), (956, 539), (956, 539), (956, 539), (956, 539), (956, 539), (956, 539), (956, 539), (956, 539), (956, 539), (956, 539), (956, 539), (956, 539), (956, 539), (956, 539), (956, 539), (956, 539), (956, 539), (956, 539), (956, 539), (956, 539), (956, 539), (956, 539), (956, 539), (956, 539), (956, 539), (956, 539), (956, 539), (956, 539), (956, 539), (956, 539), (956, 539), (956, 539), (953, 539), (947, 539), (940, 538), (922, 535), (910, 533), (893, 533), (878, 533), (843, 533), (815, 533), (790, 533), (767, 533), (725, 533), (709, 533), (694, 533), (677, 533), (653, 533), (642, 533), (632, 533), (623, 533), (606, 533), (597, 533), (590, 533), (583, 533), (565, 533), (556, 533)]",180.9926493265884,"[8, 3, 4, 1, 6, 7, 2, 5, 9]","(0, 0.25)",THI005C,THI,C,English,Thu Aug 23 13:12:19 2018,Mouse
1,2,3,0,26,6,6,1,3671,2101,1570,137,0,500,200,8000,"[(960, 540), (960, 540), (960, 540), (960, 540), (960, 540), (960, 540), (960, 540), (960, 540), (960, 540), (960, 540), (960, 540), (960, 540), (960, 540), (960, 540), (960, 540), (960, 540), (960, 540), (960, 540), (960, 540), (960, 540), (960, 540), (960, 540), (960, 540), (960, 540), (960, 540), (960, 540), (960, 540), (960, 540), (960, 540), (960, 540), (960, 540), (960, 540), (960, 540), (960, 540), (960, 540), (960, 540), (960, 540), (960, 540), (960, 540), (960, 540), (960, 540), (960, 540), (960, 540), (960, 540), (960, 540), (960, 540), (960, 540), (960, 540), (960, 540), (960, 540), (960, 540), (960, 540), (960, 540), (960, 540), (960, 540), (960, 540), (960, 540), (960, 540), (960, 540), (960, 540), (960, 540), (960, 540), (960, 540), (960, 540), (960, 540), (960, 540), (960, 540), (960, 540), (960, 540), (960, 540), (960, 540), (960, 540), (960, 540), (960, 540), (960, 540), (960, 540), (960, 540), (960, 540), (960, 540), (960, 540), (960, 540), (960, 540), (960, 540), (960, 540), (960, 540), (960, 540), (960, 540), (960, 540), (960, 540), (960, 540), (960, 540), (960, 540), (960, 540), (960, 540), (960, 540), (960, 540), (960, 540), (960, 540), (960, 540), (960, 540), (960, 540), (960, 540), (960, 540), (960, 540), (960, 540), (960, 540), (960, 540), (960, 540), (960, 540), (960, 540), (960, 540), (960, 540), (960, 540), (960, 540), (960, 540), (960, 540), (960, 540), (960, 540), (960, 540), (960, 540), (960, 540), (960, 540), (960, 540), (960, 540), (960, 540), (960, 540), (960, 540), (960, 540), (960, 540), (960, 540), (960, 540), (960, 540), (960, 540), (960, 540), (960, 540), (960, 540), (960, 540), (960, 540), (960, 540), (960, 540), (960, 540), (960, 540), (960, 540), (960, 540), (960, 540), (960, 540), (960, 540), (960, 540), (960, 540), (960, 540), (960, 540), (960, 540), (960, 540), (960, 540), (960, 540), (960, 540), (960, 540), (960, 540), (960, 540), (960, 540), (960, 540), (960, 540), (960, 540), (960, 540), (960, 540), (960, 540), (960, 540), (960, 540), (960, 540), (960, 540), (960, 540), (960, 540), (960, 540), (960, 540), (960, 540), (960, 540), (960, 540), (960, 540), (960, 540), (960, 540), (960, 540), (960, 540), (960, 540), (960, 540), (960, 540), (960, 540), (960, 540), (960, 540), (960, 540), (960, 540), (960, 540), (960, 540), (960, 540), (960, 540), (960, 540), (960, 540), (960, 540), (960, 540), (960, 540), (960, 540), (960, 540), (960, 540), (960, 540), (960, 540), (960, 540), (960, 540), (960, 540), (960, 540), (960, 540), (960, 540), (961, 538), (957, 538), (951, 541), (942, 548), (927, 561), (915, 569), (903, 580), (890, 591), (867, 611), (853, 623), (844, 631), (833, 639), (814, 652), (807, 658), (798, 664), (789, 671), (774, 682), (769, 684), (764, 688), (758, 691), (755, 694), (751, 695), (751, 695), (750, 697), (749, 698), (749, 698), (748, 700), (748, 700), (748, 700), (748, 700), (748, 700), (748, 700), (748, 700), (748, 700), (748, 700), (748, 700), (748, 700), (748, 700), (748, 700), (748, 700), (748, 700), (748, 700), (748, 700), (748, 700), (748, 700), (748, 700), (748, 700), (748, 700), (748, 700), (748, 700), (748, 700), (748, 700), (748, 700), (748, 700), (748, 700), (748, 700), (749, 700), (751, 700), (752, 700), (754, 700), (754, 700), (755, 700), (755, 700), (755, 700), (755, 700), (755, 700), (755, 700), (755, 700), (755, 700), (755, 700), (755, 700), (755, 700), (755, 700), (755, 700), (755, 700), (755, 700), (755, 700), (755, 700), (755, 700), (755, 700), (755, 700), (755, 700), (755, 700), (755, 700), (755, 700), (755, 700), (755, 700), (755, 700), (755, 700), (755, 700), (755, 700), (755, 700), (755, 700), (755, 700), (755, 700), (755, 701), (755, 704), (753, 706), (752, 710), (749, 713), (741, 726), (735, 734), (730, 743), (725, 749), (713, 764), (708, 769), (703, 775), (700, 779), (695, 784), (695, 784), (695, 784), (695, 784), (695, 784), (695, 784), (695, 784), (695, 784), (695, 784), (695, 784), (695, 784), (695, 784), (703, 781), (710, 775), (721, 768), (730, 758), (755, 733), (766, 720), (776, 708), (781, 702), (790, 686), (794, 676), (797, 670), (798, 663), (799, 658), (799, 655), (799, 653), (799, 651), (799, 647), (799, 646), (799, 644), (799, 643), (799, 638), (795, 634), (791, 631), (787, 627), (777, 623), (772, 621), (764, 619), (756, 616), (735, 608), (725, 604), (714, 599), (702, 597), (676, 588), (660, 583), (641, 579), (627, 574), (579, 560), (554, 552)]",178.3070215623711,"[8, 3, 4, 1, 6, 7, 2, 5, 9]","(0, 0.25)",THI005C,THI,C,English,Thu Aug 23 13:12:19 2018,Mouse
1,2,3,0,27,6,6,1,548,318,230,136,0,500,200,8000,"[(960, 540), (960, 540), (960, 540), (960, 540), (960, 540), (960, 540), (960, 540), (960, 540), (960, 540), (960, 540), (960, 540), (960, 540), (960, 540), (960, 540), (960, 540), (960, 540), (960, 540), (960, 540), (960, 540), (960, 540), (960, 540), (960, 540), (960, 540), (960, 540), (960, 540), (960, 540), (960, 540), (960, 540), (960, 540), (960, 540), (960, 540), (957, 540), (948, 539), (931, 537), (886, 531), (857, 526), (839, 525), (816, 523), (783, 523), (768, 523), (757, 523), (741, 520), (714, 519), (699, 519), (687, 519), (676, 519), (651, 519), (637, 519), (626, 519), (615, 519), (595, 519), (585, 519), (577, 519), (566, 519), (542, 519)]",182.87607800464068,"[8, 3, 4, 1, 6, 7, 2, 5, 9]","(0, 0.25)",THI005C,THI,C,English,Thu Aug 23 13:12:19 2018,Mouse
1,2,3,0,28,2,2,1,2482,461,2021,135,0,500,200,8000,"[(960, 540), (960, 540), (960, 540), (960, 540), (960, 540), (960, 540), (960, 540), (960, 540), (960, 540), (960, 540), (960, 540), (960, 540), (960, 540), (960, 540), (960, 540), (960, 540), (960, 540), (960, 540), (960, 540), (960, 540), (960, 540), (960, 540), (960, 540), (960, 540), (960, 540), (960, 540), (960, 540), (960, 540), (960, 540), (960, 540), (960, 540), (960, 540), (960, 540), (960, 540), (960, 540), (960, 540), (960, 540), (960, 540), (960, 540), (960, 540), (960, 540), (960, 540), (960, 540), (960, 540), (960, 540), (960, 540), (959, 531), (954, 526), (949, 521), (944, 516), (939, 513), (938, 512), (938, 512), (938, 512), (938, 512), (938, 512), (938, 512), (938, 512), (938, 512), (938, 512), (938, 512), (938, 512), (938, 512), (938, 512), (938, 512), (938, 512), (938, 512), (938, 512), (938, 512), (938, 512), (938, 512), (938, 511), (938, 510), (938, 508), (938, 502), (938, 499), (938, 496), (939, 492), (939, 479), (939, 471), (939, 460), (939, 449), (939, 426), (939, 413), (939, 399), (939, 391), (939, 380), (939, 377), (939, 375), (939, 373), (939, 372), (939, 372), (939, 372), (939, 372), (939, 372), (939, 372), (939, 372), (939, 372), (939, 372), (939, 372), (939, 372), (939, 372), (939, 372), (939, 372), (939, 372), (939, 372), (939, 372), (939, 372), (939, 372), (939, 372), (939, 370), (940, 367), (940, 365), (940, 362), (940, 359), (940, 357), (940, 356), (940, 356), (940, 356), (940, 356), (940, 356), (940, 356), (940, 356), (940, 356), (940, 356), (940, 356), (940, 356), (940, 356), (940, 356), (940, 356), (940, 356), (940, 356), (940, 356), (940, 356), (940, 356), (940, 356), (940, 356), (940, 356), (940, 356), (940, 356), (940, 356), (940, 356), (940, 356), (940, 356), (940, 356), (940, 356), (940, 356), (940, 356), (940, 356), (940, 356), (940, 356), (940, 356), (940, 356), (940, 356), (940, 356), (940, 356), (940, 356), (940, 356), (940, 356), (940, 356), (940, 356), (940, 356), (940, 356), (940, 356), (940, 356), (940, 356), (940, 356), (940, 356), (940, 356), (940, 356), (940, 356), (940, 356), (940, 356), (940, 356), (940, 356), (940, 356), (940, 356), (940, 356), (940, 356), (940, 356), (940, 356), (940, 356), (940, 356), (940, 356), (940, 356), (940, 356), (940, 356), (940, 356), (940, 356), (940, 356), (940, 356), (940, 356), (940, 356), (940, 356), (940, 356), (940, 356), (940, 356), (940, 356), (940, 356), (940, 356), (940, 356), (940, 356), (940, 356), (940, 356), (940, 356), (940, 356), (940, 356), (940, 356), (940, 356), (940, 356), (940, 356), (940, 356), (940, 356), (940, 356), (940, 356), (940, 356), (940, 356), (940, 356), (940, 356), (940, 356), (940, 356), (940, 356), (940, 356), (940, 356), (940, 356), (940, 356), (940, 356), (940, 356), (940, 356), (940, 356), (940, 356), (940, 356), (940, 356), (940, 355), (940, 353), (940, 353), (940, 351), (940, 350), (940, 346), (940, 342), (940, 336), (940, 330), (940, 309), (937, 291), (933, 269), (930, 246), (920, 192), (917, 168), (911, 143)]",262.9638142458359,"[8, 3, 4, 1, 6, 7, 2, 5, 9]","(0, 0.25)",THI005C,THI,C,English,Thu Aug 23 13:12:19 2018,Mouse
1,2,3,0,29,4,1,0,-630,50,580,134,0,500,200,8000,"[(960, 540), (960, 540), (960, 540), (960, 540), (958, 542), (957, 542), (956, 542), (956, 542), (955, 542), (955, 542), (955, 542), (955, 542), (955, 542), (955, 542), (955, 542), (955, 542), (955, 542), (955, 542), (955, 542), (955, 542), (955, 542), (955, 542), (955, 542), (955, 542), (955, 542), (955, 542), (955, 542), (955, 542), (954, 542), (953, 542), (952, 544), (950, 547), (945, 558), (942, 564), (938, 571), (931, 581), (917, 600), (909, 611), (896, 625), (884, 640), (862, 660), (854, 667), (845, 673), (836, 678), (819, 687), (812, 690), (803, 694), (795, 699), (778, 710), (769, 714), (761, 716), (752, 721), (735, 728), (726, 733), (716, 737), (707, 740), (687, 749), (681, 753), (671, 759), (660, 764), (645, 775), (639, 778), (635, 781)]",143.4416433147987,"[8, 3, 4, 1, 6, 7, 2, 5, 9]","(0, 0.25)",THI005C,THI,C,English,Thu Aug 23 13:12:19 2018,Mouse
1,2,3,0,30,3,3,1,3320,2430,890,135,0,500,200,8000,"[(960, 540), (960, 540), (960, 540), (960, 540), (960, 540), (960, 540), (960, 540), (960, 540), (960, 540), (960, 540), (960, 540), (960, 540), (960, 540), (960, 540), (960, 540), (960, 540), (960, 540), (960, 540), (960, 540), (960, 540), (960, 540), (960, 540), (960, 540), (960, 540), (960, 540), (960, 540), (960, 540), (960, 540), (960, 540), (960, 540), (960, 540), (960, 540), (960, 540), (960, 540), (960, 540), (960, 540), (960, 540), (960, 540), (960, 540), (960, 540), (960, 540), (960, 540), (960, 540), (960, 540), (960, 540), (960, 540), (960, 540), (960, 540), (960, 540), (960, 540), (960, 540), (960, 540), (960, 540), (960, 540), (960, 540), (960, 540), (960, 540), (960, 540), (960, 540), (960, 540), (960, 540), (960, 540), (960, 540), (960, 540), (960, 540), (960, 540), (960, 540), (960, 540), (960, 540), (960, 540), (960, 540), (960, 540), (960, 540), (960, 540), (960, 540), (960, 540), (960, 540), (960, 540), (960, 540), (960, 540), (960, 540), (960, 540), (960, 540), (960, 540), (960, 540), (960, 540), (960, 540), (960, 540), (960, 540), (960, 540), (960, 540), (960, 540), (960, 540), (960, 540), (960, 540), (960, 540), (960, 540), (960, 540), (960, 540), (960, 540), (960, 540), (960, 540), (960, 540), (960, 540), (960, 540), (960, 540), (960, 540), (960, 540), (960, 540), (960, 540), (960, 540), (960, 540), (960, 540), (960, 540), (960, 540), (960, 540), (960, 540), (960, 540), (960, 540), (960, 540), (960, 540), (960, 540), (960, 540), (960, 540), (960, 540), (960, 540), (960, 540), (960, 540), (960, 540), (960, 540), (960, 540), (960, 540), (960, 540), (960, 540), (960, 540), (960, 540), (960, 540), (960, 540), (960, 540), (960, 540), (960, 540), (960, 540), (960, 540), (960, 540), (960, 540), (960, 540), (960, 540), (960, 540), (960, 540), (960, 540), (960, 540), (960, 540), (960, 540), (960, 540), (960, 540), (960, 540), (960, 540), (960, 540), (960, 540), (960, 540), (960, 540), (960, 540), (960, 540), (960, 540), (960, 540), (960, 540), (960, 540), (960, 540), (960, 540), (960, 540), (960, 540), (960, 540), (960, 540), (960, 540), (960, 540), (960, 540), (960, 540), (960, 540), (960, 540), (960, 540), (960, 540), (960, 540), (960, 540), (960, 540), (960, 540), (960, 540), (960, 540), (960, 540), (960, 540), (960, 540), (960, 540), (960, 540), (960, 540), (960, 540), (960, 540), (960, 540), (960, 540), (960, 540), (960, 540), (960, 540), (960, 540), (960, 540), (960, 540), (960, 540), (960, 540), (960, 540), (960, 540), (960, 540), (960, 540), (960, 540), (960, 540), (960, 540), (960, 540), (960, 540), (960, 540), (960, 540), (960, 540), (960, 540), (960, 540), (960, 540), (960, 540), (960, 540), (960, 540), (960, 540), (960, 540), (960, 540), (960, 540), (960, 540), (960, 540), (960, 540), (960, 540), (960, 540), (960, 540), (960, 540), (960, 540), (960, 540), (960, 540), (960, 540), (960, 540), (960, 540), (960, 540), (960, 540), (960, 543), (962, 549), (969, 562), (974, 568), (978, 576), (981, 583), (989, 600), (991, 605), (996, 613), (999, 619), (1003, 625), (1004, 627), (1004, 627), (1005, 629), (1007, 634), (1008, 636), (1009, 637), (1009, 639), (1010, 640), (1010, 640), (1010, 640), (1010, 640), (1010, 640), (1010, 640), (1010, 640), (1010, 640), (1010, 640), (1010, 640), (1010, 640), (1010, 640), (1010, 640), (1010, 640), (1010, 640), (1010, 640), (1010, 640), (1010, 640), (1010, 640), (1010, 640), (1010, 640), (1010, 640), (1010, 640), (1010, 640), (1010, 640), (1010, 640), (1010, 641), (1010, 642), (1010, 642), (1010, 643), (1010, 644), (1012, 646), (1014, 649), (1016, 653), (1016, 654), (1018, 656), (1024, 664), (1025, 667), (1028, 669), (1031, 674), (1041, 688), (1044, 691), (1047, 696), (1050, 702), (1057, 715), (1061, 722), (1063, 725), (1066, 733), (1069, 742), (1073, 750), (1074, 756), (1077, 766), (1083, 783), (1085, 792), (1086, 799), (1089, 806), (1092, 820), (1093, 826), (1094, 832), (1097, 839), (1099, 848), (1100, 852), (1102, 857), (1102, 861), (1104, 869), (1106, 873), (1108, 879), (1109, 884), (1113, 896), (1115, 902), (1116, 905), (1118, 910)]",66.87620811163073,"[8, 3, 4, 1, 6, 7, 2, 5, 9]","(0, 0.25)",THI005C,THI,C,English,Thu Aug 23 13:12:19 2018,Mouse
1,2,3,0,31,5,7,0,-1849,59,1790,135,0,500,200,8000,"[(960, 540), (960, 540), (960, 540), (960, 540), (960, 540), (960, 541), (960, 541), (960, 541), (960, 541), (960, 541), (960, 541), (960, 541), (960, 541), (960, 541), (960, 541), (960, 541), (960, 541), (960, 541), (960, 541), (960, 541), (960, 541), (960, 541), (960, 541), (960, 541), (960, 541), (960, 541), (960, 541), (960, 541), (960, 541), (960, 541), (960, 541), (960, 541), (960, 541), (960, 541), (960, 541), (960, 541), (960, 541), (960, 541), (960, 541), (960, 541), (960, 541), (960, 541), (960, 541), (960, 541), (960, 541), (960, 541), (960, 541), (960, 541), (960, 541), (960, 541), (960, 541), (960, 541), (960, 541), (960, 541), (960, 541), (960, 541), (960, 541), (960, 541), (960, 541), (960, 541), (960, 541), (960, 541), (960, 541), (960, 541), (960, 541), (960, 541), (960, 541), (960, 541), (960, 541), (960, 541), (960, 541), (960, 541), (960, 541), (960, 541), (960, 541), (960, 541), (960, 541), (960, 541), (960, 541), (960, 541), (960, 541), (960, 541), (960, 541), (960, 541), (960, 541), (960, 541), (960, 541), (960, 541), (960, 541), (960, 541), (960, 541), (960, 541), (960, 541), (960, 541), (960, 541), (960, 541), (960, 541), (960, 541), (960, 541), (960, 541), (960, 541), (960, 541), (960, 541), (960, 541), (960, 541), (960, 541), (960, 541), (960, 541), (960, 541), (960, 541), (960, 541), (960, 541), (960, 541), (960, 541), (960, 541), (960, 541), (960, 541), (960, 541), (960, 541), (960, 541), (960, 541), (960, 541), (960, 541), (960, 541), (960, 541), (960, 541), (960, 541), (960, 541), (960, 541), (960, 541), (960, 541), (960, 541), (960, 541), (960, 541), (960, 541), (960, 541), (960, 541), (960, 541), (960, 541), (960, 541), (960, 541), (960, 541), (960, 541), (960, 541), (960, 541), (960, 541), (960, 541), (960, 541), (960, 541), (960, 541), (960, 541), (960, 541), (960, 541), (960, 541), (960, 541), (960, 541), (960, 541), (960, 541), (960, 541), (960, 541), (960, 541), (960, 541), (960, 541), (960, 541), (952, 536), (950, 534), (943, 530), (939, 527), (925, 516), (915, 509), (908, 504), (900, 498), (878, 482), (866, 472), (851, 458), (836, 446), (799, 411), (776, 391), (752, 371), (730, 355), (692, 324), (680, 315), (669, 304), (660, 295), (642, 274)]",219.9117398024624,"[8, 3, 4, 1, 6, 7, 2, 5, 9]","(0, 0.25)",THI005C,THI,C,English,Thu Aug 23 13:12:19 2018,Mouse
1,2,3,0,32,1,1,1,400,190,210,136,0,500,200,8000,"[(960, 540), (960, 540), (960, 540), (960, 540), (960, 540), (960, 540), (960, 540), (960, 540), (960, 540), (960, 540), (960, 540), (960, 540), (960, 540), (960, 540), (960, 540), (960, 540), (960, 540), (960, 540), (951, 546), (944, 550), (934, 557), (920, 568), (911, 574), (902, 578), (890, 588), (864, 606), (854, 614), (839, 625), (827, 634), (814, 646), (779, 675), (763, 689), (743, 703), (727, 714), (693, 738), (681, 748), (670, 756), (650, 771), (641, 778), (635, 785)]",142.9893267663969,"[8, 3, 4, 1, 6, 7, 2, 5, 9]","(0, 0.25)",THI005C,THI,C,English,Thu Aug 23 13:12:19 2018,Mouse
1,2,3,0,33,1,1,1,369,179,190,136,0,500,200,8000,"[(960, 540), (960, 540), (960, 540), (960, 540), (960, 540), (960, 540), (960, 540), (960, 540), (960, 540), (960, 540), (960, 540), (960, 540), (960, 540), (960, 540), (960, 540), (960, 540), (960, 540), (958, 542), (957, 545), (954, 548), (946, 558), (940, 563), (934, 568), (922, 577), (899, 594), (882, 605), (859, 621), (837, 636), (790, 669), (770, 680), (750, 696), (723, 713), (680, 743), (669, 750), (655, 760), (645, 765), (625, 781)]",144.26864707127663,"[8, 3, 4, 1, 6, 7, 2, 5, 9]","(0, 0.25)",THI005C,THI,C,English,Thu Aug 23 13:12:19 2018,Mouse
1,2,3,0,34,4,6,0,-2348,2188,160,135,0,500,200,8000,"[(960, 540), (960, 540), (960, 540), (960, 540), (960, 540), (960, 540), (960, 540), (960, 540), (960, 540), (960, 540), (960, 540), (960, 540), (960, 540), (960, 540), (960, 540), (960, 540), (960, 540), (960, 540), (960, 540), (960, 540), (960, 540), (960, 540), (960, 540), (960, 540), (960, 540), (960, 540), (960, 540), (960, 540), (960, 540), (960, 540), (960, 540), (960, 540), (960, 540), (960, 540), (960, 540), (960, 540), (960, 540), (960, 540), (960, 540), (960, 540), (960, 540), (960, 540), (960, 540), (960, 540), (960, 540), (960, 540), (960, 540), (960, 540), (960, 540), (960, 540), (960, 540), (960, 540), (960, 540), (960, 540), (960, 540), (960, 540), (960, 540), (960, 540), (960, 540), (960, 540), (960, 540), (960, 540), (960, 540), (960, 540), (960, 540), (960, 540), (960, 540), (960, 540), (960, 540), (960, 540), (960, 540), (960, 540), (960, 540), (960, 540), (960, 540), (960, 540), (960, 540), (960, 540), (960, 540), (960, 540), (960, 540), (960, 540), (960, 540), (960, 540), (960, 540), (960, 540), (960, 540), (960, 540), (960, 540), (960, 540), (960, 540), (960, 540), (960, 540), (960, 540), (960, 540), (960, 540), (960, 540), (960, 540), (960, 540), (960, 540), (960, 540), (960, 540), (960, 540), (960, 540), (960, 540), (960, 540), (960, 540), (960, 540), (960, 540), (960, 540), (960, 540), (960, 540), (960, 540), (960, 540), (960, 540), (960, 540), (960, 540), (960, 540), (960, 540), (960, 540), (960, 540), (960, 540), (960, 540), (960, 540), (960, 540), (960, 540), (960, 540), (960, 540), (960, 540), (960, 540), (960, 540), (960, 540), (960, 540), (960, 540), (960, 540), (960, 540), (960, 540), (960, 540), (960, 540), (960, 540), (960, 540), (960, 540), (960, 540), (960, 540), (960, 540), (960, 540), (960, 540), (960, 540), (960, 540), (960, 540), (960, 540), (960, 540), (960, 540), (960, 540), (960, 540), (960, 540), (960, 540), (960, 540), (960, 540), (960, 540), (960, 540), (960, 540), (960, 540), (960, 540), (960, 540), (960, 540), (960, 540), (960, 540), (960, 540), (960, 540), (960, 540), (960, 540), (960, 540), (960, 540), (960, 540), (960, 540), (960, 540), (960, 540), (960, 540), (960, 540), (960, 540), (960, 540), (960, 540), (960, 540), (960, 540), (960, 540), (960, 540), (960, 540), (960, 540), (960, 540), (960, 540), (960, 540), (960, 540), (960, 540), (960, 540), (960, 540), (960, 540), (960, 540), (960, 540), (960, 540), (960, 540), (960, 540), (960, 540), (960, 540), (960, 540), (960, 540), (960, 540), (960, 540), (960, 540), (960, 540), (960, 540), (960, 540), (960, 540), (960, 540), (960, 540), (960, 540), (960, 540), (960, 540), (953, 540), (936, 540), (914, 543), (896, 546), (853, 553), (824, 558), (798, 561), (763, 566), (702, 573), (679, 574), (656, 574), (636, 575), (605, 579), (590, 580), (577, 580), (563, 581), (540, 586)]",173.74966042221953,"[8, 3, 4, 1, 6, 7, 2, 5, 9]","(0, 0.25)",THI005C,THI,C,English,Thu Aug 23 13:12:19 2018,Mouse
1,2,3,0,35,4,1,0,-269,169,100,136,0,500,200,8000,"[(960, 540), (960, 540), (960, 540), (960, 540), (960, 540), (960, 540), (960, 540), (960, 540), (960, 540), (960, 540), (960, 540), (960, 540), (960, 540), (960, 540), (960, 540), (960, 540), (956, 543), (946, 564), (915, 635), (901, 667), (887, 699), (866, 732), (831, 785), (809, 809), (780, 832), (755, 849), (703, 881)]",127.00407955395984,"[8, 3, 4, 1, 6, 7, 2, 5, 9]","(0, 0.25)",THI005C,THI,C,English,Thu Aug 23 13:12:19 2018,Mouse
1,2,3,0,36,9,9,1,879,549,330,137,0,500,200,8000,"[(960, 540), (960, 540), (960, 540), (960, 540), (960, 540), (960, 540), (960, 540), (960, 540), (960, 540), (960, 540), (960, 540), (960, 540), (960, 540), (960, 540), (960, 540), (960, 540), (960, 540), (960, 540), (960, 540), (960, 540), (960, 540), (960, 540), (960, 540), (960, 540), (960, 540), (960, 540), (960, 540), (960, 540), (960, 540), (960, 540), (960, 540), (960, 540), (960, 540), (960, 540), (960, 540), (960, 540), (960, 540), (960, 540), (960, 540), (960, 540), (960, 540), (960, 540), (960, 540), (960, 540), (960, 540), (960, 540), (960, 540), (960, 540), (960, 540), (960, 540), (960, 540), (960, 540), (960, 540), (960, 540), (963, 539), (965, 536), (967, 534), (968, 534), (974, 529), (975, 527), (978, 526), (980, 524), (984, 520), (986, 519), (990, 516), (993, 515), (1006, 507), (1012, 504), (1019, 500), (1025, 497), (1035, 491), (1041, 489), (1047, 486), (1050, 485), (1063, 480), (1071, 476), (1079, 474), (1089, 468), (1114, 458), (1131, 450), (1151, 443), (1171, 435), (1216, 422), (1236, 416), (1259, 409), (1281, 403), (1320, 392), (1337, 386)]",337.78057126759006,"[8, 3, 4, 1, 6, 7, 2, 5, 9]","(0, 0.25)",THI005C,THI,C,English,Thu Aug 23 13:12:19 2018,Mouse
1,2,3,0,37,3,7,0,-1559,1329,230,137,0,500,200,8000,"[(960, 540), (960, 540), (960, 540), (960, 540), (960, 540), (960, 540), (960, 540), (960, 540), (960, 540), (960, 540), (960, 540), (960, 540), (960, 540), (960, 540), (960, 540), (960, 540), (960, 540), (960, 540), (960, 540), (960, 540), (960, 540), (960, 540), (960, 540), (960, 540), (960, 540), (960, 540), (960, 540), (960, 540), (960, 540), (960, 540), (960, 540), (960, 540), (960, 540), (960, 540), (960, 540), (960, 540), (960, 540), (960, 540), (960, 540), (960, 540), (960, 540), (960, 540), (960, 540), (960, 540), (960, 540), (960, 540), (960, 540), (960, 540), (960, 540), (960, 540), (960, 540), (960, 540), (960, 540), (960, 540), (960, 540), (960, 540), (960, 540), (960, 540), (960, 540), (960, 540), (960, 540), (960, 540), (960, 540), (960, 540), (960, 540), (960, 540), (960, 540), (960, 540), (960, 540), (960, 540), (960, 540), (960, 540), (960, 540), (960, 540), (960, 540), (960, 540), (960, 540), (960, 540), (960, 540), (960, 540), (960, 540), (960, 540), (960, 540), (960, 540), (960, 540), (960, 540), (960, 540), (960, 540), (960, 540), (960, 540), (960, 540), (960, 540), (960, 540), (960, 540), (960, 540), (960, 540), (960, 540), (960, 540), (960, 540), (960, 540), (960, 540), (960, 540), (960, 540), (960, 540), (960, 540), (960, 540), (960, 540), (960, 540), (960, 540), (960, 540), (960, 540), (960, 540), (960, 540), (960, 540), (960, 540), (960, 540), (960, 540), (960, 540), (960, 540), (960, 540), (960, 540), (960, 540), (960, 540), (960, 540), (960, 540), (960, 540), (960, 540), (960, 540), (960, 540), (960, 540), (960, 540), (960, 540), (958, 540), (956, 540), (930, 532), (906, 521), (888, 514), (861, 501), (811, 478), (788, 469), (767, 460), (748, 448), (727, 433), (719, 427), (712, 423), (705, 417), (697, 409), (691, 404), (684, 398), (676, 389), (667, 377), (660, 367), (652, 356), (645, 346), (629, 324), (622, 316)]",213.53330791845653,"[8, 3, 4, 1, 6, 7, 2, 5, 9]","(0, 0.25)",THI005C,THI,C,English,Thu Aug 23 13:12:19 2018,Mouse
1,2,3,0,38,5,4,0,-771,601,170,138,0,500,200,8000,"[(960, 540), (960, 540), (960, 540), (960, 540), (960, 540), (960, 540), (960, 540), (960, 540), (960, 540), (960, 540), (960, 540), (960, 540), (960, 540), (960, 540), (960, 540), (960, 540), (960, 540), (960, 540), (960, 540), (960, 540), (960, 540), (960, 540), (960, 540), (960, 540), (960, 540), (960, 540), (960, 540), (960, 540), (960, 540), (960, 540), (960, 540), (960, 540), (960, 540), (960, 540), (960, 540), (960, 540), (960, 540), (960, 540), (960, 540), (960, 540), (960, 540), (960, 540), (960, 540), (960, 540), (960, 540), (960, 540), (960, 540), (960, 540), (960, 540), (960, 540), (960, 540), (960, 540), (960, 540), (960, 540), (960, 540), (960, 540), (960, 540), (960, 540), (960, 540), (960, 540), (959, 546), (950, 581), (945, 606), (942, 635), (937, 664), (925, 729), (920, 761), (917, 788), (914, 811), (910, 842), (908, 852), (907, 863), (906, 873), (901, 893), (901, 904), (901, 913), (901, 923), (899, 941)]",98.64950593144962,"[8, 3, 4, 1, 6, 7, 2, 5, 9]","(0, 0.25)",THI005C,THI,C,English,Thu Aug 23 13:12:19 2018,Mouse
1,2,3,0,39,3,3,1,2047,1827,220,139,0,500,200,8000,"[(960, 540), (960, 540), (960, 540), (960, 540), (960, 540), (960, 540), (960, 540), (960, 540), (960, 540), (960, 540), (960, 540), (960, 540), (960, 540), (960, 540), (960, 540), (960, 540), (960, 540), (960, 540), (960, 540), (960, 540), (960, 540), (960, 540), (960, 540), (960, 540), (960, 540), (960, 540), (960, 540), (960, 540), (960, 540), (960, 540), (960, 540), (960, 540), (960, 540), (960, 540), (960, 540), (960, 540), (960, 540), (960, 540), (960, 540), (960, 540), (960, 540), (960, 540), (960, 540), (960, 540), (960, 540), (960, 540), (960, 540), (960, 540), (960, 540), (960, 540), (960, 540), (960, 540), (960, 540), (960, 540), (960, 540), (960, 540), (960, 540), (960, 540), (960, 540), (960, 540), (960, 540), (960, 540), (960, 540), (960, 540), (960, 540), (960, 540), (960, 540), (960, 540), (960, 540), (960, 540), (960, 540), (960, 540), (960, 540), (960, 540), (960, 540), (960, 540), (960, 540), (960, 540), (960, 540), (960, 540), (960, 540), (960, 540), (960, 540), (960, 540), (960, 540), (960, 540), (960, 540), (960, 540), (960, 540), (960, 540), (960, 540), (960, 540), (960, 540), (960, 540), (960, 540), (960, 540), (960, 540), (960, 540), (960, 540), (960, 540), (960, 540), (960, 540), (960, 540), (960, 540), (960, 540), (960, 540), (960, 540), (960, 540), (960, 540), (960, 540), (960, 540), (960, 540), (960, 540), (960, 540), (960, 540), (960, 540), (960, 540), (960, 540), (960, 540), (960, 540), (960, 540), (960, 540), (960, 540), (960, 540), (960, 540), (960, 540), (960, 540), (960, 540), (960, 540), (960, 540), (960, 540), (960, 540), (960, 540), (960, 540), (960, 540), (960, 540), (960, 540), (960, 540), (960, 540), (960, 540), (960, 540), (960, 540), (960, 540), (960, 540), (960, 540), (960, 540), (960, 540), (960, 540), (960, 540), (960, 540), (960, 540), (960, 540), (960, 540), (960, 540), (960, 540), (960, 540), (960, 540), (960, 540), (960, 540), (960, 540), (960, 540), (960, 540), (960, 540), (960, 540), (960, 540), (960, 540), (960, 540), (960, 540), (960, 540), (960, 540), (960, 540), (960, 540), (960, 540), (960, 540), (960, 540), (960, 540), (960, 540), (960, 540), (960, 540), (960, 540), (960, 540), (960, 540), (962, 540), (969, 542), (978, 548), (987, 555), (1004, 573), (1012, 586), (1027, 608), (1034, 624), (1054, 656), (1061, 676), (1069, 692), (1076, 712), (1090, 747), (1097, 766), (1102, 783), (1109, 800), (1121, 835), (1125, 850), (1130, 862), (1133, 871), (1141, 885), (1145, 892), (1148, 896)]",62.161918802865294,"[8, 3, 4, 1, 6, 7, 2, 5, 9]","(0, 0.25)",THI005C,THI,C,English,Thu Aug 23 13:12:19 2018,Mouse
1,2,3,0,40,9,9,1,490,260,230,139,0,500,200,8000,"[(960, 540), (960, 540), (960, 540), (960, 540), (960, 540), (960, 540), (960, 540), (960, 540), (960, 540), (960, 540), (960, 540), (960, 540), (960, 540), (960, 540), (960, 540), (960, 540), (960, 540), (960, 540), (960, 540), (960, 540), (960, 540), (960, 540), (960, 540), (960, 540), (960, 540), (961, 540), (963, 540), (970, 539), (991, 533), (1001, 530), (1016, 527), (1031, 522), (1068, 516), (1095, 511), (1119, 508), (1136, 507), (1180, 497), (1199, 492), (1216, 487), (1236, 482), (1258, 474), (1270, 468), (1280, 464), (1288, 458), (1305, 448), (1314, 442), (1324, 435), (1337, 426), (1365, 413)]",342.5896056761507,"[8, 3, 4, 1, 6, 7, 2, 5, 9]","(0, 0.25)",THI005C,THI,C,English,Thu Aug 23 13:12:19 2018,Mouse
1,2,3,0,41,7,7,1,1959,1709,250,138,0,500,200,8000,"[(960, 540), (960, 540), (960, 540), (960, 540), (960, 540), (960, 540), (960, 540), (960, 540), (960, 540), (960, 540), (960, 540), (960, 540), (960, 540), (960, 540), (960, 540), (960, 540), (960, 540), (960, 540), (960, 540), (960, 540), (960, 540), (960, 540), (960, 540), (960, 540), (960, 540), (960, 540), (960, 540), (960, 540), (960, 540), (960, 540), (960, 540), (960, 540), (960, 540), (960, 540), (960, 540), (960, 540), (960, 540), (960, 540), (960, 540), (960, 540), (960, 540), (960, 540), (960, 540), (960, 540), (960, 540), (960, 540), (960, 540), (960, 540), (960, 540), (960, 540), (960, 540), (960, 540), (960, 540), (960, 540), (960, 540), (960, 540), (960, 540), (960, 540), (960, 540), (960, 540), (960, 540), (960, 540), (960, 540), (960, 540), (960, 540), (960, 540), (960, 540), (960, 540), (960, 540), (960, 540), (960, 540), (960, 540), (960, 540), (960, 540), (960, 540), (960, 540), (960, 540), (960, 540), (960, 540), (960, 540), (960, 540), (960, 540), (960, 540), (960, 540), (960, 540), (960, 540), (960, 540), (960, 540), (960, 540), (960, 540), (960, 540), (960, 540), (960, 540), (960, 540), (960, 540), (960, 540), (960, 540), (960, 540), (960, 540), (960, 540), (960, 540), (960, 540), (960, 540), (960, 540), (960, 540), (960, 540), (960, 540), (960, 540), (960, 540), (960, 540), (960, 540), (960, 540), (960, 540), (960, 540), (960, 540), (960, 540), (960, 540), (960, 540), (960, 540), (960, 540), (960, 540), (960, 540), (960, 540), (960, 540), (960, 540), (960, 540), (960, 540), (960, 540), (960, 540), (960, 540), (960, 540), (960, 540), (960, 540), (960, 540), (960, 540), (960, 540), (960, 540), (960, 540), (960, 540), (960, 540), (960, 540), (960, 540), (960, 540), (960, 540), (960, 540), (960, 540), (960, 540), (960, 540), (960, 540), (960, 540), (960, 540), (960, 540), (960, 540), (960, 540), (960, 540), (960, 540), (960, 540), (960, 540), (960, 540), (960, 540), (960, 540), (960, 540), (960, 540), (960, 540), (960, 540), (960, 540), (960, 540), (960, 540), (960, 540), (960, 540), (958, 540), (943, 537), (935, 533), (927, 531), (917, 527), (896, 516), (883, 511), (872, 504), (862, 498), (843, 487), (833, 482), (821, 475), (814, 470), (799, 461), (791, 456), (785, 449), (779, 443), (767, 429), (759, 417), (747, 402), (737, 387), (709, 355), (696, 341), (683, 328), (665, 313), (638, 287)]",218.15722658736905,"[8, 3, 4, 1, 6, 7, 2, 5, 9]","(0, 0.25)",THI005C,THI,C,English,Thu Aug 23 13:12:19 2018,Mouse
1,2,3,0,42,2,2,1,670,390,280,137,0,500,200,8000,"[(960, 540), (960, 540), (960, 540), (960, 540), (960, 540), (960, 540), (960, 540), (960, 540), (960, 540), (960, 540), (960, 540), (960, 540), (960, 540), (960, 540), (960, 540), (960, 540), (960, 540), (960, 540), (960, 540), (960, 540), (960, 540), (960, 540), (960, 540), (960, 540), (960, 540), (960, 540), (960, 540), (960, 540), (960, 540), (960, 540), (960, 540), (960, 540), (960, 540), (960, 540), (960, 540), (960, 540), (960, 540), (960, 540), (960, 534), (960, 525), (960, 517), (960, 506), (960, 479), (959, 465), (957, 452), (954, 441), (951, 418), (949, 409), (948, 398), (946, 384), (941, 356), (936, 340), (931, 326), (928, 313), (922, 288), (918, 278), (917, 268), (914, 260), (912, 246), (911, 238), (909, 228), (908, 217), (905, 192), (904, 181), (901, 169), (900, 158), (897, 139)]",261.0714018955303,"[8, 3, 4, 1, 6, 7, 2, 5, 9]","(0, 0.25)",THI005C,THI,C,English,Thu Aug 23 13:12:19 2018,Mouse
1,2,3,0,43,8,4,0,-1852,1212,640,136,0,500,200,8000,"[(960, 540), (960, 540), (960, 540), (960, 540), (960, 540), (960, 540), (960, 540), (960, 540), (960, 540), (960, 540), (960, 540), (960, 540), (960, 540), (960, 540), (960, 540), (960, 540), (960, 540), (960, 540), (960, 540), (960, 540), (960, 540), (960, 540), (960, 540), (960, 540), (960, 540), (960, 540), (960, 540), (960, 540), (960, 540), (960, 540), (960, 540), (960, 540), (960, 540), (960, 540), (960, 540), (960, 540), (960, 540), (960, 540), (960, 540), (960, 540), (960, 540), (960, 540), (960, 540), (960, 540), (960, 540), (960, 540), (960, 540), (960, 540), (960, 540), (960, 540), (960, 540), (960, 540), (960, 540), (960, 540), (960, 540), (960, 540), (960, 540), (960, 540), (960, 540), (960, 540), (960, 540), (960, 540), (960, 540), (960, 540), (960, 540), (960, 540), (960, 540), (960, 540), (960, 540), (960, 540), (960, 540), (960, 540), (960, 540), (960, 540), (960, 540), (960, 540), (960, 540), (960, 540), (960, 540), (960, 540), (960, 540), (960, 540), (960, 540), (960, 540), (960, 540), (960, 540), (960, 540), (960, 540), (960, 540), (960, 540), (960, 540), (960, 540), (960, 540), (960, 540), (960, 540), (960, 540), (960, 540), (960, 540), (960, 540), (960, 540), (960, 540), (960, 540), (960, 540), (960, 540), (960, 540), (960, 540), (960, 540), (960, 540), (960, 540), (960, 540), (960, 540), (960, 540), (960, 540), (960, 540), (960, 540), (960, 540), (960, 540), (960, 540), (960, 540), (960, 540), (960, 540), (961, 542), (963, 549), (963, 551), (964, 555), (964, 559), (965, 571), (965, 579), (965, 590), (965, 601), (964, 629), (962, 644), (957, 660), (954, 677), (946, 699), (944, 709), (940, 719), (938, 725), (933, 739), (931, 747), (929, 755), (927, 764), (922, 782), (919, 788), (917, 794), (914, 800), (912, 806), (912, 808), (910, 812), (909, 815), (909, 824), (909, 828), (909, 832), (909, 836), (909, 843), (909, 847), (909, 851), (909, 858), (909, 877), (909, 885), (909, 893), (909, 899), (909, 906), (909, 907), (909, 908), (909, 909), (909, 910), (909, 912), (909, 913), (909, 914), (909, 915), (909, 915), (909, 915), (909, 915), (909, 915), (909, 915), (909, 916), (909, 917), (909, 919), (909, 921), (908, 923), (908, 925), (906, 930), (906, 932), (906, 935), (906, 941)]",97.66950307384766,"[8, 3, 4, 1, 6, 7, 2, 5, 9]","(0, 0.25)",THI005C,THI,C,English,Thu Aug 23 13:12:19 2018,Mouse
1,2,3,0,44,1,1,1,491,31,460,137,0,500,200,8000,"[(959, 540), (959, 540), (959, 540), (957, 540), (956, 540), (955, 540), (955, 540), (954, 540), (952, 540), (952, 540), (951, 541), (949, 542), (947, 544), (943, 547), (941, 548), (936, 552), (924, 560), (918, 563), (914, 566), (909, 568), (894, 577), (887, 582), (879, 586), (872, 591), (848, 609), (834, 618), (822, 626), (812, 634), (790, 648), (780, 656), (770, 663), (758, 674), (741, 691), (736, 697), (729, 706), (723, 714), (712, 732), (708, 739), (707, 744), (704, 750), (700, 757), (697, 759), (694, 764), (691, 768), (680, 780), (678, 784), (673, 791), (669, 798), (665, 806), (663, 808)]",137.93826683706408,"[8, 3, 4, 1, 6, 7, 2, 5, 9]","(0, 0.25)",THI005C,THI,C,English,Thu Aug 23 13:12:19 2018,Mouse
1,2,3,0,45,4,4,1,780,340,440,137,0,500,200,8000,"[(960, 540), (960, 540), (960, 540), (960, 540), (960, 540), (960, 540), (960, 540), (960, 540), (960, 540), (960, 540), (960, 540), (960, 540), (960, 540), (960, 540), (960, 540), (960, 540), (960, 540), (960, 540), (960, 540), (960, 540), (960, 540), (960, 540), (960, 540), (960, 540), (960, 540), (960, 540), (960, 540), (960, 540), (960, 540), (960, 540), (960, 540), (960, 540), (960, 540), (962, 550), (964, 554), (965, 563), (965, 569), (967, 582), (969, 591), (969, 598), (970, 605), (970, 618), (970, 624), (970, 631), (970, 639), (970, 654), (970, 660), (969, 668), (969, 675), (967, 689), (964, 699), (962, 709), (959, 717), (952, 738), (950, 747), (945, 758), (940, 770), (933, 788), (930, 799), (928, 806), (924, 816), (917, 839), (914, 847), (913, 853), (910, 859), (907, 872), (905, 879), (903, 887), (901, 895), (898, 908), (894, 915), (893, 920), (892, 924), (890, 930), (889, 932), (889, 932), (889, 933), (889, 935)]",100.18992306246332,"[8, 3, 4, 1, 6, 7, 2, 5, 9]","(0, 0.25)",THI005C,THI,C,English,Thu Aug 23 13:12:19 2018,Mouse
1,2,3,0,46,5,9,0,-2200,1931,269,136,0,500,200,8000,"[(960, 540), (960, 540), (960, 540), (960, 540), (960, 540), (960, 540), (960, 540), (960, 540), (960, 540), (960, 540), (960, 540), (960, 540), (960, 540), (960, 540), (960, 540), (960, 540), (960, 540), (960, 540), (960, 540), (960, 540), (960, 540), (960, 540), (960, 540), (960, 540), (960, 540), (960, 540), (960, 540), (960, 540), (960, 540), (960, 540), (960, 540), (960, 540), (960, 540), (960, 540), (960, 540), (960, 540), (960, 540), (960, 540), (960, 540), (960, 540), (960, 540), (960, 540), (960, 540), (960, 540), (960, 540), (960, 540), (960, 540), (960, 540), (960, 540), (960, 540), (960, 540), (960, 540), (960, 540), (960, 540), (960, 540), (960, 540), (960, 540), (960, 540), (960, 540), (960, 540), (960, 540), (960, 540), (960, 540), (960, 540), (960, 540), (960, 540), (960, 540), (960, 540), (960, 540), (960, 540), (960, 540), (960, 540), (960, 540), (960, 540), (960, 540), (960, 540), (960, 540), (960, 540), (960, 540), (960, 540), (960, 540), (960, 540), (960, 540), (960, 540), (960, 540), (960, 540), (960, 540), (960, 540), (960, 540), (960, 540), (960, 540), (960, 540), (960, 540), (960, 540), (960, 540), (960, 540), (960, 540), (960, 540), (960, 540), (960, 540), (960, 540), (960, 540), (960, 540), (960, 540), (960, 540), (960, 540), (960, 540), (960, 540), (960, 540), (960, 540), (960, 540), (960, 540), (960, 540), (960, 540), (960, 540), (960, 540), (960, 540), (960, 540), (960, 540), (960, 540), (960, 540), (960, 540), (960, 540), (960, 540), (960, 540), (960, 540), (960, 540), (960, 540), (960, 540), (960, 540), (960, 540), (960, 540), (960, 540), (960, 540), (960, 540), (960, 540), (960, 540), (960, 540), (960, 540), (960, 540), (960, 540), (960, 540), (960, 540), (960, 540), (960, 540), (960, 540), (960, 540), (960, 540), (960, 540), (960, 540), (960, 540), (960, 540), (960, 540), (960, 540), (960, 540), (960, 540), (960, 540), (960, 540), (960, 540), (960, 540), (960, 540), (960, 540), (960, 540), (960, 540), (960, 540), (960, 540), (960, 540), (960, 540), (960, 540), (960, 540), (960, 540), (960, 540), (960, 540), (960, 540), (960, 540), (960, 540), (960, 540), (960, 540), (960, 540), (960, 540), (960, 540), (960, 540), (960, 540), (960, 540), (960, 540), (960, 540), (960, 540), (960, 540), (960, 540), (960, 540), (960, 540), (960, 540), (960, 540), (963, 536), (971, 533), (992, 524), (1003, 519), (1015, 514), (1026, 509), (1055, 497), (1091, 482), (1103, 476), (1115, 472), (1144, 461), (1151, 458), (1160, 453), (1167, 450), (1182, 442), (1190, 436), (1197, 431), (1202, 426), (1219, 413), (1226, 407), (1235, 402), (1245, 395), (1263, 384), (1274, 380), (1287, 373), (1300, 368), (1326, 361)]",333.93808214260093,"[8, 3, 4, 1, 6, 7, 2, 5, 9]","(0, 0.25)",THI005C,THI,C,English,Thu Aug 23 13:12:19 2018,Mouse
1,2,3,0,47,1,1,1,311,31,280,137,0,500,200,8000,"[(960, 540), (960, 540), (960, 540), (958, 542), (955, 547), (951, 554), (947, 560), (935, 575), (927, 584), (920, 591), (911, 600), (894, 621), (887, 630), (878, 644), (869, 655), (849, 679), (837, 692), (828, 701), (818, 711), (801, 726), (791, 734), (782, 740), (773, 748), (754, 762), (745, 767), (735, 775), (727, 779), (706, 791), (697, 794), (687, 798), (678, 803), (658, 808)]",138.41359827477189,"[8, 3, 4, 1, 6, 7, 2, 5, 9]","(0, 0.25)",THI005C,THI,C,English,Thu Aug 23 13:12:19 2018,Mouse
1,2,3,0,48,5,5,1,560,350,210,137,0,500,200,8000,"[(960, 540), (960, 540), (960, 540), (960, 540), (960, 540), (960, 540), (960, 540), (960, 540), (960, 540), (960, 540), (960, 540), (960, 540), (960, 540), (960, 540), (960, 540), (960, 540), (960, 540), (960, 540), (960, 540), (960, 540), (960, 540), (960, 540), (960, 540), (960, 540), (960, 540), (960, 540), (960, 540), (960, 540), (960, 540), (960, 540), (960, 540), (960, 540), (960, 540), (960, 540), (965, 534), (970, 526), (976, 517), (990, 492), (996, 481), (1008, 465), (1024, 442), (1054, 400), (1063, 384), (1070, 370), (1080, 352), (1093, 327), (1098, 315), (1101, 305), (1107, 293), (1117, 271), (1123, 258), (1127, 247), (1133, 234), (1140, 209), (1144, 196), (1151, 182)]",298.080793079534,"[8, 3, 4, 1, 6, 7, 2, 5, 9]","(0, 0.25)",THI005C,THI,C,English,Thu Aug 23 13:12:19 2018,Mouse
1,2,3,0,49,6,6,1,492,202,290,136,0,500,200,8000,"[(960, 540), (960, 540), (960, 540), (960, 540), (960, 540), (960, 540), (960, 540), (960, 540), (960, 540), (960, 540), (960, 540), (960, 540), (960, 540), (960, 540), (960, 540), (960, 540), (960, 540), (960, 540), (960, 540), (960, 540), (958, 540), (944, 543), (933, 544), (922, 544), (907, 544), (879, 544), (864, 544), (849, 544), (834, 544), (809, 544), (798, 543), (789, 543), (778, 540), (758, 537), (750, 536), (739, 535), (727, 534), (703, 529), (692, 528), (678, 526), (667, 526), (648, 526), (639, 526), (629, 526), (618, 526), (597, 526), (586, 526), (575, 526), (568, 526), (554, 526)]",181.97493401088198,"[8, 3, 4, 1, 6, 7, 2, 5, 9]","(0, 0.25)",THI005C,THI,C,English,Thu Aug 23 13:12:19 2018,Mouse
1,2,3,0,50,4,4,1,1071,841,230,135,0,500,200,8000,"[(960, 540), (960, 540), (960, 540), (960, 540), (960, 540), (960, 540), (960, 540), (960, 540), (960, 540), (960, 540), (960, 540), (960, 540), (960, 540), (960, 540), (960, 540), (960, 540), (960, 540), (960, 540), (960, 540), (960, 540), (960, 540), (960, 540), (960, 540), (960, 540), (960, 540), (960, 540), (960, 540), (960, 540), (960, 540), (960, 540), (960, 540), (960, 540), (960, 540), (960, 540), (960, 540), (960, 540), (960, 540), (960, 540), (960, 540), (960, 540), (960, 540), (960, 540), (960, 540), (960, 540), (960, 540), (960, 540), (960, 540), (960, 540), (960, 540), (960, 540), (960, 540), (960, 540), (960, 540), (960, 540), (960, 540), (960, 540), (960, 540), (960, 540), (960, 540), (960, 540), (960, 540), (960, 540), (960, 540), (960, 540), (960, 540), (960, 540), (960, 540), (960, 540), (960, 540), (960, 540), (960, 540), (960, 540), (960, 540), (960, 540), (960, 540), (960, 540), (960, 540), (960, 540), (960, 540), (960, 540), (960, 540), (960, 540), (960, 540), (960, 540), (961, 551), (961, 569), (961, 600), (961, 664), (961, 692), (961, 720), (960, 751), (949, 790), (947, 804), (940, 819), (936, 830), (926, 851), (924, 860), (921, 866), (920, 871), (917, 886), (916, 891), (915, 897), (914, 905), (909, 921), (906, 927), (906, 929), (904, 934), (900, 941)]",98.50980374032982,"[8, 3, 4, 1, 6, 7, 2, 5, 9]","(0, 0.25)",THI005C,THI,C,English,Thu Aug 23 13:12:19 2018,Mouse
1,2,3,0,51,3,4,0,-2570,2230,340,134,0,500,200,8000,"[(960, 540), (960, 540), (960, 540), (960, 540), (960, 540), (960, 540), (960, 540), (960, 540), (960, 540), (960, 540), (960, 540), (960, 540), (960, 540), (960, 540), (960, 540), (960, 540), (960, 540), (960, 540), (960, 540), (960, 540), (960, 540), (960, 540), (960, 540), (960, 540), (960, 540), (960, 540), (960, 540), (960, 540), (960, 540), (960, 540), (960, 540), (960, 540), (960, 540), (960, 540), (960, 540), (960, 540), (960, 540), (960, 540), (960, 540), (960, 540), (960, 540), (960, 540), (960, 540), (960, 540), (960, 540), (960, 540), (960, 540), (960, 540), (960, 540), (960, 540), (960, 540), (960, 540), (960, 540), (960, 540), (960, 540), (960, 540), (960, 540), (960, 540), (960, 540), (960, 540), (960, 540), (960, 540), (960, 540), (960, 540), (960, 540), (960, 540), (960, 540), (960, 540), (960, 540), (960, 540), (960, 540), (960, 540), (960, 540), (960, 540), (960, 540), (960, 540), (960, 540), (960, 540), (960, 540), (960, 540), (960, 540), (960, 540), (960, 540), (960, 540), (960, 540), (960, 540), (960, 540), (960, 540), (960, 540), (960, 540), (960, 540), (960, 540), (960, 540), (960, 540), (960, 540), (960, 540), (960, 540), (960, 540), (960, 540), (960, 540), (960, 540), (960, 540), (960, 540), (960, 540), (960, 540), (960, 540), (960, 540), (960, 540), (960, 540), (960, 540), (960, 540), (960, 540), (960, 540), (960, 540), (960, 540), (960, 540), (960, 540), (960, 540), (960, 540), (960, 540), (960, 540), (960, 540), (960, 540), (960, 540), (960, 540), (960, 540), (960, 540), (960, 540), (960, 540), (960, 540), (960, 540), (960, 540), (960, 540), (960, 540), (960, 540), (960, 540), (960, 540), (960, 540), (960, 540), (960, 540), (960, 540), (960, 540), (960, 540), (960, 540), (960, 540), (960, 540), (960, 540), (960, 540), (960, 540), (960, 540), (960, 540), (960, 540), (960, 540), (960, 540), (960, 540), (960, 540), (960, 540), (960, 540), (960, 540), (960, 540), (960, 540), (960, 540), (960, 540), (960, 540), (960, 540), (960, 540), (960, 540), (960, 540), (960, 540), (960, 540), (960, 540), (960, 540), (960, 540), (960, 540), (960, 540), (960, 540), (960, 540), (960, 540), (960, 540), (960, 540), (960, 540), (960, 540), (960, 540), (960, 540), (960, 540), (960, 540), (960, 540), (960, 540), (960, 540), (960, 540), (960, 540), (960, 540), (960, 540), (960, 540), (960, 540), (960, 540), (960, 540), (960, 540), (960, 540), (960, 540), (960, 540), (960, 540), (960, 540), (960, 540), (960, 540), (960, 540), (960, 540), (960, 540), (960, 540), (960, 540), (960, 540), (960, 540), (960, 540), (960, 540), (960, 540), (960, 540), (960, 540), (960, 540), (960, 540), (960, 540), (960, 540), (960, 540), (964, 581), (967, 602), (967, 627), (967, 650), (967, 686), (967, 703), (967, 723), (967, 737), (966, 770), (965, 782), (961, 796), (960, 806), (956, 826), (955, 836), (954, 842), (950, 848), (947, 854), (947, 854), (946, 855), (946, 855), (946, 855), (946, 855), (946, 855), (946, 855), (946, 856), (946, 857), (944, 862), (943, 868), (940, 884), (938, 889), (937, 898), (936, 908), (929, 927), (928, 936), (927, 941)]",94.70451294028969,"[8, 3, 4, 1, 6, 7, 2, 5, 9]","(0, 0.25)",THI005C,THI,C,English,Thu Aug 23 13:12:19 2018,Mouse
1,2,3,0,52,6,6,1,2709,1759,950,135,0,500,200,8000,"[(960, 540), (960, 540), (960, 540), (960, 540), (960, 540), (960, 540), (960, 540), (960, 540), (960, 540), (960, 540), (960, 540), (960, 540), (960, 540), (960, 540), (960, 540), (960, 540), (960, 540), (960, 540), (960, 540), (960, 540), (960, 540), (960, 540), (960, 540), (960, 540), (960, 540), (960, 540), (960, 540), (960, 540), (960, 540), (960, 540), (960, 540), (960, 540), (960, 540), (960, 540), (960, 540), (960, 540), (960, 540), (960, 540), (960, 540), (960, 540), (960, 540), (960, 540), (960, 540), (960, 540), (960, 540), (960, 540), (960, 540), (960, 540), (960, 540), (960, 540), (960, 540), (960, 540), (960, 540), (960, 540), (960, 540), (960, 540), (960, 540), (960, 540), (960, 540), (960, 540), (960, 540), (960, 540), (960, 540), (960, 540), (960, 540), (960, 540), (960, 540), (960, 540), (960, 540), (960, 540), (960, 540), (960, 540), (960, 540), (960, 540), (960, 540), (960, 540), (960, 540), (960, 540), (960, 540), (960, 540), (960, 540), (960, 540), (960, 540), (960, 540), (960, 540), (960, 540), (960, 540), (960, 540), (960, 540), (960, 540), (960, 540), (960, 540), (960, 540), (960, 540), (960, 540), (960, 540), (960, 540), (960, 540), (960, 540), (960, 540), (960, 540), (960, 540), (960, 540), (960, 540), (960, 540), (960, 540), (960, 540), (960, 540), (960, 540), (960, 540), (960, 540), (960, 540), (960, 540), (960, 540), (960, 540), (960, 540), (960, 540), (960, 540), (960, 540), (960, 540), (960, 540), (960, 540), (960, 540), (960, 540), (960, 540), (960, 540), (960, 540), (960, 540), (960, 540), (960, 540), (960, 540), (960, 540), (960, 540), (960, 540), (960, 540), (960, 540), (960, 540), (960, 540), (960, 540), (960, 540), (960, 540), (960, 540), (960, 540), (960, 540), (960, 540), (960, 540), (960, 540), (960, 540), (960, 540), (960, 540), (960, 540), (960, 540), (960, 540), (960, 540), (960, 540), (960, 540), (960, 540), (960, 540), (960, 540), (960, 540), (960, 540), (960, 540), (960, 540), (960, 540), (960, 540), (960, 540), (960, 540), (960, 540), (960, 540), (960, 540), (960, 540), (960, 540), (960, 540), (960, 540), (960, 540), (960, 539), (960, 539), (959, 539), (959, 539), (959, 539), (959, 539), (959, 539), (959, 539), (959, 539), (959, 539), (959, 539), (959, 539), (959, 539), (959, 539), (959, 539), (959, 539), (959, 539), (959, 539), (959, 539), (959, 539), (959, 539), (959, 539), (959, 539), (959, 539), (959, 539), (959, 539), (959, 539), (959, 539), (959, 539), (959, 539), (959, 539), (959, 539), (959, 539), (959, 539), (959, 539), (959, 539), (959, 539), (959, 539), (959, 539), (959, 539), (959, 539), (959, 539), (959, 539), (959, 539), (959, 539), (959, 539), (959, 539), (959, 539), (959, 539), (959, 539), (959, 539), (959, 539), (959, 539), (959, 539), (959, 539), (959, 539), (959, 539), (959, 539), (959, 539), (959, 539), (959, 539), (959, 539), (959, 539), (959, 539), (959, 539), (959, 539), (959, 539), (959, 539), (959, 539), (959, 539), (959, 539), (959, 539), (959, 539), (959, 539), (955, 539), (947, 539), (937, 539), (926, 539), (901, 539), (887, 539), (874, 539), (857, 539), (822, 539), (809, 539), (797, 540), (786, 541), (760, 544), (746, 544), (731, 544), (710, 544), (663, 544), (643, 544), (623, 546), (601, 550), (570, 554), (553, 554)]",178.0299145783857,"[8, 3, 4, 1, 6, 7, 2, 5, 9]","(0, 0.25)",THI005C,THI,C,English,Thu Aug 23 13:12:19 2018,Mouse
1,2,3,0,53,4,4,1,692,362,330,135,0,500,200,8000,"[(960, 540), (960, 540), (960, 540), (960, 540), (960, 540), (960, 540), (960, 540), (960, 540), (960, 540), (960, 540), (960, 540), (960, 540), (960, 540), (960, 540), (960, 540), (960, 540), (960, 540), (960, 540), (960, 540), (960, 540), (960, 540), (960, 540), (960, 540), (960, 540), (960, 540), (960, 540), (960, 540), (960, 540), (960, 540), (960, 540), (960, 540), (960, 540), (960, 540), (960, 540), (960, 540), (960, 540), (962, 541), (963, 549), (963, 554), (964, 561), (964, 568), (964, 589), (964, 601), (964, 612), (964, 624), (957, 654), (955, 668), (951, 680), (949, 690), (944, 708), (940, 718), (938, 729), (937, 743), (933, 769), (929, 782), (928, 793), (926, 803), (918, 822), (915, 832), (911, 844), (909, 853), (905, 870), (902, 875), (901, 879), (900, 884), (899, 893), (896, 900), (894, 910), (891, 922), (889, 944)]",99.96752240136328,"[8, 3, 4, 1, 6, 7, 2, 5, 9]","(0, 0.25)",THI005C,THI,C,English,Thu Aug 23 13:12:19 2018,Mouse
1,2,3,0,54,9,1,0,-580,340,240,134,0,500,200,8000,"[(960, 540), (960, 540), (960, 540), (960, 540), (960, 540), (960, 540), (960, 540), (960, 540), (960, 540), (960, 540), (960, 540), (960, 540), (960, 540), (960, 540), (960, 540), (960, 540), (960, 540), (960, 540), (960, 540), (960, 540), (960, 540), (960, 540), (960, 540), (960, 540), (960, 540), (960, 540), (960, 540), (960, 540), (960, 540), (960, 540), (960, 540), (960, 540), (960, 540), (958, 540), (937, 552), (924, 559), (908, 569), (891, 578), (851, 601), (833, 609), (808, 624), (792, 634), (759, 652), (748, 659), (736, 667), (727, 675), (704, 692), (695, 699), (684, 707), (677, 714), (663, 727), (657, 733), (652, 739), (647, 744), (637, 756), (633, 762), (632, 764), (629, 770)]",145.20595223547494,"[8, 3, 4, 1, 6, 7, 2, 5, 9]","(0, 0.25)",THI005C,THI,C,English,Thu Aug 23 13:12:19 2018,Mouse
1,2,3,0,55,2,2,1,750,360,390,135,0,500,200,8000,"[(960, 540), (960, 540), (960, 540), (960, 540), (960, 540), (960, 540), (960, 540), (960, 540), (960, 540), (960, 540), (960, 540), (960, 540), (960, 540), (960, 540), (960, 540), (960, 540), (960, 540), (960, 540), (960, 540), (960, 540), (960, 540), (960, 540), (960, 540), (960, 540), (960, 540), (960, 540), (960, 540), (960, 540), (960, 540), (960, 540), (960, 540), (960, 540), (960, 540), (960, 540), (960, 540), (959, 531), (957, 522), (953, 513), (951, 503), (946, 489), (943, 483), (943, 477), (941, 473), (937, 463), (937, 460), (934, 455), (933, 451), (929, 435), (929, 424), (929, 415), (929, 404), (929, 390), (929, 383), (929, 372), (929, 363), (929, 345), (926, 334), (924, 320), (923, 308), (920, 283), (919, 274), (919, 263), (919, 252), (919, 234), (919, 224), (919, 214), (918, 205), (913, 191), (911, 184), (910, 178), (908, 171), (905, 159), (903, 151), (901, 145), (898, 139)]",261.21089543369,"[8, 3, 4, 1, 6, 7, 2, 5, 9]","(0, 0.25)",THI005C,THI,C,English,Thu Aug 23 13:12:19 2018,Mouse
1,2,3,0,56,1,1,1,830,120,710,135,0,500,200,8000,"[(960, 540), (960, 540), (960, 540), (960, 540), (960, 540), (960, 540), (960, 540), (960, 540), (960, 540), (960, 540), (960, 540), (960, 542), (960, 543), (959, 544), (958, 545), (958, 545), (958, 546), (958, 546), (958, 546), (958, 548), (958, 548), (958, 548), (958, 548), (958, 548), (958, 548), (958, 548), (958, 548), (958, 548), (957, 549), (957, 549), (957, 549), (957, 549), (957, 549), (957, 549), (957, 549), (957, 549), (957, 549), (957, 549), (957, 549), (957, 549), (957, 549), (957, 549), (957, 549), (957, 549), (957, 549), (957, 549), (957, 549), (957, 549), (957, 549), (957, 550), (956, 552), (956, 552), (956, 552), (956, 552), (956, 553), (955, 555), (954, 555), (953, 557), (952, 560), (947, 567), (944, 571), (937, 578), (932, 584), (918, 599), (907, 611), (895, 626), (881, 642), (851, 677), (837, 693), (822, 710), (810, 725), (787, 751), (778, 761), (771, 770), (765, 778), (748, 790), (743, 795), (737, 801), (730, 808), (720, 823), (712, 830), (705, 838), (699, 846)]",130.46222749209338,"[8, 3, 4, 1, 6, 7, 2, 5, 9]","(0, 0.25)",THI005C,THI,C,English,Thu Aug 23 13:12:19 2018,Mouse
1,2,3,0,57,6,6,1,2860,2560,300,134,0,500,200,8000,"[(960, 540), (960, 540), (960, 540), (960, 540), (960, 540), (960, 540), (960, 540), (960, 540), (960, 540), (960, 540), (960, 540), (960, 540), (960, 540), (960, 540), (960, 540), (960, 540), (960, 540), (960, 540), (960, 540), (960, 540), (960, 540), (960, 540), (960, 540), (960, 540), (960, 540), (960, 540), (960, 540), (960, 540), (960, 540), (960, 540), (960, 540), (960, 540), (960, 540), (960, 540), (960, 540), (960, 540), (960, 540), (960, 540), (960, 540), (960, 540), (960, 540), (960, 540), (960, 540), (960, 540), (960, 540), (960, 540), (960, 540), (960, 540), (960, 540), (960, 540), (960, 540), (960, 540), (960, 540), (960, 540), (960, 540), (960, 540), (960, 540), (960, 540), (960, 540), (960, 540), (960, 540), (960, 540), (960, 540), (960, 540), (960, 540), (960, 540), (960, 540), (960, 540), (960, 540), (960, 540), (960, 540), (960, 540), (960, 540), (960, 540), (960, 540), (960, 540), (960, 540), (960, 540), (960, 540), (960, 540), (960, 540), (960, 540), (960, 540), (960, 540), (960, 540), (960, 540), (960, 540), (960, 540), (960, 540), (960, 540), (960, 540), (960, 540), (960, 540), (960, 540), (960, 540), (960, 540), (960, 540), (960, 540), (960, 540), (960, 540), (960, 540), (960, 540), (960, 540), (960, 540), (960, 540), (960, 540), (960, 540), (960, 540), (960, 540), (960, 540), (960, 540), (960, 540), (960, 540), (960, 540), (960, 540), (960, 540), (960, 540), (960, 540), (960, 540), (960, 540), (960, 540), (960, 540), (960, 540), (960, 540), (960, 540), (960, 540), (960, 540), (960, 540), (960, 540), (960, 540), (960, 540), (960, 540), (960, 540), (960, 540), (960, 540), (960, 540), (960, 540), (960, 540), (960, 540), (960, 540), (960, 540), (960, 540), (960, 540), (960, 540), (960, 540), (960, 540), (960, 540), (960, 540), (960, 540), (960, 540), (960, 540), (960, 540), (960, 540), (960, 540), (960, 540), (960, 540), (960, 540), (960, 540), (960, 540), (960, 540), (960, 540), (960, 540), (960, 540), (960, 540), (960, 540), (960, 540), (960, 540), (960, 540), (960, 540), (960, 540), (960, 540), (960, 540), (960, 540), (960, 540), (960, 540), (960, 540), (960, 540), (960, 540), (960, 540), (960, 540), (960, 540), (960, 540), (960, 540), (960, 540), (960, 540), (960, 540), (960, 540), (960, 540), (960, 540), (960, 540), (960, 540), (960, 540), (960, 540), (960, 540), (960, 540), (960, 540), (960, 540), (960, 540), (960, 540), (960, 540), (960, 540), (960, 540), (960, 540), (960, 540), (960, 540), (960, 540), (960, 540), (960, 540), (960, 540), (960, 540), (960, 540), (960, 540), (960, 540), (960, 540), (960, 540), (960, 540), (960, 540), (960, 540), (960, 540), (960, 540), (960, 540), (960, 540), (960, 540), (960, 540), (960, 540), (960, 540), (960, 540), (960, 540), (960, 540), (960, 540), (960, 540), (960, 540), (960, 540), (960, 540), (960, 540), (960, 540), (960, 540), (960, 540), (960, 540), (960, 540), (960, 540), (960, 540), (960, 540), (960, 540), (960, 540), (960, 540), (960, 540), (960, 540), (960, 540), (960, 540), (960, 540), (960, 540), (960, 540), (960, 540), (960, 540), (956, 539), (907, 529), (878, 524), (854, 521), (837, 521), (792, 521), (764, 521), (742, 521), (727, 521), (704, 521), (696, 521), (689, 521), (682, 523), (668, 524), (657, 527), (647, 529), (636, 530), (619, 532), (610, 535), (605, 536), (602, 537), (596, 538), (594, 538), (592, 538), (591, 538), (587, 539), (584, 540), (579, 540), (575, 540), (565, 540), (560, 540)]",180.0,"[8, 3, 4, 1, 6, 7, 2, 5, 9]","(0, 0.25)",THI005C,THI,C,English,Thu Aug 23 13:12:19 2018,Mouse
1,2,3,0,58,6,1,0,-492,292,200,133,0,500,200,8000,"[(960, 540), (960, 540), (960, 540), (960, 540), (960, 540), (960, 540), (960, 540), (960, 540), (960, 540), (960, 540), (960, 540), (960, 540), (960, 540), (960, 540), (960, 540), (960, 540), (960, 540), (960, 540), (960, 540), (960, 540), (960, 540), (960, 540), (960, 540), (960, 540), (960, 540), (960, 540), (960, 540), (960, 540), (960, 540), (936, 555), (912, 568), (886, 579), (856, 593), (809, 615), (791, 624), (772, 632), (757, 640), (729, 657), (715, 668), (706, 675), (696, 681), (675, 696), (665, 702), (655, 706), (642, 713), (623, 724), (620, 726), (616, 730), (612, 732), (602, 739)]",150.93180904333713,"[8, 3, 4, 1, 6, 7, 2, 5, 9]","(0, 0.25)",THI005C,THI,C,English,Thu Aug 23 13:12:19 2018,Mouse
1,2,3,0,59,7,7,1,890,310,580,134,0,500,200,8000,"[(960, 540), (960, 540), (960, 540), (960, 540), (960, 540), (960, 540), (960, 540), (960, 540), (960, 540), (960, 540), (960, 540), (960, 540), (960, 540), (960, 540), (960, 540), (960, 540), (960, 540), (960, 540), (960, 540), (960, 540), (960, 540), (960, 540), (960, 540), (960, 540), (960, 540), (960, 540), (960, 540), (960, 540), (960, 540), (960, 540), (961, 538), (962, 531), (962, 522), (962, 517), (963, 504), (963, 499), (963, 493), (963, 488), (963, 477), (963, 471), (962, 466), (961, 463), (959, 454), (956, 449), (955, 444), (954, 438), (950, 429), (950, 424), (948, 420), (947, 416), (946, 411), (945, 409), (945, 408), (945, 406), (944, 406), (944, 406), (944, 406), (944, 406), (944, 406), (944, 406), (944, 406), (944, 406), (943, 405), (941, 403), (938, 402), (933, 399), (917, 390), (908, 385), (897, 380), (880, 374), (852, 361), (841, 359), (828, 355), (817, 349), (799, 341), (791, 336), (783, 331), (777, 325), (762, 314), (756, 309), (749, 304), (742, 300), (725, 288), (718, 282), (710, 277), (703, 272), (688, 261), (682, 257), (677, 254)]",225.30208391184797,"[8, 3, 4, 1, 6, 7, 2, 5, 9]","(0, 0.25)",THI005C,THI,C,English,Thu Aug 23 13:12:19 2018,Mouse
1,2,3,0,60,7,9,0,-1310,970,340,134,0,500,200,8000,"[(960, 540), (960, 540), (960, 540), (960, 540), (960, 540), (960, 540), (960, 540), (960, 540), (960, 540), (960, 540), (960, 540), (960, 540), (960, 540), (960, 540), (960, 540), (960, 540), (960, 540), (960, 540), (960, 540), (960, 540), (960, 540), (960, 540), (960, 540), (960, 540), (960, 540), (960, 540), (960, 540), (960, 540), (960, 540), (960, 540), (960, 540), (960, 540), (960, 540), (960, 540), (960, 540), (960, 540), (960, 540), (960, 540), (960, 540), (960, 540), (960, 540), (960, 540), (960, 540), (960, 540), (960, 540), (960, 540), (960, 540), (960, 540), (960, 540), (960, 540), (960, 540), (960, 540), (960, 540), (960, 540), (960, 540), (960, 540), (960, 540), (960, 540), (960, 540), (960, 540), (960, 540), (960, 540), (960, 540), (960, 540), (960, 540), (960, 540), (960, 540), (960, 540), (960, 540), (960, 540), (960, 540), (960, 540), (960, 540), (960, 540), (960, 540), (960, 540), (960, 540), (960, 540), (960, 540), (960, 540), (960, 540), (960, 540), (960, 540), (960, 540), (960, 540), (960, 540), (960, 540), (960, 540), (960, 540), (960, 540), (960, 540), (960, 540), (960, 540), (960, 540), (960, 540), (960, 540), (962, 540), (964, 540), (970, 540), (980, 540), (1000, 540), (1010, 538), (1021, 537), (1032, 536), (1043, 534), (1046, 533), (1050, 533), (1052, 533), (1058, 530), (1061, 529), (1068, 526), (1077, 522), (1099, 512), (1111, 507), (1125, 501), (1136, 498), (1160, 489), (1173, 484), (1181, 482), (1191, 478), (1213, 466), (1228, 459), (1239, 452), (1252, 443), (1276, 431), (1287, 425), (1296, 421), (1307, 416), (1323, 408), (1332, 403), (1338, 399)]",339.54368623672195,"[8, 3, 4, 1, 6, 7, 2, 5, 9]","(0, 0.25)",THI005C,THI,C,English,Thu Aug 23 13:12:19 2018,Mouse
1,2,3,0,61,8,8,1,1770,550,1220,135,0,500,200,8000,"[(960, 540), (960, 540), (960, 540), (960, 540), (960, 540), (960, 540), (960, 540), (960, 540), (960, 540), (960, 540), (960, 540), (960, 540), (960, 540), (960, 540), (960, 540), (960, 540), (960, 540), (960, 540), (960, 540), (960, 540), (960, 540), (960, 540), (960, 540), (960, 540), (960, 540), (960, 540), (960, 540), (960, 540), (960, 540), (960, 540), (960, 540), (960, 540), (960, 540), (960, 540), (960, 540), (960, 540), (960, 540), (960, 540), (960, 540), (960, 540), (960, 540), (960, 540), (960, 540), (960, 540), (960, 540), (960, 540), (960, 540), (960, 540), (960, 540), (960, 540), (960, 540), (960, 540), (960, 540), (960, 540), (959, 541), (959, 545), (954, 570), (951, 581), (947, 596), (942, 610), (939, 624), (937, 628), (936, 629), (936, 630), (936, 630), (936, 630), (936, 630), (936, 630), (936, 630), (936, 630), (936, 630), (936, 630), (936, 630), (936, 630), (936, 630), (936, 630), (936, 630), (936, 630), (936, 630), (936, 630), (936, 630), (936, 630), (936, 630), (936, 630), (936, 630), (936, 630), (936, 630), (936, 630), (936, 630), (936, 630), (936, 630), (936, 630), (936, 630), (936, 630), (936, 630), (936, 630), (936, 630), (936, 630), (936, 630), (936, 630), (936, 630), (936, 630), (936, 630), (936, 630), (936, 630), (936, 630), (936, 630), (936, 630), (936, 630), (936, 630), (936, 630), (936, 630), (936, 630), (936, 630), (936, 630), (936, 630), (936, 630), (936, 630), (936, 630), (936, 630), (936, 630), (936, 630), (936, 630), (936, 630), (936, 630), (936, 630), (936, 630), (936, 630), (936, 630), (936, 630), (936, 630), (936, 630), (936, 630), (936, 630), (936, 630), (936, 630), (936, 630), (936, 630), (936, 630), (936, 630), (936, 630), (936, 630), (936, 630), (936, 630), (936, 630), (936, 630), (936, 630), (936, 630), (936, 630), (936, 630), (936, 630), (936, 630), (936, 630), (936, 630), (941, 630), (952, 630), (984, 630), (1001, 630), (1023, 630), (1048, 630), (1104, 630), (1129, 630), (1146, 630), (1160, 630), (1178, 633), (1182, 633), (1188, 634), (1196, 635), (1210, 636), (1217, 638), (1226, 639), (1237, 640), (1261, 645), (1276, 646), (1294, 650), (1312, 652), (1345, 660)]",17.31164610884658,"[8, 3, 4, 1, 6, 7, 2, 5, 9]","(0, 0.25)",THI005C,THI,C,English,Thu Aug 23 13:12:19 2018,Mouse
1,2,3,0,62,5,4,0,-809,559,250,135,0,500,200,8000,"[(960, 540), (960, 540), (960, 540), (960, 540), (960, 540), (960, 540), (960, 540), (960, 540), (960, 540), (960, 540), (960, 540), (960, 540), (960, 540), (960, 540), (960, 540), (960, 540), (960, 540), (960, 540), (960, 540), (960, 540), (960, 540), (960, 540), (960, 540), (960, 540), (960, 540), (960, 540), (960, 540), (960, 540), (960, 540), (960, 540), (960, 540), (960, 540), (960, 540), (960, 540), (960, 540), (960, 540), (960, 540), (960, 540), (960, 540), (960, 540), (960, 540), (960, 540), (960, 540), (960, 540), (960, 540), (960, 540), (960, 540), (960, 540), (960, 540), (960, 540), (960, 540), (960, 540), (960, 540), (960, 540), (960, 540), (958, 539), (956, 543), (955, 551), (954, 562), (947, 592), (943, 611), (940, 638), (935, 667), (928, 715), (925, 734), (924, 751), (919, 766), (915, 785), (912, 796), (908, 809), (907, 820), (902, 842), (902, 850), (899, 859), (897, 867), (893, 882), (890, 890), (887, 900), (885, 910), (880, 926), (876, 933)]",102.06488441052542,"[8, 3, 4, 1, 6, 7, 2, 5, 9]","(0, 0.25)",THI005C,THI,C,English,Thu Aug 23 13:12:19 2018,Mouse
1,2,3,0,63,7,7,1,820,490,330,136,0,500,200,8000,"[(960, 540), (960, 540), (960, 540), (960, 540), (960, 540), (960, 540), (960, 540), (960, 540), (960, 540), (960, 540), (960, 540), (960, 540), (960, 540), (960, 540), (960, 540), (960, 540), (960, 540), (960, 540), (960, 540), (960, 540), (960, 540), (960, 540), (960, 540), (960, 540), (960, 540), (960, 540), (960, 540), (960, 540), (960, 540), (960, 540), (960, 540), (960, 540), (960, 540), (960, 540), (960, 540), (960, 540), (960, 540), (960, 540), (960, 540), (960, 540), (960, 540), (960, 540), (960, 540), (960, 540), (960, 540), (960, 540), (960, 540), (960, 540), (960, 538), (958, 530), (955, 523), (949, 518), (941, 513), (930, 505), (925, 501), (920, 498), (918, 496), (916, 495), (915, 493), (914, 493), (913, 491), (909, 487), (905, 483), (903, 480), (900, 476), (894, 469), (891, 465), (887, 461), (884, 458), (874, 447), (867, 439), (856, 427), (843, 415), (820, 399), (805, 387), (777, 368), (749, 346), (706, 317), (687, 305), (670, 294), (654, 286), (616, 264)]",218.74096369487773,"[8, 3, 4, 1, 6, 7, 2, 5, 9]","(0, 0.25)",THI005C,THI,C,English,Thu Aug 23 13:12:19 2018,Mouse
