NativeLangNumber,LanuageNumber,SessionNumber,Block,TrialNum,ConditionNumber,Response,Accuracy,RT,MovementOnsetTime,TimeInMotion,SignalContrast,SignalContrastNumber,StimDisplayTime,MaskTime,MaxResponseTime,MousePositionXY,MouseAngle,WheelOrder,NoiseMuSigma,ParticipantID,LanuageTested,SessionTested,NativeLanuage,Date,ResponseDevice
2,2,2,0,1,2,2,1,665,475,190,153,0,500,200,8000,"[(512, 384), (512, 384), (512, 384), (512, 384), (512, 384), (512, 384), (512, 384), (512, 384), (512, 384), (512, 384), (512, 384), (512, 384), (512, 384), (512, 384), (512, 384), (512, 384), (512, 384), (512, 384), (512, 384), (512, 384), (512, 384), (512, 384), (512, 384), (512, 384), (512, 384), (512, 384), (512, 384), (512, 384), (512, 384), (512, 384), (512, 384), (512, 384), (512, 384), (512, 384), (512, 384), (512, 384), (512, 384), (512, 384), (512, 384), (512, 384), (512, 384), (512, 384), (512, 384), (512, 384), (512, 384), (512, 384), (512, 384), (511, 385), (505, 385), (497, 385), (471, 385), (455, 385), (441, 385), (429, 385), (402, 385), (389, 385), (379, 385), (364, 385), (342, 385), (335, 385), (326, 385), (316, 385), (297, 385), (289, 385), (279, 385), (272, 385), (252, 385)]",179.77963270387684,"[1, 6, 3, 4, 2, 5, 7, 9, 8]","(0, 0.25)",THI001B,THI,B,Chinese,Mon Aug 20 15:40:03 2018,Mouse
2,2,2,0,2,3,3,1,802,652,150,153,0,500,200,8000,"[(512, 384), (512, 384), (512, 384), (512, 384), (512, 384), (512, 384), (512, 384), (512, 384), (512, 384), (512, 384), (512, 384), (512, 384), (512, 384), (512, 384), (512, 384), (512, 384), (512, 384), (512, 384), (512, 384), (512, 384), (512, 384), (512, 384), (512, 384), (512, 384), (512, 384), (512, 384), (512, 384), (512, 384), (512, 384), (512, 384), (512, 384), (512, 384), (512, 384), (512, 384), (512, 384), (512, 384), (512, 384), (512, 384), (512, 384), (512, 384), (512, 384), (512, 384), (512, 384), (512, 384), (512, 384), (512, 384), (512, 384), (512, 384), (512, 384), (512, 384), (512, 384), (512, 384), (512, 384), (512, 384), (512, 384), (512, 384), (512, 384), (512, 384), (512, 384), (512, 384), (512, 384), (512, 384), (512, 384), (512, 384), (512, 384), (513, 399), (511, 413), (511, 429), (511, 446), (506, 480), (502, 502), (498, 521), (489, 561), (488, 576), (485, 586), (483, 597), (480, 612), (480, 616), (479, 620), (478, 625), (478, 632)]",97.80640082923576,"[1, 6, 3, 4, 2, 5, 7, 9, 8]","(0, 0.25)",THI001B,THI,B,Chinese,Mon Aug 20 15:40:03 2018,Mouse
2,2,2,0,3,8,8,1,782,562,220,152,0,500,200,8000,"[(512, 384), (512, 384), (512, 384), (512, 384), (512, 384), (512, 384), (512, 384), (512, 384), (512, 384), (512, 384), (512, 384), (512, 384), (512, 384), (512, 384), (512, 384), (512, 384), (512, 384), (512, 384), (512, 384), (512, 384), (512, 384), (512, 384), (512, 384), (512, 384), (512, 384), (512, 384), (512, 384), (512, 384), (512, 384), (512, 384), (512, 384), (512, 384), (512, 384), (512, 384), (512, 384), (512, 384), (512, 384), (512, 384), (512, 384), (512, 384), (512, 384), (512, 384), (512, 384), (512, 384), (512, 384), (512, 384), (512, 384), (512, 384), (512, 384), (512, 384), (512, 384), (512, 384), (512, 384), (512, 384), (512, 384), (512, 384), (512, 383), (512, 383), (512, 383), (513, 383), (514, 382), (514, 382), (514, 382), (514, 381), (516, 381), (517, 380), (519, 380), (522, 378), (535, 376), (548, 375), (565, 371), (580, 370), (616, 359), (633, 356), (650, 350), (680, 342), (726, 327), (741, 319), (763, 308)]",343.15427308420885,"[1, 6, 3, 4, 2, 5, 7, 9, 8]","(0, 0.25)",THI001B,THI,B,Chinese,Mon Aug 20 15:40:03 2018,Mouse
2,2,2,0,4,9,9,1,520,400,120,151,0,500,200,8000,"[(512, 384), (512, 384), (512, 384), (512, 384), (512, 384), (512, 384), (512, 384), (512, 384), (512, 384), (512, 384), (512, 384), (512, 384), (512, 384), (512, 384), (512, 384), (512, 384), (512, 384), (512, 384), (512, 384), (512, 384), (512, 384), (512, 384), (512, 384), (512, 384), (512, 384), (512, 384), (512, 384), (512, 384), (512, 384), (512, 384), (512, 384), (512, 384), (512, 384), (512, 384), (512, 384), (512, 384), (512, 384), (512, 384), (512, 384), (513, 380), (518, 374), (532, 355), (541, 343), (549, 332), (559, 318), (593, 282), (601, 268), (615, 253), (627, 240), (646, 214), (659, 197), (668, 188)]",308.5169263071028,"[1, 6, 3, 4, 2, 5, 7, 9, 8]","(0, 0.25)",THI001B,THI,B,Chinese,Mon Aug 20 15:40:03 2018,Mouse
2,2,2,0,5,7,7,1,756,416,340,150,0,500,200,8000,"[(512, 384), (512, 384), (512, 384), (512, 384), (512, 384), (512, 384), (512, 384), (512, 384), (512, 384), (512, 384), (512, 384), (512, 384), (512, 384), (512, 384), (512, 384), (512, 384), (512, 384), (512, 384), (512, 384), (512, 384), (512, 384), (512, 384), (512, 384), (512, 384), (512, 384), (512, 384), (512, 384), (512, 384), (512, 384), (512, 384), (512, 384), (512, 384), (512, 384), (512, 384), (512, 384), (512, 384), (512, 384), (512, 384), (512, 384), (512, 384), (512, 384), (511, 394), (507, 403), (504, 415), (500, 426), (495, 438), (492, 444), (491, 445), (491, 445), (491, 445), (491, 445), (491, 445), (491, 445), (491, 445), (491, 445), (491, 445), (491, 445), (488, 445), (485, 439), (484, 436), (483, 431), (480, 423), (478, 419), (477, 414), (477, 410), (475, 400), (471, 390), (468, 378), (463, 358), (444, 302), (433, 273), (424, 245), (415, 225), (404, 183), (399, 166), (397, 153)]",243.53424816806555,"[1, 6, 3, 4, 2, 5, 7, 9, 8]","(0, 0.25)",THI001B,THI,B,Chinese,Mon Aug 20 15:40:03 2018,Mouse
2,2,2,0,6,6,6,1,655,375,280,149,0,500,200,8000,"[(512, 384), (512, 384), (512, 384), (512, 384), (512, 384), (512, 384), (512, 384), (512, 384), (512, 384), (512, 384), (512, 384), (512, 384), (512, 384), (512, 384), (512, 384), (512, 384), (512, 384), (512, 384), (512, 384), (512, 384), (512, 384), (512, 384), (512, 384), (512, 384), (512, 384), (512, 384), (512, 384), (512, 384), (512, 384), (512, 384), (512, 384), (512, 384), (512, 384), (512, 384), (512, 384), (512, 384), (512, 384), (512, 383), (512, 383), (513, 383), (514, 383), (514, 383), (514, 383), (514, 383), (515, 384), (516, 386), (516, 386), (516, 386), (516, 386), (516, 386), (516, 386), (516, 386), (516, 386), (516, 386), (516, 386), (516, 386), (516, 386), (519, 393), (523, 401), (529, 411), (535, 426), (559, 473), (572, 500), (584, 529), (594, 555), (623, 611)]",63.94197788383679,"[1, 6, 3, 4, 2, 5, 7, 9, 8]","(0, 0.25)",THI001B,THI,B,Chinese,Mon Aug 20 15:40:03 2018,Mouse
2,2,2,0,7,6,6,1,557,387,170,148,0,500,200,8000,"[(512, 384), (512, 384), (512, 384), (512, 384), (512, 384), (512, 384), (512, 384), (512, 384), (512, 384), (512, 384), (512, 384), (512, 384), (512, 384), (512, 384), (512, 384), (512, 384), (512, 384), (512, 384), (512, 384), (512, 384), (512, 384), (512, 384), (512, 384), (512, 384), (512, 384), (512, 384), (512, 384), (512, 384), (512, 384), (512, 384), (512, 384), (512, 384), (512, 384), (512, 384), (512, 384), (512, 384), (512, 384), (512, 384), (514, 388), (520, 402), (524, 407), (528, 416), (534, 422), (546, 439), (551, 446), (558, 456), (567, 466), (585, 489), (593, 498), (602, 507), (614, 519), (635, 544), (646, 557), (653, 568), (661, 578), (673, 596)]",52.78572916367707,"[1, 6, 3, 4, 2, 5, 7, 9, 8]","(0, 0.25)",THI001B,THI,B,Chinese,Mon Aug 20 15:40:03 2018,Mouse
2,2,2,0,8,9,9,1,502,422,80,147,0,500,200,8000,"[(512, 384), (512, 384), (512, 384), (512, 384), (512, 384), (512, 384), (512, 384), (512, 384), (512, 384), (512, 384), (512, 384), (512, 384), (512, 384), (512, 384), (512, 384), (512, 384), (512, 384), (512, 384), (512, 384), (512, 384), (512, 384), (512, 384), (512, 384), (512, 384), (512, 384), (512, 384), (512, 384), (512, 384), (512, 384), (512, 384), (512, 384), (512, 384), (512, 384), (512, 384), (512, 384), (512, 384), (512, 384), (512, 384), (512, 384), (512, 384), (512, 384), (512, 384), (513, 372), (519, 354), (528, 321), (538, 298), (549, 274), (567, 242), (600, 192), (619, 166), (632, 149)]",297.05059700708614,"[1, 6, 3, 4, 2, 5, 7, 9, 8]","(0, 0.25)",THI001B,THI,B,Chinese,Mon Aug 20 15:40:03 2018,Mouse
2,2,2,0,9,6,6,1,422,232,190,146,0,500,200,8000,"[(512, 384), (512, 384), (512, 384), (512, 384), (512, 384), (512, 384), (512, 384), (512, 384), (512, 384), (512, 384), (512, 384), (512, 384), (512, 384), (512, 384), (512, 384), (512, 384), (512, 384), (512, 384), (512, 384), (512, 384), (512, 384), (512, 384), (512, 384), (512, 387), (514, 391), (516, 396), (518, 404), (520, 409), (523, 414), (526, 419), (535, 430), (540, 436), (546, 444), (552, 453), (567, 473), (575, 482), (587, 498), (595, 513), (617, 543), (627, 559), (635, 570), (643, 584), (655, 607)]",57.32974963507232,"[1, 6, 3, 4, 2, 5, 7, 9, 8]","(0, 0.25)",THI001B,THI,B,Chinese,Mon Aug 20 15:40:03 2018,Mouse
2,2,2,0,10,7,7,1,1262,962,300,145,0,500,200,8000,"[(512, 384), (512, 384), (512, 384), (512, 384), (512, 384), (512, 384), (512, 384), (512, 384), (512, 384), (512, 384), (512, 384), (512, 384), (512, 384), (512, 384), (512, 384), (512, 384), (512, 384), (512, 384), (512, 384), (512, 384), (512, 384), (512, 384), (512, 384), (512, 384), (512, 384), (512, 384), (512, 384), (512, 384), (512, 384), (512, 384), (512, 384), (512, 384), (512, 384), (512, 384), (512, 384), (512, 384), (512, 384), (512, 384), (512, 384), (512, 384), (512, 384), (512, 384), (512, 384), (512, 384), (512, 384), (512, 384), (512, 384), (512, 384), (512, 384), (512, 384), (512, 384), (512, 384), (512, 384), (512, 384), (512, 384), (512, 384), (512, 384), (512, 384), (512, 384), (512, 384), (512, 384), (512, 384), (512, 384), (512, 384), (512, 384), (512, 384), (512, 384), (512, 384), (512, 384), (512, 384), (512, 384), (512, 384), (512, 384), (512, 384), (512, 384), (512, 384), (512, 384), (512, 384), (512, 384), (512, 384), (512, 384), (512, 384), (512, 384), (512, 384), (512, 384), (512, 384), (512, 384), (512, 384), (512, 384), (512, 384), (512, 384), (512, 384), (512, 384), (512, 384), (512, 384), (512, 384), (512, 385), (512, 390), (510, 398), (509, 402), (506, 409), (505, 411), (503, 413), (503, 413), (503, 413), (503, 413), (503, 413), (503, 413), (503, 413), (503, 413), (503, 413), (503, 413), (503, 413), (503, 413), (503, 412), (503, 408), (503, 404), (503, 400), (503, 396), (503, 390), (500, 363), (498, 342), (493, 312), (488, 277), (479, 208), (472, 170), (468, 135)]",259.97889401791474,"[1, 6, 3, 4, 2, 5, 7, 9, 8]","(0, 0.25)",THI001B,THI,B,Chinese,Mon Aug 20 15:40:03 2018,Mouse
2,2,2,0,11,4,4,1,542,462,80,144,0,500,200,8000,"[(512, 384), (512, 384), (512, 384), (512, 384), (512, 384), (512, 384), (512, 384), (512, 384), (512, 384), (512, 384), (512, 384), (512, 384), (512, 384), (512, 384), (512, 384), (512, 384), (512, 384), (512, 384), (512, 384), (512, 384), (512, 384), (512, 384), (512, 384), (512, 384), (512, 384), (512, 384), (512, 384), (512, 384), (512, 384), (512, 384), (512, 384), (512, 384), (512, 384), (512, 384), (512, 384), (512, 384), (512, 384), (512, 384), (512, 384), (512, 384), (512, 384), (512, 384), (512, 384), (512, 384), (512, 384), (512, 384), (505, 385), (498, 392), (486, 403), (471, 417), (425, 451), (407, 466), (382, 484), (349, 507), (280, 547)]",144.90865176541476,"[1, 6, 3, 4, 2, 5, 7, 9, 8]","(0, 0.25)",THI001B,THI,B,Chinese,Mon Aug 20 15:40:03 2018,Mouse
2,2,2,0,12,1,1,1,442,372,70,143,0,500,200,8000,"[(512, 384), (512, 384), (512, 384), (512, 384), (512, 384), (512, 384), (512, 384), (512, 384), (512, 384), (512, 384), (512, 384), (512, 384), (512, 384), (512, 384), (512, 384), (512, 384), (512, 384), (512, 384), (512, 384), (512, 384), (512, 384), (512, 384), (512, 384), (512, 384), (512, 384), (512, 384), (512, 384), (512, 384), (512, 384), (512, 384), (512, 384), (512, 384), (512, 384), (512, 384), (512, 384), (512, 384), (512, 384), (511, 384), (517, 386), (532, 390), (588, 404), (634, 416), (673, 425), (710, 429), (792, 447)]",12.68038349181982,"[1, 6, 3, 4, 2, 5, 7, 9, 8]","(0, 0.25)",THI001B,THI,B,Chinese,Mon Aug 20 15:40:03 2018,Mouse
2,2,2,0,13,9,9,1,342,222,120,142,0,500,200,8000,"[(512, 384), (512, 384), (512, 384), (512, 384), (512, 384), (512, 384), (512, 384), (512, 384), (512, 384), (512, 384), (512, 384), (512, 384), (512, 384), (512, 384), (512, 384), (512, 384), (512, 384), (512, 384), (512, 384), (512, 384), (512, 384), (512, 384), (514, 384), (517, 383), (521, 372), (526, 363), (528, 353), (536, 340), (556, 305), (573, 284), (585, 272), (600, 256), (632, 220), (650, 201), (666, 185)]",307.73518941591567,"[1, 6, 3, 4, 2, 5, 7, 9, 8]","(0, 0.25)",THI001B,THI,B,Chinese,Mon Aug 20 15:40:03 2018,Mouse
2,2,2,0,14,2,7,0,-711,631,80,141,0,500,200,8000,"[(512, 384), (512, 384), (512, 384), (512, 384), (512, 384), (512, 384), (512, 384), (512, 384), (512, 384), (512, 384), (512, 384), (512, 384), (512, 384), (512, 384), (512, 384), (512, 384), (512, 384), (512, 384), (512, 384), (512, 384), (512, 384), (512, 384), (512, 384), (512, 384), (512, 384), (512, 384), (512, 384), (512, 384), (512, 384), (512, 384), (512, 384), (512, 384), (512, 384), (512, 384), (512, 384), (512, 384), (512, 384), (512, 384), (512, 384), (512, 384), (512, 384), (512, 384), (512, 384), (512, 384), (512, 384), (512, 384), (512, 384), (512, 384), (512, 384), (512, 384), (512, 384), (512, 384), (512, 384), (512, 384), (512, 384), (512, 384), (512, 384), (512, 384), (512, 384), (512, 384), (512, 384), (512, 384), (512, 384), (512, 375), (505, 353), (493, 324), (480, 272), (472, 244), (470, 228), (465, 198), (459, 156), (455, 137)]",257.0053832080835,"[1, 6, 3, 4, 2, 5, 7, 9, 8]","(0, 0.25)",THI001B,THI,B,Chinese,Mon Aug 20 15:40:03 2018,Mouse
2,2,2,0,15,3,3,1,544,374,170,142,0,500,200,8000,"[(512, 384), (512, 384), (512, 384), (512, 384), (512, 384), (512, 384), (512, 384), (512, 384), (512, 384), (512, 384), (512, 384), (512, 384), (512, 384), (512, 384), (512, 384), (512, 384), (512, 384), (512, 384), (512, 384), (512, 384), (512, 384), (512, 384), (512, 384), (512, 384), (512, 384), (512, 384), (512, 384), (512, 384), (512, 384), (512, 384), (512, 384), (512, 384), (512, 384), (512, 384), (512, 384), (512, 384), (512, 384), (512, 387), (512, 405), (512, 416), (512, 429), (512, 444), (512, 476), (512, 491), (512, 507), (512, 524), (512, 555), (512, 569), (512, 581), (512, 595), (512, 614), (512, 623), (512, 629), (512, 633), (512, 640)]",90.0,"[1, 6, 3, 4, 2, 5, 7, 9, 8]","(0, 0.25)",THI001B,THI,B,Chinese,Mon Aug 20 15:40:03 2018,Mouse
2,2,2,0,16,7,7,1,1922,602,1320,142,0,500,200,8000,"[(512, 384), (512, 384), (512, 384), (512, 384), (512, 384), (512, 384), (512, 384), (512, 384), (512, 384), (512, 384), (512, 384), (512, 384), (512, 384), (512, 384), (512, 384), (512, 384), (512, 384), (512, 384), (512, 384), (512, 384), (512, 384), (512, 384), (512, 384), (512, 384), (512, 384), (512, 384), (512, 384), (512, 384), (512, 384), (512, 384), (512, 384), (512, 384), (512, 384), (512, 384), (512, 384), (512, 384), (512, 384), (512, 384), (512, 384), (512, 384), (512, 384), (512, 384), (512, 384), (512, 384), (512, 384), (512, 384), (512, 384), (512, 384), (512, 384), (512, 384), (512, 384), (512, 384), (512, 384), (512, 384), (512, 384), (512, 384), (512, 384), (512, 384), (512, 384), (512, 384), (511, 380), (511, 376), (511, 375), (511, 372), (510, 371), (509, 370), (509, 370), (509, 370), (509, 370), (509, 370), (509, 370), (509, 370), (509, 370), (509, 370), (509, 370), (509, 370), (509, 370), (509, 370), (509, 370), (509, 370), (509, 370), (509, 370), (509, 370), (509, 370), (509, 370), (509, 370), (509, 370), (509, 369), (509, 365), (508, 362), (507, 361), (507, 358), (507, 353), (506, 352), (506, 351), (506, 350), (505, 348), (505, 348), (505, 348), (505, 348), (505, 347), (505, 344), (505, 342), (505, 338), (505, 332), (505, 329), (505, 326), (505, 323), (505, 314), (505, 310), (505, 304), (505, 300), (503, 293), (503, 288), (502, 285), (501, 279), (501, 275), (501, 274), (500, 271), (500, 271), (500, 268), (499, 267), (499, 267), (499, 266), (499, 264), (499, 262), (498, 261), (498, 261), (498, 260), (498, 259), (498, 258), (498, 256), (497, 253), (497, 252), (497, 250), (497, 248), (496, 243), (496, 241), (496, 238), (494, 235), (494, 229), (494, 225), (494, 224), (494, 221), (494, 216), (494, 213), (494, 210), (494, 209), (494, 203), (494, 200), (494, 198), (494, 195), (494, 192), (494, 190), (494, 187), (494, 185), (494, 181), (494, 179), (494, 177), (494, 177), (494, 174), (494, 173), (494, 172), (494, 172), (494, 171), (494, 171), (494, 171), (494, 171), (494, 171), (494, 171), (494, 171), (494, 171), (494, 171), (494, 171), (494, 171), (494, 171), (494, 171), (494, 171), (494, 171), (494, 171), (494, 171), (494, 171), (494, 170), (494, 168), (494, 163), (494, 160), (494, 156), (494, 153), (493, 147), (493, 144), (492, 141), (492, 139), (487, 125)]",264.48659997133245,"[1, 6, 3, 4, 2, 5, 7, 9, 8]","(0, 0.25)",THI001B,THI,B,Chinese,Mon Aug 20 15:40:03 2018,Mouse
2,2,2,0,17,8,1,0,-444,334,110,141,0,500,200,8000,"[(512, 384), (512, 384), (512, 384), (512, 384), (512, 384), (512, 384), (512, 384), (512, 384), (512, 384), (512, 384), (512, 384), (512, 384), (512, 384), (512, 384), (512, 384), (512, 384), (512, 384), (512, 384), (512, 384), (512, 384), (512, 384), (512, 384), (512, 384), (512, 384), (512, 384), (512, 384), (512, 384), (512, 384), (512, 384), (512, 384), (512, 384), (512, 384), (512, 384), (515, 387), (522, 394), (536, 406), (546, 411), (554, 414), (567, 420), (601, 433), (621, 439), (643, 445), (671, 453), (726, 468), (757, 476)]",20.581669448426545,"[1, 6, 3, 4, 2, 5, 7, 9, 8]","(0, 0.25)",THI001B,THI,B,Chinese,Mon Aug 20 15:40:03 2018,Mouse
2,2,2,0,18,5,4,0,-631,541,90,142,0,500,200,8000,"[(512, 384), (512, 384), (512, 384), (512, 384), (512, 384), (512, 384), (512, 384), (512, 384), (512, 384), (512, 384), (512, 384), (512, 384), (512, 384), (512, 384), (512, 384), (512, 384), (512, 384), (512, 384), (512, 384), (512, 384), (512, 384), (512, 384), (512, 384), (512, 384), (512, 384), (512, 384), (512, 384), (512, 384), (512, 384), (512, 384), (512, 384), (512, 384), (512, 384), (512, 384), (512, 384), (512, 384), (512, 384), (512, 384), (512, 384), (512, 384), (512, 384), (512, 384), (512, 384), (512, 384), (512, 384), (512, 384), (512, 384), (512, 384), (512, 384), (512, 384), (512, 384), (512, 384), (512, 384), (512, 384), (511, 386), (500, 399), (489, 411), (475, 426), (462, 444), (427, 492), (410, 512), (390, 536), (373, 558), (348, 590)]",128.5238754616488,"[1, 6, 3, 4, 2, 5, 7, 9, 8]","(0, 0.25)",THI001B,THI,B,Chinese,Mon Aug 20 15:40:03 2018,Mouse
2,2,2,0,19,7,7,1,732,602,130,143,0,500,200,8000,"[(512, 384), (512, 384), (512, 384), (512, 384), (512, 384), (512, 384), (512, 384), (512, 384), (512, 384), (512, 384), (512, 384), (512, 384), (512, 384), (512, 384), (512, 384), (512, 384), (512, 384), (512, 384), (512, 384), (512, 384), (512, 384), (512, 384), (512, 384), (512, 384), (512, 384), (512, 384), (512, 384), (512, 384), (512, 384), (512, 384), (512, 384), (512, 384), (512, 384), (512, 384), (512, 384), (512, 384), (512, 384), (512, 384), (512, 384), (512, 384), (512, 384), (512, 384), (512, 384), (512, 384), (512, 384), (512, 384), (512, 384), (512, 384), (512, 384), (512, 384), (512, 384), (512, 384), (512, 384), (512, 384), (512, 384), (512, 384), (512, 384), (512, 384), (512, 384), (512, 384), (512, 383), (512, 374), (512, 363), (512, 348), (512, 299), (512, 279), (512, 262), (512, 245), (512, 212), (512, 194), (509, 173), (509, 159), (509, 138), (509, 129)]",269.3259631020155,"[1, 6, 3, 4, 2, 5, 7, 9, 8]","(0, 0.25)",THI001B,THI,B,Chinese,Mon Aug 20 15:40:03 2018,Mouse
2,2,2,0,20,8,8,1,403,253,150,143,0,500,200,8000,"[(512, 384), (512, 384), (512, 384), (512, 384), (512, 384), (512, 384), (512, 384), (512, 384), (512, 384), (512, 384), (512, 384), (512, 384), (512, 384), (512, 384), (512, 384), (512, 384), (512, 384), (512, 384), (512, 384), (512, 384), (512, 384), (512, 384), (512, 384), (512, 384), (512, 384), (514, 382), (524, 377), (529, 375), (535, 372), (544, 369), (561, 362), (570, 356), (584, 351), (597, 346), (638, 330), (655, 325), (669, 322), (687, 316), (724, 304), (746, 298), (765, 294)]",340.4179391553132,"[1, 6, 3, 4, 2, 5, 7, 9, 8]","(0, 0.25)",THI001B,THI,B,Chinese,Mon Aug 20 15:40:03 2018,Mouse
2,2,2,0,21,5,5,1,884,614,270,142,0,500,200,8000,"[(512, 384), (512, 384), (512, 384), (512, 384), (512, 384), (512, 384), (512, 384), (512, 384), (512, 384), (512, 384), (512, 384), (512, 384), (512, 384), (512, 384), (512, 384), (512, 384), (512, 384), (512, 384), (512, 384), (512, 384), (512, 384), (512, 384), (512, 384), (512, 384), (512, 384), (512, 384), (512, 384), (512, 384), (512, 384), (512, 384), (512, 384), (512, 384), (512, 384), (512, 384), (512, 384), (512, 384), (512, 384), (512, 384), (512, 384), (512, 384), (512, 384), (512, 384), (512, 384), (512, 384), (512, 384), (512, 384), (512, 384), (512, 384), (512, 384), (512, 384), (512, 384), (512, 384), (512, 384), (512, 384), (512, 384), (512, 384), (512, 384), (512, 384), (512, 384), (512, 384), (512, 384), (509, 380), (504, 377), (494, 371), (488, 366), (468, 353), (456, 345), (443, 337), (432, 329), (401, 308), (391, 300), (380, 291), (374, 286), (356, 270), (347, 263), (343, 258), (341, 254), (336, 247), (335, 244), (334, 243), (334, 242), (333, 241), (332, 239), (330, 238), (328, 236), (325, 232), (323, 230), (321, 227), (319, 224)]",219.6592594094983,"[1, 6, 3, 4, 2, 5, 7, 9, 8]","(0, 0.25)",THI001B,THI,B,Chinese,Mon Aug 20 15:40:03 2018,Mouse
2,2,2,0,22,7,7,1,822,52,770,141,0,500,200,8000,"[(512, 384), (512, 384), (512, 384), (512, 384), (512, 384), (510, 384), (510, 384), (510, 383), (510, 383), (510, 383), (510, 383), (510, 383), (510, 383), (510, 383), (510, 383), (510, 383), (510, 383), (510, 383), (510, 383), (510, 383), (510, 383), (510, 383), (510, 383), (510, 383), (510, 383), (510, 383), (510, 383), (510, 383), (510, 383), (510, 383), (510, 383), (510, 383), (510, 383), (510, 383), (510, 383), (510, 383), (510, 383), (510, 383), (510, 383), (510, 383), (510, 383), (510, 383), (510, 383), (510, 383), (510, 383), (510, 383), (510, 383), (510, 383), (510, 383), (510, 383), (510, 383), (510, 383), (510, 383), (510, 383), (510, 383), (510, 383), (510, 383), (510, 383), (510, 383), (510, 383), (510, 383), (510, 383), (510, 383), (510, 383), (510, 383), (510, 383), (510, 383), (510, 380), (510, 375), (508, 360), (505, 348), (502, 337), (499, 324), (495, 291), (493, 273), (492, 258), (489, 239), (483, 204), (483, 190), (479, 173), (479, 162), (479, 140), (478, 128)]",262.4346789315677,"[1, 6, 3, 4, 2, 5, 7, 9, 8]","(0, 0.25)",THI001B,THI,B,Chinese,Mon Aug 20 15:40:03 2018,Mouse
2,2,2,0,23,9,9,1,462,232,230,140,0,500,200,8000,"[(512, 384), (512, 384), (512, 384), (512, 384), (512, 384), (512, 384), (512, 384), (512, 384), (512, 384), (512, 384), (512, 384), (512, 384), (512, 384), (512, 384), (512, 384), (512, 384), (512, 384), (512, 384), (512, 384), (512, 384), (512, 384), (512, 384), (512, 384), (518, 378), (522, 373), (523, 370), (530, 360), (541, 343), (545, 333), (550, 323), (556, 311), (562, 287), (567, 277), (570, 265), (573, 255), (581, 239), (582, 234), (583, 228), (585, 223), (588, 211), (589, 205), (591, 197), (593, 188), (597, 173), (599, 161), (602, 155), (605, 146)]",291.343386122046,"[1, 6, 3, 4, 2, 5, 7, 9, 8]","(0, 0.25)",THI001B,THI,B,Chinese,Mon Aug 20 15:40:03 2018,Mouse
2,2,2,0,24,2,2,1,1112,632,480,139,0,500,200,8000,"[(512, 384), (512, 384), (512, 384), (512, 384), (512, 384), (512, 384), (512, 384), (512, 384), (512, 384), (512, 384), (512, 384), (512, 384), (512, 384), (512, 384), (512, 384), (512, 384), (512, 384), (512, 384), (512, 384), (512, 384), (512, 384), (512, 384), (512, 384), (512, 384), (512, 384), (512, 384), (512, 384), (512, 384), (512, 384), (512, 384), (512, 384), (512, 384), (512, 384), (512, 384), (512, 384), (512, 384), (512, 384), (512, 384), (512, 384), (512, 384), (512, 384), (512, 384), (512, 384), (512, 384), (512, 384), (512, 384), (512, 384), (512, 384), (512, 384), (512, 384), (512, 384), (512, 384), (512, 384), (512, 384), (512, 384), (512, 384), (512, 384), (512, 384), (512, 384), (512, 384), (512, 384), (512, 384), (512, 384), (511, 384), (511, 384), (510, 384), (509, 384), (509, 384), (509, 384), (508, 384), (507, 384), (507, 384), (507, 384), (505, 386), (505, 386), (504, 386), (504, 387), (504, 387), (504, 387), (504, 387), (504, 387), (504, 387), (504, 387), (504, 387), (504, 387), (504, 387), (504, 387), (504, 387), (504, 387), (504, 387), (504, 387), (504, 387), (504, 387), (504, 387), (504, 387), (504, 387), (504, 387), (501, 388), (500, 388), (499, 388), (496, 388), (492, 388), (491, 388), (484, 387), (479, 387), (452, 387), (431, 387), (403, 387), (361, 387), (303, 387), (269, 387), (253, 387)]",179.33637199998677,"[1, 6, 3, 4, 2, 5, 7, 9, 8]","(0, 0.25)",THI001B,THI,B,Chinese,Mon Aug 20 15:40:03 2018,Mouse
2,2,2,0,25,7,7,1,502,382,120,138,0,500,200,8000,"[(512, 384), (512, 384), (512, 384), (512, 384), (512, 384), (512, 384), (512, 384), (512, 384), (512, 384), (512, 384), (512, 384), (512, 384), (512, 384), (512, 384), (512, 384), (512, 384), (512, 384), (512, 384), (512, 384), (512, 384), (512, 384), (512, 384), (512, 384), (512, 384), (512, 384), (512, 384), (512, 384), (512, 384), (512, 384), (512, 384), (512, 384), (512, 384), (512, 384), (512, 384), (512, 384), (512, 384), (512, 384), (512, 384), (512, 378), (513, 370), (513, 361), (514, 350), (514, 321), (514, 302), (514, 282), (514, 260), (514, 215), (514, 195), (514, 176), (514, 162), (516, 130)]",270.9022211615302,"[1, 6, 3, 4, 2, 5, 7, 9, 8]","(0, 0.25)",THI001B,THI,B,Chinese,Mon Aug 20 15:40:03 2018,Mouse
2,2,2,0,26,3,3,1,452,132,320,137,0,500,200,8000,"[(512, 384), (512, 384), (512, 384), (512, 384), (512, 384), (512, 384), (512, 384), (512, 384), (512, 384), (512, 384), (512, 384), (512, 384), (512, 384), (511, 384), (510, 384), (509, 384), (509, 384), (509, 384), (509, 384), (509, 384), (509, 384), (509, 384), (509, 384), (509, 384), (509, 384), (509, 384), (509, 384), (509, 384), (509, 384), (509, 384), (509, 384), (509, 384), (509, 384), (509, 384), (509, 384), (508, 389), (504, 415), (503, 435), (503, 455), (503, 477), (500, 524), (497, 543), (497, 565), (497, 588), (495, 628), (493, 642)]",94.21185349008861,"[1, 6, 3, 4, 2, 5, 7, 9, 8]","(0, 0.25)",THI001B,THI,B,Chinese,Mon Aug 20 15:40:03 2018,Mouse
2,2,2,0,27,4,7,0,-372,232,140,136,0,500,200,8000,"[(512, 384), (512, 384), (512, 384), (512, 384), (512, 384), (512, 384), (512, 384), (512, 384), (512, 384), (512, 384), (512, 384), (512, 384), (512, 384), (512, 384), (512, 384), (512, 384), (512, 384), (512, 384), (512, 384), (512, 384), (512, 384), (512, 384), (512, 384), (512, 383), (512, 374), (512, 362), (512, 350), (512, 318), (512, 301), (512, 278), (512, 259), (512, 221), (512, 206), (510, 189), (508, 174), (504, 151), (503, 144), (501, 134)]",267.48061070879373,"[1, 6, 3, 4, 2, 5, 7, 9, 8]","(0, 0.25)",THI001B,THI,B,Chinese,Mon Aug 20 15:40:03 2018,Mouse
2,2,2,0,28,9,9,1,692,582,110,137,0,500,200,8000,"[(512, 384), (512, 384), (512, 384), (512, 384), (512, 384), (512, 384), (512, 384), (512, 384), (512, 384), (512, 384), (512, 384), (512, 384), (512, 384), (512, 384), (512, 384), (512, 384), (512, 384), (512, 384), (512, 384), (512, 384), (512, 384), (512, 384), (512, 384), (512, 384), (512, 384), (512, 384), (512, 384), (512, 384), (512, 384), (512, 384), (512, 384), (512, 384), (512, 384), (512, 384), (512, 384), (512, 384), (512, 384), (512, 384), (512, 384), (512, 384), (512, 384), (512, 384), (512, 384), (512, 384), (512, 384), (512, 384), (512, 384), (512, 384), (512, 384), (512, 384), (512, 384), (512, 384), (512, 384), (512, 384), (512, 384), (512, 384), (512, 384), (512, 384), (512, 380), (515, 371), (522, 360), (528, 349), (545, 320), (558, 298), (573, 278), (585, 259), (615, 221), (627, 201), (643, 181), (652, 169)]",303.0706778227617,"[1, 6, 3, 4, 2, 5, 7, 9, 8]","(0, 0.25)",THI001B,THI,B,Chinese,Mon Aug 20 15:40:03 2018,Mouse
2,2,2,0,29,7,9,0,-519,379,140,137,0,500,200,8000,"[(512, 384), (512, 384), (512, 384), (512, 384), (512, 384), (512, 384), (512, 384), (512, 384), (512, 384), (512, 384), (512, 384), (512, 384), (512, 384), (512, 384), (512, 384), (512, 384), (512, 384), (512, 384), (512, 384), (512, 384), (512, 384), (512, 384), (512, 384), (512, 384), (512, 384), (512, 384), (512, 384), (512, 384), (512, 384), (512, 384), (512, 384), (512, 384), (512, 384), (512, 384), (512, 384), (512, 384), (512, 384), (515, 383), (521, 371), (527, 361), (548, 331), (555, 319), (563, 306), (570, 295), (588, 268), (601, 253), (609, 241), (617, 231), (634, 209), (643, 199), (652, 187), (659, 178)]",305.5113591077836,"[1, 6, 3, 4, 2, 5, 7, 9, 8]","(0, 0.25)",THI001B,THI,B,Chinese,Mon Aug 20 15:40:03 2018,Mouse
2,2,2,0,30,6,1,0,-1222,612,610,138,0,500,200,8000,"[(512, 384), (512, 384), (512, 384), (512, 384), (512, 384), (512, 384), (512, 384), (512, 384), (512, 384), (512, 384), (512, 384), (512, 384), (512, 384), (512, 384), (512, 384), (512, 384), (512, 384), (512, 384), (512, 384), (512, 384), (512, 384), (512, 384), (512, 384), (512, 384), (512, 384), (512, 384), (512, 384), (512, 384), (512, 384), (512, 384), (512, 384), (512, 384), (512, 384), (512, 384), (512, 384), (512, 384), (512, 384), (512, 384), (512, 384), (512, 384), (512, 384), (512, 384), (512, 384), (512, 384), (512, 384), (512, 384), (512, 384), (512, 384), (512, 384), (512, 384), (512, 384), (512, 384), (512, 384), (512, 384), (512, 384), (512, 384), (512, 384), (512, 384), (512, 384), (512, 384), (512, 384), (512, 389), (512, 389), (512, 390), (512, 392), (513, 392), (513, 392), (513, 392), (513, 392), (513, 392), (513, 392), (513, 392), (513, 392), (513, 392), (513, 392), (513, 392), (513, 392), (513, 392), (513, 392), (513, 392), (513, 392), (513, 392), (513, 392), (513, 392), (513, 392), (513, 392), (513, 392), (513, 392), (513, 392), (513, 393), (517, 394), (526, 399), (532, 403), (563, 422), (584, 429), (601, 435), (626, 443), (653, 449), (664, 451), (675, 452), (683, 455), (688, 455), (688, 455), (688, 455), (688, 455), (688, 455), (688, 455), (688, 455), (688, 455), (688, 455), (688, 455), (688, 455), (688, 455), (688, 455), (688, 455), (688, 455), (688, 455), (689, 455), (692, 455), (699, 455), (709, 455), (741, 458), (763, 462)]",17.26299646577917,"[1, 6, 3, 4, 2, 5, 7, 9, 8]","(0, 0.25)",THI001B,THI,B,Chinese,Mon Aug 20 15:40:03 2018,Mouse
2,2,2,0,31,7,7,1,542,412,130,139,0,500,200,8000,"[(512, 384), (512, 384), (512, 384), (512, 384), (512, 384), (512, 384), (512, 384), (512, 384), (512, 384), (512, 384), (512, 384), (512, 384), (512, 384), (512, 384), (512, 384), (512, 384), (512, 384), (512, 384), (512, 384), (512, 384), (512, 384), (512, 384), (512, 384), (512, 384), (512, 384), (512, 384), (512, 384), (512, 384), (512, 384), (512, 384), (512, 384), (512, 384), (512, 384), (512, 384), (512, 384), (512, 384), (512, 384), (512, 384), (512, 384), (512, 384), (512, 384), (512, 383), (512, 381), (512, 360), (512, 346), (512, 333), (512, 315), (510, 269), (509, 249), (504, 225), (502, 206), (498, 173), (497, 158), (496, 147), (495, 134)]",266.1098755959382,"[1, 6, 3, 4, 2, 5, 7, 9, 8]","(0, 0.25)",THI001B,THI,B,Chinese,Mon Aug 20 15:40:03 2018,Mouse
2,2,2,0,32,6,4,0,-1732,952,780,139,0,500,200,8000,"[(512, 384), (512, 384), (512, 384), (512, 384), (512, 384), (512, 384), (512, 384), (512, 384), (512, 384), (512, 384), (512, 384), (512, 384), (512, 384), (512, 384), (512, 384), (512, 384), (512, 384), (512, 384), (512, 384), (512, 384), (512, 384), (512, 384), (512, 384), (512, 384), (512, 384), (512, 384), (512, 384), (512, 384), (512, 384), (512, 384), (512, 384), (512, 384), (512, 384), (512, 384), (512, 384), (512, 384), (512, 384), (512, 384), (512, 384), (512, 384), (512, 384), (512, 384), (512, 384), (512, 384), (512, 384), (512, 384), (512, 384), (512, 384), (512, 384), (512, 384), (512, 384), (512, 384), (512, 384), (512, 384), (512, 384), (512, 384), (512, 384), (512, 384), (512, 384), (512, 384), (512, 384), (512, 384), (512, 384), (512, 384), (512, 384), (512, 384), (512, 384), (512, 384), (512, 384), (512, 384), (512, 384), (512, 384), (512, 384), (512, 384), (512, 384), (512, 384), (512, 384), (512, 384), (512, 384), (512, 384), (512, 384), (512, 384), (512, 384), (512, 384), (512, 384), (512, 384), (512, 384), (512, 384), (512, 384), (512, 384), (512, 384), (512, 384), (512, 384), (512, 384), (512, 384), (511, 385), (511, 385), (511, 386), (510, 386), (510, 386), (510, 386), (510, 386), (510, 386), (510, 386), (510, 386), (510, 386), (510, 386), (510, 386), (510, 386), (510, 386), (510, 386), (510, 386), (510, 386), (510, 386), (510, 386), (510, 386), (510, 386), (510, 386), (510, 386), (510, 386), (510, 386), (510, 386), (510, 386), (510, 386), (510, 386), (510, 386), (510, 386), (510, 386), (510, 386), (509, 387), (508, 387), (507, 388), (506, 389), (506, 390), (506, 390), (506, 390), (505, 390), (505, 390), (504, 391), (504, 391), (502, 392), (500, 393), (497, 394), (496, 395), (495, 395), (493, 396), (492, 397), (491, 397), (488, 397), (484, 399), (479, 400), (476, 401), (472, 403), (465, 403), (461, 404), (456, 404), (452, 405), (446, 407), (443, 407), (441, 407), (437, 408), (432, 411), (426, 413), (420, 418), (411, 424), (393, 441), (385, 450), (374, 462), (364, 477), (348, 500), (338, 513), (328, 526), (320, 537), (309, 555)]",139.89040205805387,"[1, 6, 3, 4, 2, 5, 7, 9, 8]","(0, 0.25)",THI001B,THI,B,Chinese,Mon Aug 20 15:40:03 2018,Mouse
2,2,2,0,33,2,2,1,794,594,200,140,0,500,200,8000,"[(512, 384), (512, 384), (512, 384), (512, 384), (512, 384), (512, 384), (512, 384), (512, 384), (512, 384), (512, 384), (512, 384), (512, 384), (512, 384), (512, 384), (512, 384), (512, 384), (512, 384), (512, 384), (512, 384), (512, 384), (512, 384), (512, 384), (512, 384), (512, 384), (512, 384), (512, 384), (512, 384), (512, 384), (512, 384), (512, 384), (512, 384), (512, 384), (512, 384), (512, 384), (512, 384), (512, 384), (512, 384), (512, 384), (512, 384), (512, 384), (512, 384), (512, 384), (512, 384), (512, 384), (512, 384), (512, 384), (512, 384), (512, 384), (512, 384), (512, 384), (512, 384), (512, 384), (512, 384), (512, 384), (512, 384), (512, 384), (512, 384), (512, 384), (512, 384), (510, 384), (506, 384), (504, 384), (501, 384), (498, 384), (496, 384), (494, 384), (494, 383), (494, 383), (493, 383), (492, 383), (491, 382), (485, 382), (477, 382), (466, 382), (449, 382), (404, 382), (376, 382), (340, 382), (307, 382), (240, 382)]",180.42128490416857,"[1, 6, 3, 4, 2, 5, 7, 9, 8]","(0, 0.25)",THI001B,THI,B,Chinese,Mon Aug 20 15:40:03 2018,Mouse
2,2,2,0,34,3,3,1,594,504,90,140,0,500,200,8000,"[(512, 384), (512, 384), (512, 384), (512, 384), (512, 384), (512, 384), (512, 384), (512, 384), (512, 384), (512, 384), (512, 384), (512, 384), (512, 384), (512, 384), (512, 384), (512, 384), (512, 384), (512, 384), (512, 384), (512, 384), (512, 384), (512, 384), (512, 384), (512, 384), (512, 384), (512, 384), (512, 384), (512, 384), (512, 384), (512, 384), (512, 384), (512, 384), (512, 384), (512, 384), (512, 384), (512, 384), (512, 384), (512, 384), (512, 384), (512, 384), (512, 384), (512, 384), (512, 384), (512, 384), (512, 384), (512, 384), (512, 384), (512, 384), (512, 384), (512, 384), (512, 391), (504, 422), (501, 446), (499, 467), (494, 491), (488, 536), (487, 559), (486, 579), (486, 602), (478, 644)]",97.45024906865619,"[1, 6, 3, 4, 2, 5, 7, 9, 8]","(0, 0.25)",THI001B,THI,B,Chinese,Mon Aug 20 15:40:03 2018,Mouse
2,2,2,0,35,3,7,0,-530,420,110,139,0,500,200,8000,"[(512, 384), (512, 384), (512, 384), (512, 384), (512, 384), (512, 384), (512, 384), (512, 384), (512, 384), (512, 384), (512, 384), (512, 384), (512, 384), (512, 384), (512, 384), (512, 384), (512, 384), (512, 384), (512, 384), (512, 384), (512, 384), (512, 384), (512, 384), (512, 384), (512, 384), (512, 384), (512, 384), (512, 384), (512, 384), (512, 384), (512, 384), (512, 384), (512, 384), (512, 384), (512, 384), (512, 384), (512, 384), (512, 384), (512, 384), (512, 384), (512, 384), (512, 382), (512, 374), (512, 354), (510, 338), (509, 323), (506, 304), (503, 255), (503, 227), (503, 199), (503, 179), (503, 137), (503, 120)]",268.0474909506004,"[1, 6, 3, 4, 2, 5, 7, 9, 8]","(0, 0.25)",THI001B,THI,B,Chinese,Mon Aug 20 15:40:03 2018,Mouse
2,2,2,0,36,6,6,1,934,834,100,140,0,500,200,8000,"[(512, 384), (512, 384), (512, 384), (512, 384), (512, 384), (512, 384), (512, 384), (512, 384), (512, 384), (512, 384), (512, 384), (512, 384), (512, 384), (512, 384), (512, 384), (512, 384), (512, 384), (512, 384), (512, 384), (512, 384), (512, 384), (512, 384), (512, 384), (512, 384), (512, 384), (512, 384), (512, 384), (512, 384), (512, 384), (512, 384), (512, 384), (512, 384), (512, 384), (512, 384), (512, 384), (512, 384), (512, 384), (512, 384), (512, 384), (512, 384), (512, 384), (512, 384), (512, 384), (512, 384), (512, 384), (512, 384), (512, 384), (512, 384), (512, 384), (512, 384), (512, 384), (512, 384), (512, 384), (512, 384), (512, 384), (512, 384), (512, 384), (512, 384), (512, 384), (512, 384), (512, 384), (512, 384), (512, 384), (512, 384), (512, 384), (512, 384), (512, 384), (512, 384), (512, 384), (512, 384), (512, 384), (512, 384), (512, 384), (512, 384), (512, 384), (512, 384), (512, 384), (512, 384), (512, 384), (512, 384), (512, 384), (512, 384), (512, 384), (512, 390), (514, 402), (525, 420), (542, 468), (551, 489), (563, 515), (571, 540), (587, 586), (593, 599), (598, 612), (604, 623)]",68.94642623894264,"[1, 6, 3, 4, 2, 5, 7, 9, 8]","(0, 0.25)",THI001B,THI,B,Chinese,Mon Aug 20 15:40:03 2018,Mouse
2,2,2,0,37,4,4,1,572,412,160,140,0,500,200,8000,"[(512, 384), (512, 384), (512, 384), (512, 384), (512, 384), (512, 384), (512, 384), (512, 384), (512, 384), (512, 384), (512, 384), (512, 384), (512, 384), (512, 384), (512, 384), (512, 384), (512, 384), (512, 384), (512, 384), (512, 384), (512, 384), (512, 384), (512, 384), (512, 384), (512, 384), (512, 384), (512, 384), (512, 384), (512, 384), (512, 384), (512, 384), (512, 384), (512, 384), (512, 384), (512, 384), (512, 384), (512, 384), (512, 384), (512, 384), (512, 384), (512, 384), (511, 387), (506, 388), (502, 390), (498, 392), (491, 396), (487, 399), (482, 401), (473, 407), (453, 423), (441, 430), (427, 443), (417, 453), (390, 477), (376, 488), (353, 506), (339, 516), (306, 537)]",143.39804636895852,"[1, 6, 3, 4, 2, 5, 7, 9, 8]","(0, 0.25)",THI001B,THI,B,Chinese,Mon Aug 20 15:40:03 2018,Mouse
2,2,2,0,38,3,8,0,-721,601,120,139,0,500,200,8000,"[(512, 384), (512, 384), (512, 384), (512, 384), (512, 384), (512, 384), (512, 384), (512, 384), (512, 384), (512, 384), (512, 384), (512, 384), (512, 384), (512, 384), (512, 384), (512, 384), (512, 384), (512, 384), (512, 384), (512, 384), (512, 384), (512, 384), (512, 384), (512, 384), (512, 384), (512, 384), (512, 384), (512, 384), (512, 384), (512, 384), (512, 384), (512, 384), (512, 384), (512, 384), (512, 384), (512, 384), (512, 384), (512, 384), (512, 384), (512, 384), (512, 384), (512, 384), (512, 384), (512, 384), (512, 384), (512, 384), (512, 384), (512, 384), (512, 384), (512, 384), (512, 384), (512, 384), (512, 384), (512, 384), (512, 384), (512, 384), (512, 384), (512, 384), (512, 384), (512, 384), (513, 382), (515, 376), (519, 370), (523, 360), (536, 335), (543, 322), (553, 310), (562, 300), (600, 284), (628, 275), (658, 269), (692, 265), (737, 259)]",330.94539590092285,"[1, 6, 3, 4, 2, 5, 7, 9, 8]","(0, 0.25)",THI001B,THI,B,Chinese,Mon Aug 20 15:40:03 2018,Mouse
2,2,2,0,39,9,9,1,492,382,110,140,0,500,200,8000,"[(512, 384), (512, 384), (512, 384), (512, 384), (512, 384), (512, 384), (512, 384), (512, 384), (512, 384), (512, 384), (512, 384), (512, 384), (512, 384), (512, 384), (512, 384), (512, 384), (512, 384), (512, 384), (512, 384), (512, 384), (512, 384), (512, 384), (512, 384), (512, 384), (512, 384), (512, 384), (512, 384), (512, 384), (512, 384), (512, 384), (512, 384), (512, 384), (512, 384), (512, 384), (512, 384), (512, 384), (512, 384), (512, 384), (512, 378), (512, 368), (514, 341), (520, 319), (526, 297), (534, 269), (553, 229), (563, 208), (574, 187), (584, 175), (597, 152), (602, 144)]",290.55604521958344,"[1, 6, 3, 4, 2, 5, 7, 9, 8]","(0, 0.25)",THI001B,THI,B,Chinese,Mon Aug 20 15:40:03 2018,Mouse
2,2,2,0,40,3,2,0,-1992,792,1200,140,0,500,200,8000,"[(512, 384), (512, 384), (512, 384), (512, 384), (512, 384), (512, 384), (512, 384), (512, 384), (512, 384), (512, 384), (512, 384), (512, 384), (512, 384), (512, 384), (512, 384), (512, 384), (512, 384), (512, 384), (512, 384), (512, 384), (512, 384), (512, 384), (512, 384), (512, 384), (512, 384), (512, 384), (512, 384), (512, 384), (512, 384), (512, 384), (512, 384), (512, 384), (512, 384), (512, 384), (512, 384), (512, 384), (512, 384), (512, 384), (512, 384), (512, 384), (512, 384), (512, 384), (512, 384), (512, 384), (512, 384), (512, 384), (512, 384), (512, 384), (512, 384), (512, 384), (512, 384), (512, 384), (512, 384), (512, 384), (512, 384), (512, 384), (512, 384), (512, 384), (512, 384), (512, 384), (512, 384), (512, 384), (512, 384), (512, 384), (512, 384), (512, 384), (512, 384), (512, 384), (512, 384), (512, 384), (512, 384), (512, 384), (512, 384), (512, 384), (512, 384), (512, 384), (512, 384), (512, 384), (512, 384), (504, 387), (501, 388), (496, 389), (495, 390), (490, 393), (488, 394), (487, 394), (486, 396), (484, 398), (483, 399), (482, 401), (482, 402), (481, 404), (481, 404), (481, 406), (481, 406), (481, 406), (481, 406), (481, 406), (481, 406), (481, 406), (481, 406), (481, 406), (481, 406), (481, 406), (481, 406), (481, 406), (481, 406), (481, 406), (481, 406), (481, 406), (481, 406), (481, 406), (481, 406), (481, 406), (481, 406), (481, 406), (481, 406), (481, 406), (481, 406), (481, 406), (481, 406), (481, 406), (481, 406), (481, 406), (481, 406), (481, 406), (481, 406), (481, 406), (481, 406), (481, 406), (481, 406), (481, 406), (481, 406), (481, 406), (481, 406), (481, 406), (481, 406), (481, 406), (481, 406), (481, 406), (481, 406), (481, 406), (481, 406), (481, 406), (481, 406), (481, 406), (481, 406), (481, 406), (481, 406), (481, 406), (481, 406), (481, 406), (481, 406), (481, 406), (481, 406), (481, 406), (481, 406), (481, 406), (481, 406), (481, 406), (481, 406), (481, 406), (481, 406), (481, 406), (481, 406), (481, 406), (481, 406), (481, 406), (481, 406), (481, 406), (481, 406), (481, 406), (481, 406), (481, 406), (481, 406), (481, 406), (481, 406), (481, 406), (481, 406), (481, 406), (481, 406), (481, 406), (481, 406), (481, 406), (481, 406), (481, 406), (481, 406), (481, 406), (481, 406), (480, 407), (477, 407), (463, 407), (452, 407), (436, 407), (422, 407), (374, 407), (352, 407), (321, 407), (285, 407), (231, 405)]",175.72605390240307,"[1, 6, 3, 4, 2, 5, 7, 9, 8]","(0, 0.25)",THI001B,THI,B,Chinese,Mon Aug 20 15:40:03 2018,Mouse
2,2,2,0,41,3,3,1,832,232,600,141,0,500,200,8000,"[(512, 384), (512, 384), (512, 384), (512, 384), (512, 384), (512, 384), (512, 384), (512, 384), (512, 384), (512, 384), (512, 384), (512, 384), (512, 384), (512, 384), (512, 384), (512, 384), (512, 384), (512, 384), (512, 384), (512, 384), (512, 384), (512, 384), (512, 384), (511, 384), (511, 387), (513, 392), (513, 394), (513, 398), (514, 411), (515, 419), (515, 430), (515, 439), (515, 460), (515, 469), (515, 479), (514, 490), (511, 507), (510, 517), (507, 528), (507, 536), (504, 553), (503, 559), (501, 567), (501, 573), (500, 584), (497, 591), (497, 597), (497, 600), (496, 608), (496, 611), (496, 614), (496, 614), (496, 617), (496, 617), (495, 619), (495, 619), (495, 622), (495, 623), (495, 624), (495, 627), (495, 628), (495, 630), (495, 630), (495, 630), (494, 632), (494, 632), (494, 632), (494, 632), (494, 632), (494, 632), (494, 632), (494, 632), (494, 633), (494, 633), (494, 633), (494, 633), (494, 633), (494, 633), (494, 633), (494, 633), (494, 633), (494, 633), (494, 633), (494, 635)]",94.10183868767085,"[1, 6, 3, 4, 2, 5, 7, 9, 8]","(0, 0.25)",THI001B,THI,B,Chinese,Mon Aug 20 15:40:03 2018,Mouse
2,2,2,0,42,2,2,1,931,301,630,141,0,500,200,8000,"[(512, 384), (512, 384), (512, 384), (512, 384), (512, 384), (512, 384), (512, 384), (512, 384), (512, 384), (512, 384), (512, 384), (512, 384), (512, 384), (512, 384), (512, 384), (512, 384), (512, 384), (512, 384), (512, 384), (512, 384), (512, 384), (512, 384), (512, 384), (512, 384), (512, 384), (512, 384), (512, 384), (512, 384), (512, 384), (512, 384), (512, 385), (512, 385), (512, 385), (512, 384), (512, 383), (512, 383), (512, 383), (512, 383), (512, 383), (512, 383), (512, 383), (512, 383), (512, 383), (512, 383), (512, 383), (512, 383), (512, 383), (512, 383), (512, 383), (512, 383), (512, 383), (512, 383), (512, 383), (512, 383), (512, 383), (512, 383), (512, 383), (512, 383), (512, 383), (512, 383), (512, 383), (512, 383), (512, 383), (512, 383), (512, 383), (512, 383), (512, 383), (512, 383), (512, 383), (512, 383), (512, 383), (512, 383), (512, 383), (512, 383), (512, 383), (512, 383), (510, 382), (507, 382), (505, 382), (503, 382), (500, 382), (491, 382), (479, 382), (465, 382), (452, 382), (418, 382), (403, 382), (381, 382), (361, 382), (319, 382), (302, 382), (285, 382), (266, 382), (240, 382)]",180.42128490416857,"[1, 6, 3, 4, 2, 5, 7, 9, 8]","(0, 0.25)",THI001B,THI,B,Chinese,Mon Aug 20 15:40:03 2018,Mouse
2,2,2,0,43,9,7,0,-522,372,150,140,0,500,200,8000,"[(512, 384), (512, 384), (512, 384), (512, 384), (512, 384), (512, 384), (512, 384), (512, 384), (512, 384), (512, 384), (512, 384), (512, 384), (512, 384), (512, 384), (512, 384), (512, 384), (512, 384), (512, 384), (512, 384), (512, 384), (512, 384), (512, 384), (512, 384), (512, 384), (512, 384), (512, 384), (512, 384), (512, 384), (512, 384), (512, 384), (512, 384), (512, 384), (512, 384), (512, 384), (512, 384), (512, 384), (512, 384), (513, 384), (513, 374), (510, 354), (504, 309), (504, 287), (504, 267), (504, 242), (503, 210), (503, 193), (503, 182), (503, 171), (503, 156), (503, 148), (503, 143), (505, 136), (506, 122)]",268.6881122174959,"[1, 6, 3, 4, 2, 5, 7, 9, 8]","(0, 0.25)",THI001B,THI,B,Chinese,Mon Aug 20 15:40:03 2018,Mouse
2,2,2,0,44,4,4,1,1001,581,420,141,0,500,200,8000,"[(512, 384), (512, 384), (512, 384), (512, 384), (512, 384), (512, 384), (512, 384), (512, 384), (512, 384), (512, 384), (512, 384), (512, 384), (512, 384), (512, 384), (512, 384), (512, 384), (512, 384), (512, 384), (512, 384), (512, 384), (512, 384), (512, 384), (512, 384), (512, 384), (512, 384), (512, 384), (512, 384), (512, 384), (512, 384), (512, 384), (512, 384), (512, 384), (512, 384), (512, 384), (512, 384), (512, 384), (512, 384), (512, 384), (512, 384), (512, 384), (512, 384), (512, 384), (512, 384), (512, 384), (512, 384), (512, 384), (512, 384), (512, 384), (512, 384), (512, 384), (512, 384), (512, 384), (512, 384), (512, 384), (512, 384), (512, 384), (512, 384), (512, 384), (512, 386), (514, 389), (515, 391), (516, 393), (516, 393), (516, 393), (516, 393), (516, 393), (516, 393), (516, 393), (516, 393), (516, 393), (516, 393), (516, 393), (516, 393), (516, 393), (516, 393), (516, 393), (516, 393), (516, 393), (516, 393), (516, 393), (516, 393), (516, 393), (516, 393), (516, 393), (516, 393), (516, 393), (516, 393), (516, 393), (516, 393), (516, 393), (516, 393), (516, 393), (511, 403), (503, 411), (492, 423), (472, 437), (431, 481), (409, 505), (387, 529), (362, 553), (313, 594)]",133.4594090970046,"[1, 6, 3, 4, 2, 5, 7, 9, 8]","(0, 0.25)",THI001B,THI,B,Chinese,Mon Aug 20 15:40:03 2018,Mouse
2,2,2,0,45,6,6,1,592,522,70,141,0,500,200,8000,"[(512, 384), (512, 384), (512, 384), (512, 384), (512, 384), (512, 384), (512, 384), (512, 384), (512, 384), (512, 384), (512, 384), (512, 384), (512, 384), (512, 384), (512, 384), (512, 384), (512, 384), (512, 384), (512, 384), (512, 384), (512, 384), (512, 384), (512, 384), (512, 384), (512, 384), (512, 384), (512, 384), (512, 384), (512, 384), (512, 384), (512, 384), (512, 384), (512, 384), (512, 384), (512, 384), (512, 384), (512, 384), (512, 384), (512, 384), (512, 384), (512, 384), (512, 384), (512, 384), (512, 384), (512, 384), (512, 384), (512, 384), (512, 384), (512, 384), (512, 384), (512, 384), (512, 384), (511, 384), (511, 391), (514, 403), (525, 423), (561, 476), (593, 518), (627, 555), (663, 593)]",54.152339049401995,"[1, 6, 3, 4, 2, 5, 7, 9, 8]","(0, 0.25)",THI001B,THI,B,Chinese,Mon Aug 20 15:40:03 2018,Mouse
2,2,2,0,46,2,2,1,651,331,320,140,0,500,200,8000,"[(512, 384), (512, 384), (512, 384), (512, 384), (512, 384), (512, 384), (512, 384), (512, 384), (512, 384), (512, 384), (512, 384), (512, 384), (512, 384), (512, 384), (512, 384), (512, 384), (512, 384), (512, 384), (512, 384), (512, 384), (512, 384), (512, 384), (512, 384), (512, 384), (512, 384), (512, 384), (512, 384), (512, 384), (512, 384), (512, 384), (512, 384), (512, 384), (512, 384), (512, 379), (512, 377), (512, 376), (512, 375), (512, 375), (512, 375), (512, 375), (512, 375), (512, 375), (512, 375), (512, 375), (512, 375), (512, 375), (512, 375), (512, 375), (512, 375), (512, 375), (508, 373), (505, 373), (501, 372), (489, 368), (485, 367), (475, 366), (464, 366), (433, 362), (415, 361), (397, 359), (378, 356), (335, 353), (312, 351), (295, 351), (278, 351), (248, 351)]",187.1250163489018,"[1, 6, 3, 4, 2, 5, 7, 9, 8]","(0, 0.25)",THI001B,THI,B,Chinese,Mon Aug 20 15:40:03 2018,Mouse
2,2,2,0,47,9,7,0,-762,642,120,139,0,500,200,8000,"[(512, 384), (512, 384), (512, 384), (512, 384), (512, 384), (512, 384), (512, 384), (512, 384), (512, 384), (512, 384), (512, 384), (512, 384), (512, 384), (512, 384), (512, 384), (512, 384), (512, 384), (512, 384), (512, 384), (512, 384), (512, 384), (512, 384), (512, 384), (512, 384), (512, 384), (512, 384), (512, 384), (512, 384), (512, 384), (512, 384), (512, 384), (512, 384), (512, 384), (512, 384), (512, 384), (512, 384), (512, 384), (512, 384), (512, 384), (512, 384), (512, 384), (512, 384), (512, 384), (512, 384), (512, 384), (512, 384), (512, 384), (512, 384), (512, 384), (512, 384), (512, 384), (512, 384), (512, 384), (512, 384), (512, 384), (512, 384), (512, 384), (512, 384), (512, 384), (512, 384), (512, 384), (512, 384), (512, 384), (512, 384), (511, 377), (510, 369), (510, 361), (510, 347), (510, 322), (510, 307), (510, 286), (510, 264), (510, 200), (510, 200), (510, 160), (510, 141), (510, 115)]",269.57401692335685,"[1, 6, 3, 4, 2, 5, 7, 9, 8]","(0, 0.25)",THI001B,THI,B,Chinese,Mon Aug 20 15:40:03 2018,Mouse
2,2,2,0,48,8,8,1,712,522,190,140,0,500,200,8000,"[(512, 384), (512, 384), (512, 384), (512, 384), (512, 384), (512, 384), (512, 384), (512, 384), (512, 384), (512, 384), (512, 384), (512, 384), (512, 384), (512, 384), (512, 384), (512, 384), (512, 384), (512, 384), (512, 384), (512, 384), (512, 384), (512, 384), (512, 384), (512, 384), (512, 384), (512, 384), (512, 384), (512, 384), (512, 384), (512, 384), (512, 384), (512, 384), (512, 384), (512, 384), (512, 384), (512, 384), (512, 384), (512, 384), (512, 384), (512, 384), (512, 384), (512, 384), (512, 384), (512, 384), (512, 384), (512, 384), (512, 384), (512, 384), (512, 384), (512, 384), (512, 384), (512, 384), (512, 382), (513, 380), (515, 379), (518, 378), (527, 375), (534, 373), (539, 371), (546, 368), (560, 363), (568, 360), (577, 356), (588, 353), (614, 349), (628, 347), (644, 343), (663, 337), (707, 327), (729, 321), (745, 319), (764, 314)]",344.47588900324575,"[1, 6, 3, 4, 2, 5, 7, 9, 8]","(0, 0.25)",THI001B,THI,B,Chinese,Mon Aug 20 15:40:03 2018,Mouse
2,2,2,0,49,2,2,1,1174,754,420,140,0,500,200,8000,"[(512, 384), (512, 384), (512, 384), (512, 384), (512, 384), (512, 384), (512, 384), (512, 384), (512, 384), (512, 384), (512, 384), (512, 384), (512, 384), (512, 384), (512, 384), (512, 384), (512, 384), (512, 384), (512, 384), (512, 384), (512, 384), (512, 384), (512, 384), (512, 384), (512, 384), (512, 384), (512, 384), (512, 384), (512, 384), (512, 384), (512, 384), (512, 384), (512, 384), (512, 384), (512, 384), (512, 384), (512, 384), (512, 384), (512, 384), (512, 384), (512, 384), (512, 384), (512, 384), (512, 384), (512, 384), (512, 384), (512, 384), (512, 384), (512, 384), (512, 384), (512, 384), (512, 384), (512, 384), (512, 384), (512, 384), (512, 384), (512, 384), (512, 384), (512, 384), (512, 384), (512, 384), (512, 384), (512, 384), (512, 384), (512, 384), (512, 384), (512, 384), (512, 384), (512, 384), (512, 384), (512, 384), (512, 384), (512, 384), (512, 384), (512, 384), (510, 384), (504, 381), (502, 381), (499, 381), (498, 381), (494, 380), (492, 380), (491, 380), (491, 380), (489, 380), (489, 380), (489, 380), (489, 380), (489, 380), (489, 380), (489, 380), (489, 380), (489, 380), (489, 380), (489, 380), (488, 380), (483, 380), (480, 380), (478, 380), (476, 380), (470, 380), (467, 380), (464, 380), (461, 380), (452, 380), (445, 380), (440, 380), (433, 380), (414, 380), (403, 380), (391, 380), (379, 380), (350, 380), (335, 380), (318, 380), (304, 380), (274, 380), (257, 380)]",180.89868362073798,"[1, 6, 3, 4, 2, 5, 7, 9, 8]","(0, 0.25)",THI001B,THI,B,Chinese,Mon Aug 20 15:40:03 2018,Mouse
2,2,2,0,50,4,4,1,852,772,80,139,0,500,200,8000,"[(512, 384), (512, 384), (512, 384), (512, 384), (512, 384), (512, 384), (512, 384), (512, 384), (512, 384), (512, 384), (512, 384), (512, 384), (512, 384), (512, 384), (512, 384), (512, 384), (512, 384), (512, 384), (512, 384), (512, 384), (512, 384), (512, 384), (512, 384), (512, 384), (512, 384), (512, 384), (512, 384), (512, 384), (512, 384), (512, 384), (512, 384), (512, 384), (512, 384), (512, 384), (512, 384), (512, 384), (512, 384), (512, 384), (512, 384), (512, 384), (512, 384), (512, 384), (512, 384), (512, 384), (512, 384), (512, 384), (512, 384), (512, 384), (512, 384), (512, 384), (512, 384), (512, 384), (512, 384), (512, 384), (512, 384), (512, 384), (512, 384), (512, 384), (512, 384), (512, 384), (512, 384), (512, 384), (512, 384), (512, 384), (512, 384), (512, 384), (512, 384), (512, 384), (512, 384), (512, 384), (512, 384), (512, 384), (512, 384), (512, 384), (512, 384), (512, 384), (512, 384), (510, 384), (503, 389), (478, 423), (464, 445), (441, 473), (422, 499), (378, 551), (357, 572), (336, 591)]",130.3725701932793,"[1, 6, 3, 4, 2, 5, 7, 9, 8]","(0, 0.25)",THI001B,THI,B,Chinese,Mon Aug 20 15:40:03 2018,Mouse
2,2,2,0,51,2,2,1,1112,662,450,138,0,500,200,8000,"[(512, 384), (512, 384), (512, 384), (512, 384), (512, 384), (512, 384), (512, 384), (512, 384), (512, 384), (512, 384), (512, 384), (512, 384), (512, 384), (512, 384), (512, 384), (512, 384), (512, 384), (512, 384), (512, 384), (512, 384), (512, 384), (512, 384), (512, 384), (512, 384), (512, 384), (512, 384), (512, 384), (512, 384), (512, 384), (512, 384), (512, 384), (512, 384), (512, 384), (512, 384), (512, 384), (512, 384), (512, 384), (512, 384), (512, 384), (512, 384), (512, 384), (512, 384), (512, 384), (512, 384), (512, 384), (512, 384), (512, 384), (512, 384), (512, 384), (512, 384), (512, 384), (512, 384), (512, 384), (512, 384), (512, 384), (512, 384), (512, 384), (512, 384), (512, 384), (512, 384), (512, 384), (512, 384), (512, 384), (512, 384), (512, 384), (512, 384), (512, 393), (512, 401), (512, 411), (511, 422), (507, 450), (505, 459), (504, 464), (502, 467), (501, 469), (501, 469), (501, 469), (501, 469), (501, 469), (501, 469), (501, 469), (501, 469), (501, 469), (501, 469), (499, 469), (497, 468), (493, 460), (493, 456), (492, 453), (491, 448), (490, 443), (489, 440), (488, 437), (486, 434), (485, 429), (484, 427), (483, 424), (482, 422), (480, 417), (478, 416), (477, 414), (474, 412), (467, 407), (460, 406), (452, 404), (440, 403), (415, 399), (398, 398), (375, 395), (347, 395), (272, 395), (235, 395)]",177.725911231273,"[1, 6, 3, 4, 2, 5, 7, 9, 8]","(0, 0.25)",THI001B,THI,B,Chinese,Mon Aug 20 15:40:03 2018,Mouse
2,2,2,0,52,8,8,1,1002,912,90,137,0,500,200,8000,"[(512, 384), (512, 384), (512, 384), (512, 384), (512, 384), (512, 384), (512, 384), (512, 384), (512, 384), (512, 384), (512, 384), (512, 384), (512, 384), (512, 384), (512, 384), (512, 384), (512, 384), (512, 384), (512, 384), (512, 384), (512, 384), (512, 384), (512, 384), (512, 384), (512, 384), (512, 384), (512, 384), (512, 384), (512, 384), (512, 384), (512, 384), (512, 384), (512, 384), (512, 384), (512, 384), (512, 384), (512, 384), (512, 384), (512, 384), (512, 384), (512, 384), (512, 384), (512, 384), (512, 384), (512, 384), (512, 384), (512, 384), (512, 384), (512, 384), (512, 384), (512, 384), (512, 384), (512, 384), (512, 384), (512, 384), (512, 384), (512, 384), (512, 384), (512, 384), (512, 384), (512, 384), (512, 384), (512, 384), (512, 384), (512, 384), (512, 384), (512, 384), (512, 384), (512, 384), (512, 384), (512, 384), (512, 384), (512, 384), (512, 384), (512, 384), (512, 384), (512, 384), (512, 384), (512, 384), (512, 384), (512, 384), (512, 384), (512, 384), (512, 384), (512, 384), (512, 384), (512, 384), (512, 384), (512, 384), (512, 384), (512, 384), (522, 384), (532, 382), (543, 382), (555, 378), (590, 374), (617, 370), (654, 366), (687, 361), (753, 345), (784, 335)]",349.7878650676529,"[1, 6, 3, 4, 2, 5, 7, 9, 8]","(0, 0.25)",THI001B,THI,B,Chinese,Mon Aug 20 15:40:03 2018,Mouse
2,2,2,0,53,1,6,0,-832,32,800,136,0,500,200,8000,"[(512, 384), (512, 384), (512, 384), (511, 384), (511, 384), (511, 384), (511, 384), (511, 384), (511, 384), (511, 384), (511, 386), (511, 387), (511, 387), (511, 387), (511, 387), (511, 387), (511, 387), (511, 387), (511, 387), (511, 387), (511, 387), (511, 387), (511, 387), (511, 387), (511, 387), (511, 387), (511, 387), (511, 387), (511, 387), (511, 387), (511, 387), (511, 387), (511, 387), (511, 387), (511, 387), (511, 387), (511, 387), (511, 387), (511, 387), (511, 387), (511, 387), (511, 387), (511, 387), (511, 387), (511, 387), (511, 387), (511, 387), (511, 387), (511, 387), (511, 387), (511, 387), (511, 387), (511, 387), (511, 387), (511, 387), (511, 387), (511, 387), (511, 387), (511, 387), (511, 387), (511, 387), (511, 387), (511, 387), (516, 395), (526, 401), (536, 408), (552, 418), (577, 441), (591, 452), (601, 463), (614, 475), (635, 502), (648, 517), (654, 527), (663, 540), (669, 554), (670, 558), (672, 562), (672, 563), (672, 566), (672, 569), (672, 570), (672, 572), (672, 577)]",50.34074059050171,"[1, 6, 3, 4, 2, 5, 7, 9, 8]","(0, 0.25)",THI001B,THI,B,Chinese,Mon Aug 20 15:40:03 2018,Mouse
2,2,2,0,54,2,2,1,842,622,220,137,0,500,200,8000,"[(512, 384), (512, 384), (512, 384), (512, 384), (512, 384), (512, 384), (512, 384), (512, 384), (512, 384), (512, 384), (512, 384), (512, 384), (512, 384), (512, 384), (512, 384), (512, 384), (512, 384), (512, 384), (512, 384), (512, 384), (512, 384), (512, 384), (512, 384), (512, 384), (512, 384), (512, 384), (512, 384), (512, 384), (512, 384), (512, 384), (512, 384), (512, 384), (512, 384), (512, 384), (512, 384), (512, 384), (512, 384), (512, 384), (512, 384), (512, 384), (512, 384), (512, 384), (512, 384), (512, 384), (512, 384), (512, 384), (512, 384), (512, 384), (512, 384), (512, 384), (512, 384), (512, 384), (512, 384), (512, 384), (512, 384), (512, 384), (512, 384), (512, 384), (512, 384), (512, 384), (512, 384), (512, 384), (511, 384), (511, 384), (508, 384), (506, 384), (504, 384), (501, 384), (497, 384), (490, 384), (480, 384), (470, 384), (449, 384), (437, 384), (426, 384), (414, 384), (384, 384), (369, 384), (356, 384), (329, 384), (316, 384), (302, 384), (287, 384), (273, 384), (237, 384)]",180.0,"[1, 6, 3, 4, 2, 5, 7, 9, 8]","(0, 0.25)",THI001B,THI,B,Chinese,Mon Aug 20 15:40:03 2018,Mouse
2,2,2,0,55,6,4,0,-913,813,100,137,0,500,200,8000,"[(512, 384), (512, 384), (512, 384), (512, 384), (512, 384), (512, 384), (512, 384), (512, 384), (512, 384), (512, 384), (512, 384), (512, 384), (512, 384), (512, 384), (512, 384), (512, 384), (512, 384), (512, 384), (512, 384), (512, 384), (512, 384), (512, 384), (512, 384), (512, 384), (512, 384), (512, 384), (512, 384), (512, 384), (512, 384), (512, 384), (512, 384), (512, 384), (512, 384), (512, 384), (512, 384), (512, 384), (512, 384), (512, 384), (512, 384), (512, 384), (512, 384), (512, 384), (512, 384), (512, 384), (512, 384), (512, 384), (512, 384), (512, 384), (512, 384), (512, 384), (512, 384), (512, 384), (512, 384), (512, 384), (512, 384), (512, 384), (512, 384), (512, 384), (512, 384), (512, 384), (512, 384), (512, 384), (512, 384), (512, 384), (512, 384), (512, 384), (512, 384), (512, 384), (512, 384), (512, 384), (512, 384), (512, 384), (512, 384), (512, 384), (512, 384), (512, 384), (512, 384), (512, 384), (512, 384), (512, 384), (512, 384), (511, 385), (507, 389), (486, 406), (471, 419), (456, 433), (439, 444), (406, 474), (384, 496), (361, 516), (343, 531), (311, 556)]",139.4456883534957,"[1, 6, 3, 4, 2, 5, 7, 9, 8]","(0, 0.25)",THI001B,THI,B,Chinese,Mon Aug 20 15:40:03 2018,Mouse
2,2,2,0,56,5,8,0,-922,852,70,138,0,500,200,8000,"[(512, 384), (512, 384), (512, 384), (512, 384), (512, 384), (512, 384), (512, 384), (512, 384), (512, 384), (512, 384), (512, 384), (512, 384), (512, 384), (512, 384), (512, 384), (512, 384), (512, 384), (512, 384), (512, 384), (512, 384), (512, 384), (512, 384), (512, 384), (512, 384), (512, 384), (512, 384), (512, 384), (512, 384), (512, 384), (512, 384), (512, 384), (512, 384), (512, 384), (512, 384), (512, 384), (512, 384), (512, 384), (512, 384), (512, 384), (512, 384), (512, 384), (512, 384), (512, 384), (512, 384), (512, 384), (512, 384), (512, 384), (512, 384), (512, 384), (512, 384), (512, 384), (512, 384), (512, 384), (512, 384), (512, 384), (512, 384), (512, 384), (512, 384), (512, 384), (512, 384), (512, 384), (512, 384), (512, 384), (512, 384), (512, 384), (512, 384), (512, 384), (512, 384), (512, 384), (512, 384), (512, 384), (512, 384), (512, 384), (512, 384), (512, 384), (512, 384), (512, 384), (512, 384), (512, 384), (512, 384), (512, 384), (512, 384), (512, 384), (512, 384), (512, 384), (514, 381), (524, 374), (537, 369), (575, 358), (611, 348), (657, 340), (701, 330), (804, 315)]",346.7048085560686,"[1, 6, 3, 4, 2, 5, 7, 9, 8]","(0, 0.25)",THI001B,THI,B,Chinese,Mon Aug 20 15:40:03 2018,Mouse
2,2,2,0,57,6,6,1,2004,1904,100,139,0,500,200,8000,"[(512, 384), (512, 384), (512, 384), (512, 384), (512, 384), (512, 384), (512, 384), (512, 384), (512, 384), (512, 384), (512, 384), (512, 384), (512, 384), (512, 384), (512, 384), (512, 384), (512, 384), (512, 384), (512, 384), (512, 384), (512, 384), (512, 384), (512, 384), (512, 384), (512, 384), (512, 384), (512, 384), (512, 384), (512, 384), (512, 384), (512, 384), (512, 384), (512, 384), (512, 384), (512, 384), (512, 384), (512, 384), (512, 384), (512, 384), (512, 384), (512, 384), (512, 384), (512, 384), (512, 384), (512, 384), (512, 384), (512, 384), (512, 384), (512, 384), (512, 384), (512, 384), (512, 384), (512, 384), (512, 384), (512, 384), (512, 384), (512, 384), (512, 384), (512, 384), (512, 384), (512, 384), (512, 384), (512, 384), (512, 384), (512, 384), (512, 384), (512, 384), (512, 384), (512, 384), (512, 384), (512, 384), (512, 384), (512, 384), (512, 384), (512, 384), (512, 384), (512, 384), (512, 384), (512, 384), (512, 384), (512, 384), (512, 384), (512, 384), (512, 384), (512, 384), (512, 384), (512, 384), (512, 384), (512, 384), (512, 384), (512, 384), (512, 384), (512, 384), (512, 384), (512, 384), (512, 384), (512, 384), (512, 384), (512, 384), (512, 384), (512, 384), (512, 384), (512, 384), (512, 384), (512, 384), (512, 384), (512, 384), (512, 384), (512, 384), (512, 384), (512, 384), (512, 384), (512, 384), (512, 384), (512, 384), (512, 384), (512, 384), (512, 384), (512, 384), (512, 384), (512, 384), (512, 384), (512, 384), (512, 384), (512, 384), (512, 384), (512, 384), (512, 384), (512, 384), (512, 384), (512, 384), (512, 384), (512, 384), (512, 384), (512, 384), (512, 384), (512, 384), (512, 384), (512, 384), (512, 384), (512, 384), (512, 384), (512, 384), (512, 384), (512, 384), (512, 384), (512, 384), (512, 384), (512, 384), (512, 384), (512, 384), (512, 384), (512, 384), (512, 384), (512, 384), (512, 384), (512, 384), (512, 384), (512, 384), (512, 384), (512, 384), (512, 384), (512, 384), (512, 384), (512, 384), (512, 384), (512, 384), (512, 384), (512, 384), (512, 384), (512, 384), (512, 384), (512, 384), (512, 384), (512, 384), (512, 384), (512, 384), (512, 384), (512, 384), (512, 384), (512, 384), (512, 384), (512, 384), (512, 384), (512, 384), (512, 384), (512, 384), (512, 384), (512, 384), (512, 384), (511, 387), (513, 400), (518, 412), (522, 428), (528, 446), (550, 493), (560, 516), (572, 538), (587, 563), (613, 597), (628, 617)]",63.533395082594254,"[1, 6, 3, 4, 2, 5, 7, 9, 8]","(0, 0.25)",THI001B,THI,B,Chinese,Mon Aug 20 15:40:03 2018,Mouse
2,2,2,0,58,5,4,0,-744,634,110,139,0,500,200,8000,"[(512, 384), (512, 384), (512, 384), (512, 384), (512, 384), (512, 384), (512, 384), (512, 384), (512, 384), (512, 384), (512, 384), (512, 384), (512, 384), (512, 384), (512, 384), (512, 384), (512, 384), (512, 384), (512, 384), (512, 384), (512, 384), (512, 384), (512, 384), (512, 384), (512, 384), (512, 384), (512, 384), (512, 384), (512, 384), (512, 384), (512, 384), (512, 384), (512, 384), (512, 384), (512, 384), (512, 384), (512, 384), (512, 384), (512, 384), (512, 384), (512, 384), (512, 384), (512, 384), (512, 384), (512, 384), (512, 384), (512, 384), (512, 384), (512, 384), (512, 384), (512, 384), (512, 384), (512, 384), (512, 384), (512, 384), (512, 384), (512, 384), (512, 384), (512, 384), (512, 384), (512, 384), (512, 384), (512, 384), (509, 387), (505, 390), (496, 398), (472, 417), (446, 434), (422, 447), (405, 458), (366, 487), (349, 499), (332, 512), (317, 522), (294, 538)]",144.76177477504226,"[1, 6, 3, 4, 2, 5, 7, 9, 8]","(0, 0.25)",THI001B,THI,B,Chinese,Mon Aug 20 15:40:03 2018,Mouse
2,2,2,0,59,8,8,1,372,142,230,140,0,500,200,8000,"[(512, 384), (512, 384), (512, 384), (512, 384), (512, 384), (512, 384), (512, 384), (512, 384), (512, 384), (512, 384), (512, 384), (512, 384), (512, 384), (512, 384), (513, 381), (515, 379), (517, 378), (518, 376), (521, 373), (526, 371), (532, 368), (535, 367), (538, 365), (541, 364), (551, 360), (557, 357), (564, 355), (580, 349), (590, 343), (600, 338), (610, 331), (637, 315), (649, 309), (668, 303), (684, 295), (716, 282), (731, 276), (744, 270)]",333.8314530780551,"[1, 6, 3, 4, 2, 5, 7, 9, 8]","(0, 0.25)",THI001B,THI,B,Chinese,Mon Aug 20 15:40:03 2018,Mouse
2,2,2,0,60,5,5,1,662,402,260,140,0,500,200,8000,"[(512, 384), (512, 384), (512, 384), (512, 384), (512, 384), (512, 384), (512, 384), (512, 384), (512, 384), (512, 384), (512, 384), (512, 384), (512, 384), (512, 384), (512, 384), (512, 384), (512, 384), (512, 384), (512, 384), (512, 384), (512, 384), (512, 384), (512, 384), (512, 384), (512, 384), (512, 384), (512, 384), (512, 384), (512, 384), (512, 384), (512, 384), (512, 384), (512, 384), (512, 384), (512, 384), (512, 384), (512, 384), (512, 384), (512, 384), (512, 384), (509, 384), (502, 384), (493, 387), (477, 387), (466, 387), (455, 387), (443, 387), (418, 387), (406, 387), (394, 387), (382, 387), (356, 387), (345, 387), (338, 387), (328, 387), (316, 387), (314, 387), (310, 387), (306, 385), (297, 375), (295, 368), (290, 356), (286, 344), (283, 316), (283, 304), (283, 293), (282, 282)]",203.91624541761934,"[1, 6, 3, 4, 2, 5, 7, 9, 8]","(0, 0.25)",THI001B,THI,B,Chinese,Mon Aug 20 15:40:03 2018,Mouse
2,2,2,0,61,1,1,1,1262,842,420,139,0,500,200,8000,"[(512, 384), (512, 384), (512, 384), (512, 384), (512, 384), (512, 384), (512, 384), (512, 384), (512, 384), (512, 384), (512, 384), (512, 384), (512, 384), (512, 384), (512, 384), (512, 384), (512, 384), (512, 384), (512, 384), (512, 384), (512, 384), (512, 384), (512, 384), (512, 384), (512, 384), (512, 384), (512, 384), (512, 384), (512, 384), (512, 384), (512, 384), (512, 384), (512, 384), (512, 384), (512, 384), (512, 384), (512, 384), (512, 384), (512, 384), (512, 384), (512, 384), (512, 384), (512, 384), (512, 384), (512, 384), (512, 384), (512, 384), (512, 384), (512, 384), (512, 384), (512, 384), (512, 384), (512, 384), (512, 384), (512, 384), (512, 384), (512, 384), (512, 384), (512, 384), (512, 384), (512, 384), (512, 384), (512, 384), (512, 384), (512, 384), (512, 384), (512, 384), (512, 384), (512, 384), (512, 384), (512, 384), (512, 384), (512, 384), (512, 384), (512, 384), (512, 384), (512, 384), (512, 384), (512, 384), (512, 384), (512, 384), (512, 384), (512, 384), (512, 384), (512, 385), (512, 386), (512, 386), (512, 387), (512, 387), (512, 387), (512, 388), (512, 389), (512, 390), (512, 390), (512, 392), (512, 393), (512, 393), (514, 397), (515, 400), (515, 401), (518, 403), (520, 406), (521, 407), (522, 407), (522, 408), (522, 408), (523, 409), (523, 409), (524, 410), (527, 411), (529, 413), (533, 414), (540, 416), (554, 418), (565, 419), (579, 421), (592, 423), (622, 428), (638, 430), (657, 436), (671, 439), (698, 448), (708, 450), (718, 453), (727, 455), (742, 460), (750, 464)]",18.579270380444672,"[1, 6, 3, 4, 2, 5, 7, 9, 8]","(0, 0.25)",THI001B,THI,B,Chinese,Mon Aug 20 15:40:03 2018,Mouse
2,2,2,0,62,5,5,1,596,426,170,138,0,500,200,8000,"[(512, 384), (512, 384), (512, 384), (512, 384), (512, 384), (512, 384), (512, 384), (512, 384), (512, 384), (512, 384), (512, 384), (512, 384), (512, 384), (512, 384), (512, 384), (512, 384), (512, 384), (512, 384), (512, 384), (512, 384), (512, 384), (512, 384), (512, 384), (512, 384), (512, 384), (512, 384), (512, 384), (512, 384), (512, 384), (512, 384), (512, 384), (512, 384), (512, 384), (512, 384), (512, 384), (512, 384), (512, 384), (512, 384), (512, 384), (512, 384), (512, 384), (512, 384), (503, 374), (491, 359), (475, 341), (463, 324), (438, 292), (426, 282), (412, 272), (395, 262), (371, 252), (360, 246), (350, 242), (341, 241), (329, 237), (325, 236), (323, 234), (319, 233), (316, 230), (313, 230)]",217.7351894159157,"[1, 6, 3, 4, 2, 5, 7, 9, 8]","(0, 0.25)",THI001B,THI,B,Chinese,Mon Aug 20 15:40:03 2018,Mouse
2,2,2,0,63,1,2,0,-1286,736,550,137,0,500,200,8000,"[(512, 384), (512, 384), (512, 384), (512, 384), (512, 384), (512, 384), (512, 384), (512, 384), (512, 384), (512, 384), (512, 384), (512, 384), (512, 384), (512, 384), (512, 384), (512, 384), (512, 384), (512, 384), (512, 384), (512, 384), (512, 384), (512, 384), (512, 384), (512, 384), (512, 384), (512, 384), (512, 384), (512, 384), (512, 384), (512, 384), (512, 384), (512, 384), (512, 384), (512, 384), (512, 384), (512, 384), (512, 384), (512, 384), (512, 384), (512, 384), (512, 384), (512, 384), (512, 384), (512, 384), (512, 384), (512, 384), (512, 384), (512, 384), (512, 384), (512, 384), (512, 384), (512, 384), (512, 384), (512, 384), (512, 384), (512, 384), (512, 384), (512, 384), (512, 384), (512, 384), (512, 384), (512, 384), (512, 384), (512, 384), (512, 384), (512, 384), (512, 384), (512, 384), (512, 384), (512, 384), (512, 384), (512, 384), (512, 384), (511, 383), (511, 353), (511, 343), (511, 333), (511, 322), (510, 299), (509, 288), (507, 279), (505, 272), (501, 257), (500, 250), (499, 239), (496, 229), (494, 209), (494, 205), (494, 202), (494, 202), (493, 201), (493, 201), (493, 201), (493, 201), (493, 201), (493, 201), (493, 201), (493, 201), (493, 201), (493, 201), (493, 201), (493, 201), (493, 201), (493, 201), (493, 201), (493, 201), (493, 201), (493, 201), (493, 204), (491, 210), (489, 227), (486, 237), (482, 248), (477, 260), (467, 283), (462, 291), (457, 301), (451, 308), (439, 321), (430, 326), (420, 332), (407, 339), (380, 350), (358, 355), (339, 360), (320, 362), (282, 366), (265, 370), (252, 371)]",182.86240522611175,"[1, 6, 3, 4, 2, 5, 7, 9, 8]","(0, 0.25)",THI001B,THI,B,Chinese,Mon Aug 20 15:40:03 2018,Mouse
2,2,2,0,64,4,4,1,702,572,130,138,0,500,200,8000,"[(512, 384), (512, 384), (512, 384), (512, 384), (512, 384), (512, 384), (512, 384), (512, 384), (512, 384), (512, 384), (512, 384), (512, 384), (512, 384), (512, 384), (512, 384), (512, 384), (512, 384), (512, 384), (512, 384), (512, 384), (512, 384), (512, 384), (512, 384), (512, 384), (512, 384), (512, 384), (512, 384), (512, 384), (512, 384), (512, 384), (512, 384), (512, 384), (512, 384), (512, 384), (512, 384), (512, 384), (512, 384), (512, 384), (512, 384), (512, 384), (512, 384), (512, 384), (512, 384), (512, 384), (512, 384), (512, 384), (512, 384), (512, 384), (512, 384), (512, 384), (512, 384), (512, 384), (512, 384), (512, 384), (512, 384), (512, 384), (512, 384), (513, 389), (506, 400), (494, 414), (477, 435), (445, 473), (424, 489), (412, 500), (399, 513), (380, 530), (372, 537), (364, 543), (357, 550), (344, 560), (337, 567)]",133.71986044039508,"[1, 6, 3, 4, 2, 5, 7, 9, 8]","(0, 0.25)",THI001B,THI,B,Chinese,Mon Aug 20 15:40:03 2018,Mouse
2,2,2,0,65,4,5,0,-2282,1622,660,138,0,500,200,8000,"[(512, 384), (512, 384), (512, 384), (512, 384), (512, 384), (512, 384), (512, 384), (512, 384), (512, 384), (512, 384), (512, 384), (512, 384), (512, 384), (512, 384), (512, 384), (512, 384), (512, 384), (512, 384), (512, 384), (512, 384), (512, 384), (512, 384), (512, 384), (512, 384), (512, 384), (512, 384), (512, 384), (512, 384), (512, 384), (512, 384), (512, 384), (512, 384), (512, 384), (512, 384), (512, 384), (512, 384), (512, 384), (512, 384), (512, 384), (512, 384), (512, 384), (512, 384), (512, 384), (512, 384), (512, 384), (512, 384), (512, 384), (512, 384), (512, 384), (512, 384), (512, 384), (512, 384), (512, 384), (512, 384), (512, 384), (512, 384), (512, 384), (512, 384), (512, 384), (512, 384), (512, 384), (512, 384), (512, 384), (512, 384), (512, 384), (512, 384), (512, 384), (512, 384), (512, 384), (512, 384), (512, 384), (512, 384), (512, 384), (512, 384), (512, 384), (512, 384), (512, 384), (512, 384), (512, 384), (512, 384), (512, 384), (512, 384), (512, 384), (512, 384), (512, 384), (512, 384), (512, 384), (512, 384), (512, 384), (512, 384), (512, 384), (512, 384), (512, 384), (512, 384), (512, 384), (512, 384), (512, 384), (512, 384), (512, 384), (512, 384), (512, 384), (512, 384), (512, 384), (512, 384), (512, 384), (512, 384), (512, 384), (512, 384), (512, 384), (512, 384), (512, 384), (512, 384), (512, 384), (512, 384), (512, 384), (512, 384), (512, 384), (512, 384), (512, 384), (512, 384), (512, 384), (512, 384), (512, 384), (512, 384), (512, 384), (512, 384), (512, 384), (512, 384), (512, 384), (512, 384), (512, 384), (512, 384), (512, 384), (512, 384), (512, 384), (512, 384), (512, 384), (512, 384), (512, 384), (512, 384), (512, 384), (512, 384), (512, 384), (512, 384), (512, 384), (512, 384), (512, 384), (512, 384), (512, 384), (512, 384), (512, 384), (512, 384), (512, 384), (512, 384), (512, 384), (512, 384), (512, 384), (512, 384), (512, 384), (512, 384), (512, 384), (512, 384), (508, 379), (505, 374), (498, 362), (493, 352), (487, 343), (479, 330), (464, 308), (453, 296), (443, 288), (433, 280), (412, 266), (404, 262), (397, 258), (390, 255), (386, 253), (385, 253), (384, 253), (384, 253), (384, 253), (384, 253), (384, 253), (384, 253), (384, 253), (384, 253), (384, 253), (384, 253), (384, 253), (384, 253), (384, 253), (384, 253), (384, 253), (384, 253), (384, 253), (384, 253), (384, 253), (384, 253), (384, 253), (384, 253), (384, 253), (384, 253), (384, 253), (384, 253), (384, 253), (384, 253), (384, 253), (384, 253), (384, 253), (384, 253), (384, 253), (384, 253), (384, 253), (384, 253), (384, 253), (384, 253), (384, 253), (384, 253), (384, 253), (384, 253), (384, 253), (384, 253), (384, 253), (382, 253), (371, 245), (365, 237), (358, 228), (350, 221), (334, 206)]",225.0,"[1, 6, 3, 4, 2, 5, 7, 9, 8]","(0, 0.25)",THI001B,THI,B,Chinese,Mon Aug 20 15:40:03 2018,Mouse
2,2,2,0,66,5,5,1,571,411,160,139,0,500,200,8000,"[(512, 384), (512, 384), (512, 384), (512, 384), (512, 384), (512, 384), (512, 384), (512, 384), (512, 384), (512, 384), (512, 384), (512, 384), (512, 384), (512, 384), (512, 384), (512, 384), (512, 384), (512, 384), (512, 384), (512, 384), (512, 384), (512, 384), (512, 384), (512, 384), (512, 384), (512, 384), (512, 384), (512, 384), (512, 384), (512, 384), (512, 384), (512, 384), (512, 384), (512, 384), (512, 384), (512, 384), (512, 384), (512, 384), (512, 384), (512, 384), (512, 384), (510, 382), (498, 372), (488, 359), (464, 330), (455, 319), (444, 307), (435, 297), (414, 277), (404, 272), (396, 266), (388, 262), (369, 252), (357, 248), (350, 245), (344, 238), (326, 229), (315, 223)]",219.25771672219585,"[1, 6, 3, 4, 2, 5, 7, 9, 8]","(0, 0.25)",THI001B,THI,B,Chinese,Mon Aug 20 15:40:03 2018,Mouse
2,2,2,0,67,5,5,1,401,211,190,139,0,500,200,8000,"[(512, 384), (512, 384), (512, 384), (512, 384), (512, 384), (512, 384), (512, 384), (512, 384), (512, 384), (512, 384), (512, 384), (512, 384), (512, 384), (512, 384), (512, 384), (512, 384), (512, 384), (512, 384), (512, 384), (512, 384), (512, 384), (504, 376), (495, 366), (483, 352), (479, 345), (472, 336), (465, 328), (454, 314), (448, 308), (443, 303), (436, 297), (419, 281), (411, 272), (405, 265), (394, 255), (378, 239), (370, 232), (362, 224), (356, 219), (341, 206), (335, 201)]",225.9548412538722,"[1, 6, 3, 4, 2, 5, 7, 9, 8]","(0, 0.25)",THI001B,THI,B,Chinese,Mon Aug 20 15:40:03 2018,Mouse
2,2,2,0,68,3,3,1,812,752,60,138,0,500,200,8000,"[(512, 384), (512, 384), (512, 384), (512, 384), (512, 384), (512, 384), (512, 384), (512, 384), (512, 384), (512, 384), (512, 384), (512, 384), (512, 384), (512, 384), (512, 384), (512, 384), (512, 384), (512, 384), (512, 384), (512, 384), (512, 384), (512, 384), (512, 384), (512, 384), (512, 384), (512, 384), (512, 384), (512, 384), (512, 384), (512, 384), (512, 384), (512, 384), (512, 384), (512, 384), (512, 384), (512, 384), (512, 384), (512, 384), (512, 384), (512, 384), (512, 384), (512, 384), (512, 384), (512, 384), (512, 384), (512, 384), (512, 384), (512, 384), (512, 384), (512, 384), (512, 384), (512, 384), (512, 384), (512, 384), (512, 384), (512, 384), (512, 384), (512, 384), (512, 384), (512, 384), (512, 384), (512, 384), (512, 384), (512, 384), (512, 384), (512, 384), (512, 384), (512, 384), (512, 384), (512, 384), (512, 384), (512, 384), (512, 384), (512, 384), (512, 384), (512, 395), (507, 423), (497, 464), (488, 508), (468, 580), (458, 608), (450, 634)]",103.9283419391537,"[1, 6, 3, 4, 2, 5, 7, 9, 8]","(0, 0.25)",THI001B,THI,B,Chinese,Mon Aug 20 15:40:03 2018,Mouse
2,2,2,0,69,8,4,0,-572,182,390,137,0,500,200,8000,"[(512, 384), (512, 384), (512, 384), (512, 384), (512, 384), (512, 384), (512, 384), (512, 384), (512, 384), (512, 384), (512, 384), (512, 384), (512, 384), (512, 384), (512, 384), (512, 384), (512, 384), (512, 384), (512, 383), (512, 383), (511, 383), (511, 383), (511, 383), (508, 383), (508, 383), (506, 383), (506, 383), (506, 383), (506, 383), (505, 383), (505, 383), (505, 383), (505, 383), (505, 383), (505, 383), (505, 383), (505, 383), (505, 383), (505, 383), (505, 383), (505, 383), (505, 383), (505, 383), (505, 383), (505, 383), (502, 384), (500, 387), (497, 388), (492, 392), (479, 403), (468, 411), (452, 423), (437, 435), (390, 475), (369, 496), (346, 522), (330, 538), (302, 564)]",139.39870535499554,"[1, 6, 3, 4, 2, 5, 7, 9, 8]","(0, 0.25)",THI001B,THI,B,Chinese,Mon Aug 20 15:40:03 2018,Mouse
2,2,2,0,70,7,7,1,1122,652,470,138,0,500,200,8000,"[(512, 384), (512, 384), (512, 384), (512, 384), (512, 384), (512, 384), (512, 384), (512, 384), (512, 384), (512, 384), (512, 384), (512, 384), (512, 384), (512, 384), (512, 384), (512, 384), (512, 384), (512, 384), (512, 384), (512, 384), (512, 384), (512, 384), (512, 384), (512, 384), (512, 384), (512, 384), (512, 384), (512, 384), (512, 384), (512, 384), (512, 384), (512, 384), (512, 384), (512, 384), (512, 384), (512, 384), (512, 384), (512, 384), (512, 384), (512, 384), (512, 384), (512, 384), (512, 384), (512, 384), (512, 384), (512, 384), (512, 384), (512, 384), (512, 384), (512, 384), (512, 384), (512, 384), (512, 384), (512, 384), (512, 384), (512, 384), (512, 384), (512, 384), (512, 384), (512, 384), (512, 384), (512, 384), (512, 384), (512, 384), (512, 384), (512, 377), (512, 369), (508, 358), (506, 337), (506, 330), (504, 325), (504, 322), (504, 318), (504, 318), (503, 317), (503, 317), (503, 314), (503, 310), (503, 304), (503, 296), (503, 274), (503, 262), (503, 253), (503, 246), (503, 232), (503, 229), (503, 227), (502, 224), (502, 220), (502, 216), (502, 213), (502, 212), (502, 210), (502, 210), (502, 210), (502, 210), (502, 210), (502, 210), (502, 210), (502, 210), (502, 210), (502, 210), (502, 210), (502, 210), (502, 210), (502, 210), (502, 210), (502, 206), (502, 190), (502, 179), (502, 168), (502, 155), (502, 128)]",267.76302093656227,"[1, 6, 3, 4, 2, 5, 7, 9, 8]","(0, 0.25)",THI001B,THI,B,Chinese,Mon Aug 20 15:40:03 2018,Mouse
2,2,2,0,71,9,9,1,1652,962,690,138,0,500,200,8000,"[(512, 384), (512, 384), (512, 384), (512, 384), (512, 384), (512, 384), (512, 384), (512, 384), (512, 384), (512, 384), (512, 384), (512, 384), (512, 384), (512, 384), (512, 384), (512, 384), (512, 384), (512, 384), (512, 384), (512, 384), (512, 384), (512, 384), (512, 384), (512, 384), (512, 384), (512, 384), (512, 384), (512, 384), (512, 384), (512, 384), (512, 384), (512, 384), (512, 384), (512, 384), (512, 384), (512, 384), (512, 384), (512, 384), (512, 384), (512, 384), (512, 384), (512, 384), (512, 384), (512, 384), (512, 384), (512, 384), (512, 384), (512, 384), (512, 384), (512, 384), (512, 384), (512, 384), (512, 384), (512, 384), (512, 384), (512, 384), (512, 384), (512, 384), (512, 384), (512, 384), (512, 384), (512, 384), (512, 384), (512, 384), (512, 384), (512, 384), (512, 384), (512, 384), (512, 384), (512, 384), (512, 384), (512, 384), (512, 384), (512, 384), (512, 384), (512, 384), (512, 384), (512, 384), (512, 384), (512, 384), (512, 384), (512, 384), (512, 384), (512, 384), (512, 384), (512, 384), (512, 384), (512, 384), (512, 384), (512, 384), (512, 384), (512, 384), (512, 384), (512, 384), (512, 384), (512, 384), (510, 386), (506, 390), (503, 392), (501, 396), (497, 397), (491, 404), (489, 405), (487, 406), (486, 407), (484, 408), (483, 408), (483, 408), (483, 408), (483, 408), (483, 408), (483, 408), (483, 408), (483, 408), (483, 409), (483, 409), (482, 410), (480, 411), (480, 411), (479, 411), (478, 411), (476, 413), (475, 414), (474, 414), (472, 416), (464, 424), (457, 430), (450, 438), (443, 443), (428, 456), (421, 464), (413, 473), (406, 479), (387, 495), (379, 502), (374, 507), (367, 515), (362, 522), (359, 526), (356, 530), (354, 533), (351, 536), (351, 536), (350, 538), (350, 538), (350, 538), (350, 538), (350, 538), (350, 538), (350, 538), (350, 538), (350, 538), (350, 538), (350, 538), (350, 538), (352, 531), (365, 513), (417, 452), (451, 407), (485, 370), (514, 340), (585, 283), (619, 261), (655, 236), (678, 218), (711, 189)]",315.58166305750535,"[1, 6, 3, 4, 2, 5, 7, 9, 8]","(0, 0.25)",THI001B,THI,B,Chinese,Mon Aug 20 15:40:03 2018,Mouse
2,2,2,0,72,8,5,0,-542,442,100,137,0,500,200,8000,"[(512, 384), (512, 384), (512, 384), (512, 384), (512, 384), (512, 384), (512, 384), (512, 384), (512, 384), (512, 384), (512, 384), (512, 384), (512, 384), (512, 384), (512, 384), (512, 384), (512, 384), (512, 384), (512, 384), (512, 384), (512, 384), (512, 384), (512, 384), (512, 384), (512, 384), (512, 384), (512, 384), (512, 384), (512, 384), (512, 384), (512, 384), (512, 384), (512, 384), (512, 384), (512, 384), (512, 384), (512, 384), (512, 384), (512, 384), (512, 384), (512, 384), (512, 384), (512, 384), (512, 384), (505, 377), (492, 367), (479, 357), (467, 346), (432, 320), (412, 305), (395, 292), (373, 279), (330, 254), (313, 243), (297, 233)]",215.08134937393916,"[1, 6, 3, 4, 2, 5, 7, 9, 8]","(0, 0.25)",THI001B,THI,B,Chinese,Mon Aug 20 15:40:03 2018,Mouse
2,2,2,0,73,5,5,1,262,112,150,138,0,500,200,8000,"[(512, 384), (512, 384), (512, 384), (512, 384), (512, 384), (512, 384), (512, 384), (512, 384), (512, 384), (512, 384), (512, 384), (512, 383), (509, 380), (506, 376), (497, 370), (494, 366), (492, 364), (488, 360), (483, 353), (481, 350), (476, 344), (473, 339), (455, 319), (436, 298), (418, 281), (381, 252), (310, 199)]",222.48474814296122,"[1, 6, 3, 4, 2, 5, 7, 9, 8]","(0, 0.25)",THI001B,THI,B,Chinese,Mon Aug 20 15:40:03 2018,Mouse
2,2,2,0,74,7,7,1,612,482,130,138,0,500,200,8000,"[(512, 384), (512, 384), (512, 384), (512, 384), (512, 384), (512, 384), (512, 384), (512, 384), (512, 384), (512, 384), (512, 384), (512, 384), (512, 384), (512, 384), (512, 384), (512, 384), (512, 384), (512, 384), (512, 384), (512, 384), (512, 384), (512, 384), (512, 384), (512, 384), (512, 384), (512, 384), (512, 384), (512, 384), (512, 384), (512, 384), (512, 384), (512, 384), (512, 384), (512, 384), (512, 384), (512, 384), (512, 384), (512, 384), (512, 384), (512, 384), (512, 384), (512, 384), (512, 384), (512, 384), (512, 384), (512, 384), (512, 384), (512, 384), (513, 375), (511, 361), (509, 349), (505, 320), (504, 305), (501, 291), (495, 273), (484, 239), (478, 217), (475, 203), (470, 185), (464, 158), (463, 146), (462, 135)]",258.64582368959003,"[1, 6, 3, 4, 2, 5, 7, 9, 8]","(0, 0.25)",THI001B,THI,B,Chinese,Mon Aug 20 15:40:03 2018,Mouse
2,2,2,0,75,5,5,1,502,382,120,137,0,500,200,8000,"[(512, 384), (512, 384), (512, 384), (512, 384), (512, 384), (512, 384), (512, 384), (512, 384), (512, 384), (512, 384), (512, 384), (512, 384), (512, 384), (512, 384), (512, 384), (512, 384), (512, 384), (512, 384), (512, 384), (512, 384), (512, 384), (512, 384), (512, 384), (512, 384), (512, 384), (512, 384), (512, 384), (512, 384), (512, 384), (512, 384), (512, 384), (512, 384), (512, 384), (512, 384), (512, 384), (512, 384), (512, 384), (512, 384), (509, 384), (504, 383), (497, 377), (488, 368), (466, 349), (452, 334), (437, 314), (416, 296), (388, 271), (375, 260), (364, 247), (349, 229), (332, 207)]",224.51853419416165,"[1, 6, 3, 4, 2, 5, 7, 9, 8]","(0, 0.25)",THI001B,THI,B,Chinese,Mon Aug 20 15:40:03 2018,Mouse
2,2,2,0,76,1,5,0,-384,274,110,136,0,500,200,8000,"[(512, 384), (512, 384), (512, 384), (512, 384), (512, 384), (512, 384), (512, 384), (512, 384), (512, 384), (512, 384), (512, 384), (512, 384), (512, 384), (512, 384), (512, 384), (512, 384), (512, 384), (512, 384), (512, 384), (512, 384), (512, 384), (512, 384), (512, 384), (512, 384), (512, 384), (512, 384), (512, 384), (512, 382), (512, 379), (511, 376), (504, 370), (486, 352), (472, 340), (454, 325), (434, 312), (375, 278), (344, 261), (319, 244), (295, 229)]",215.53767779197437,"[1, 6, 3, 4, 2, 5, 7, 9, 8]","(0, 0.25)",THI001B,THI,B,Chinese,Mon Aug 20 15:40:03 2018,Mouse
2,2,2,0,77,4,6,0,-781,671,110,137,0,500,200,8000,"[(512, 384), (512, 384), (512, 384), (512, 384), (512, 384), (512, 384), (512, 384), (512, 384), (512, 384), (512, 384), (512, 384), (512, 384), (512, 384), (512, 384), (512, 384), (512, 384), (512, 384), (512, 384), (512, 384), (512, 384), (512, 384), (512, 384), (512, 384), (512, 384), (512, 384), (512, 384), (512, 384), (512, 384), (512, 384), (512, 384), (512, 384), (512, 384), (512, 384), (512, 384), (512, 384), (512, 384), (512, 384), (512, 384), (512, 384), (512, 384), (512, 384), (512, 384), (512, 384), (512, 384), (512, 384), (512, 384), (512, 384), (512, 384), (512, 384), (512, 384), (512, 384), (512, 384), (512, 384), (512, 384), (512, 384), (512, 384), (512, 384), (512, 384), (512, 384), (512, 384), (512, 384), (512, 384), (512, 384), (512, 384), (512, 384), (512, 384), (512, 384), (512, 385), (512, 390), (517, 395), (527, 403), (536, 411), (550, 420), (565, 434), (597, 473), (620, 499), (639, 520), (660, 546), (689, 579)]",47.770215797200194,"[1, 6, 3, 4, 2, 5, 7, 9, 8]","(0, 0.25)",THI001B,THI,B,Chinese,Mon Aug 20 15:40:03 2018,Mouse
2,2,2,0,78,9,5,0,-370,260,110,138,0,500,200,8000,"[(512, 384), (512, 384), (512, 384), (512, 384), (512, 384), (512, 384), (512, 384), (512, 384), (512, 384), (512, 384), (512, 384), (512, 384), (512, 384), (512, 384), (512, 384), (512, 384), (512, 384), (512, 384), (512, 384), (512, 384), (512, 384), (512, 384), (512, 384), (512, 384), (512, 384), (512, 383), (511, 377), (500, 363), (492, 353), (487, 344), (478, 334), (444, 310), (425, 298), (398, 283), (365, 261), (316, 235), (276, 214)]",215.7666764907228,"[1, 6, 3, 4, 2, 5, 7, 9, 8]","(0, 0.25)",THI001B,THI,B,Chinese,Mon Aug 20 15:40:03 2018,Mouse
2,2,2,0,79,6,2,0,-1507,707,800,139,0,500,200,8000,"[(512, 384), (512, 384), (512, 384), (512, 384), (512, 384), (512, 384), (512, 384), (512, 384), (512, 384), (512, 384), (512, 384), (512, 384), (512, 384), (512, 384), (512, 384), (512, 384), (512, 384), (512, 384), (512, 384), (512, 384), (512, 384), (512, 384), (512, 384), (512, 384), (512, 384), (512, 384), (512, 384), (512, 384), (512, 384), (512, 384), (512, 384), (512, 384), (512, 384), (512, 384), (512, 384), (512, 384), (512, 384), (512, 384), (512, 384), (512, 384), (512, 384), (512, 384), (512, 384), (512, 384), (512, 384), (512, 384), (512, 384), (512, 384), (512, 384), (512, 384), (512, 384), (512, 384), (512, 384), (512, 384), (512, 384), (512, 384), (512, 384), (512, 384), (512, 384), (512, 384), (512, 384), (512, 384), (512, 384), (512, 384), (512, 384), (512, 384), (512, 384), (512, 384), (512, 384), (512, 384), (510, 386), (508, 387), (508, 387), (506, 388), (506, 388), (506, 388), (506, 388), (506, 388), (506, 388), (506, 388), (506, 388), (506, 388), (506, 388), (506, 388), (506, 388), (506, 388), (506, 388), (506, 388), (506, 388), (506, 388), (505, 388), (505, 390), (503, 391), (503, 392), (501, 396), (500, 397), (498, 400), (497, 404), (497, 406), (497, 408), (495, 409), (495, 409), (495, 409), (495, 409), (495, 409), (495, 409), (495, 409), (495, 409), (495, 409), (495, 411), (495, 411), (495, 411), (495, 411), (495, 411), (495, 411), (495, 411), (495, 411), (495, 411), (495, 411), (495, 411), (495, 411), (495, 411), (495, 411), (495, 411), (495, 411), (494, 411), (488, 411), (487, 411), (485, 410), (483, 408), (480, 407), (477, 407), (475, 406), (474, 406), (472, 405), (470, 404), (467, 404), (462, 403), (456, 403), (448, 401), (441, 400), (413, 400), (399, 400), (382, 400), (365, 400), (350, 398), (315, 395), (301, 395), (286, 395), (264, 395), (256, 395)]",177.5395854614083,"[1, 6, 3, 4, 2, 5, 7, 9, 8]","(0, 0.25)",THI001B,THI,B,Chinese,Mon Aug 20 15:40:03 2018,Mouse
2,2,2,0,80,7,1,0,-664,574,90,140,0,500,200,8000,"[(512, 384), (512, 384), (512, 384), (512, 384), (512, 384), (512, 384), (512, 384), (512, 384), (512, 384), (512, 384), (512, 384), (512, 384), (512, 384), (512, 384), (512, 384), (512, 384), (512, 384), (512, 384), (512, 384), (512, 384), (512, 384), (512, 384), (512, 384), (512, 384), (512, 384), (512, 384), (512, 384), (512, 384), (512, 384), (512, 384), (512, 384), (512, 384), (512, 384), (512, 384), (512, 384), (512, 384), (512, 384), (512, 384), (512, 384), (512, 384), (512, 384), (512, 384), (512, 384), (512, 384), (512, 384), (512, 384), (512, 384), (512, 384), (512, 384), (512, 384), (512, 384), (512, 384), (512, 384), (512, 384), (512, 384), (512, 384), (512, 384), (512, 385), (527, 387), (538, 390), (551, 392), (569, 396), (622, 403), (665, 407), (700, 414), (736, 423), (804, 435)]",9.907205620499326,"[1, 6, 3, 4, 2, 5, 7, 9, 8]","(0, 0.25)",THI001B,THI,B,Chinese,Mon Aug 20 15:40:03 2018,Mouse
2,2,2,0,81,6,6,1,562,482,80,141,0,500,200,8000,"[(512, 384), (512, 384), (512, 384), (512, 384), (512, 384), (512, 384), (512, 384), (512, 384), (512, 384), (512, 384), (512, 384), (512, 384), (512, 384), (512, 384), (512, 384), (512, 384), (512, 384), (512, 384), (512, 384), (512, 384), (512, 384), (512, 384), (512, 384), (512, 384), (512, 384), (512, 384), (512, 384), (512, 384), (512, 384), (512, 384), (512, 384), (512, 384), (512, 384), (512, 384), (512, 384), (512, 384), (512, 384), (512, 384), (512, 384), (512, 384), (512, 384), (512, 384), (512, 384), (512, 384), (512, 384), (512, 384), (512, 384), (512, 384), (520, 392), (528, 406), (538, 424), (551, 449), (585, 501), (602, 526), (619, 554), (635, 576), (670, 627)]",56.9678455221447,"[1, 6, 3, 4, 2, 5, 7, 9, 8]","(0, 0.25)",THI001B,THI,B,Chinese,Mon Aug 20 15:40:03 2018,Mouse
2,2,2,0,82,5,5,1,635,395,240,141,0,500,200,8000,"[(512, 384), (512, 384), (512, 384), (512, 384), (512, 384), (512, 384), (512, 384), (512, 384), (512, 384), (512, 384), (512, 384), (512, 384), (512, 384), (512, 384), (512, 384), (512, 384), (512, 384), (512, 384), (512, 384), (512, 384), (512, 384), (512, 384), (512, 384), (512, 384), (512, 384), (512, 384), (512, 384), (512, 384), (512, 384), (512, 384), (512, 384), (512, 384), (512, 384), (512, 384), (512, 384), (512, 384), (512, 384), (512, 384), (512, 384), (507, 380), (503, 376), (496, 372), (490, 368), (482, 362), (472, 357), (463, 354), (456, 350), (442, 342), (437, 337), (432, 333), (426, 327), (410, 309), (404, 300), (398, 294), (392, 288), (383, 280), (378, 276), (375, 273), (369, 268), (352, 255), (340, 246), (335, 243), (318, 231), (273, 200)]",217.59175587616588,"[1, 6, 3, 4, 2, 5, 7, 9, 8]","(0, 0.25)",THI001B,THI,B,Chinese,Mon Aug 20 15:40:03 2018,Mouse
2,2,2,0,83,3,2,0,-741,581,160,140,0,500,200,8000,"[(512, 384), (512, 384), (512, 384), (512, 384), (512, 384), (512, 384), (512, 384), (512, 384), (512, 384), (512, 384), (512, 384), (512, 384), (512, 384), (512, 384), (512, 384), (512, 384), (512, 384), (512, 384), (512, 384), (512, 384), (512, 384), (512, 384), (512, 384), (512, 384), (512, 384), (512, 384), (512, 384), (512, 384), (512, 384), (512, 384), (512, 384), (512, 384), (512, 384), (512, 384), (512, 384), (512, 384), (512, 384), (512, 384), (512, 384), (512, 384), (512, 384), (512, 384), (512, 384), (512, 384), (512, 384), (512, 384), (512, 384), (512, 384), (512, 384), (512, 384), (512, 384), (512, 384), (512, 384), (512, 384), (512, 384), (512, 384), (512, 384), (512, 384), (511, 384), (510, 384), (507, 384), (493, 386), (488, 386), (485, 386), (483, 386), (474, 386), (467, 386), (458, 387), (449, 388), (420, 393), (400, 394), (373, 399), (344, 402), (276, 406), (251, 406)]",175.18186012071897,"[1, 6, 3, 4, 2, 5, 7, 9, 8]","(0, 0.25)",THI001B,THI,B,Chinese,Mon Aug 20 15:40:03 2018,Mouse
2,2,2,0,84,3,3,1,662,502,160,141,0,500,200,8000,"[(512, 384), (512, 384), (512, 384), (512, 384), (512, 384), (512, 384), (512, 384), (512, 384), (512, 384), (512, 384), (512, 384), (512, 384), (512, 384), (512, 384), (512, 384), (512, 384), (512, 384), (512, 384), (512, 384), (512, 384), (512, 384), (512, 384), (512, 384), (512, 384), (512, 384), (512, 384), (512, 384), (512, 384), (512, 384), (512, 384), (512, 384), (512, 384), (512, 384), (512, 384), (512, 384), (512, 384), (512, 384), (512, 384), (512, 384), (512, 384), (512, 384), (512, 384), (512, 384), (512, 384), (512, 384), (512, 384), (512, 384), (512, 384), (512, 384), (512, 384), (511, 387), (501, 419), (499, 439), (494, 460), (493, 478), (487, 508), (487, 520), (485, 533), (483, 544), (483, 563), (481, 574), (481, 583), (481, 593), (480, 612), (480, 622), (480, 630), (480, 637)]",97.20861908068726,"[1, 6, 3, 4, 2, 5, 7, 9, 8]","(0, 0.25)",THI001B,THI,B,Chinese,Mon Aug 20 15:40:03 2018,Mouse
2,2,2,0,85,8,9,0,-737,597,140,141,0,500,200,8000,"[(512, 384), (512, 384), (512, 384), (512, 384), (512, 384), (512, 384), (512, 384), (512, 384), (512, 384), (512, 384), (512, 384), (512, 384), (512, 384), (512, 384), (512, 384), (512, 384), (512, 384), (512, 384), (512, 384), (512, 384), (512, 384), (512, 384), (512, 384), (512, 384), (512, 384), (512, 384), (512, 384), (512, 384), (512, 384), (512, 384), (512, 384), (512, 384), (512, 384), (512, 384), (512, 384), (512, 384), (512, 384), (512, 384), (512, 384), (512, 384), (512, 384), (512, 384), (512, 384), (512, 384), (512, 384), (512, 384), (512, 384), (512, 384), (512, 384), (512, 384), (512, 384), (512, 384), (512, 384), (512, 384), (512, 384), (512, 384), (512, 384), (512, 384), (512, 384), (516, 367), (517, 357), (522, 347), (526, 333), (539, 309), (546, 297), (556, 284), (564, 272), (579, 248), (585, 235), (593, 222), (599, 209), (614, 179), (620, 167), (626, 154)]",296.3654151225536,"[1, 6, 3, 4, 2, 5, 7, 9, 8]","(0, 0.25)",THI001B,THI,B,Chinese,Mon Aug 20 15:40:03 2018,Mouse
2,2,2,0,86,4,4,1,881,511,370,142,0,500,200,8000,"[(512, 384), (512, 384), (512, 384), (512, 384), (512, 384), (512, 384), (512, 384), (512, 384), (512, 384), (512, 384), (512, 384), (512, 384), (512, 384), (512, 384), (512, 384), (512, 384), (512, 384), (512, 384), (512, 384), (512, 384), (512, 384), (512, 384), (512, 384), (512, 384), (512, 384), (512, 384), (512, 384), (512, 384), (512, 384), (512, 384), (512, 384), (512, 384), (512, 384), (512, 384), (512, 384), (512, 384), (512, 384), (512, 384), (512, 384), (512, 384), (512, 384), (512, 384), (512, 384), (512, 384), (512, 384), (512, 384), (512, 384), (512, 384), (512, 384), (512, 384), (511, 386), (511, 389), (510, 391), (507, 398), (506, 399), (503, 403), (502, 406), (499, 411), (498, 413), (498, 415), (497, 417), (495, 422), (493, 424), (491, 427), (489, 432), (482, 444), (480, 451), (477, 457), (475, 463), (472, 469), (472, 471), (472, 471), (472, 471), (472, 471), (472, 471), (472, 471), (472, 471), (472, 471), (472, 471), (472, 472), (470, 472), (463, 476), (453, 480), (443, 485), (424, 496), (376, 520), (346, 534), (305, 557)]",140.11284977988248,"[1, 6, 3, 4, 2, 5, 7, 9, 8]","(0, 0.25)",THI001B,THI,B,Chinese,Mon Aug 20 15:40:03 2018,Mouse
2,2,2,0,87,1,1,1,491,181,310,142,0,500,200,8000,"[(512, 384), (512, 384), (512, 384), (512, 384), (512, 384), (512, 384), (512, 384), (512, 384), (512, 384), (512, 384), (512, 384), (512, 384), (512, 384), (512, 384), (512, 384), (512, 384), (512, 384), (512, 384), (513, 384), (515, 384), (515, 384), (518, 384), (526, 384), (530, 384), (533, 384), (536, 384), (547, 384), (557, 384), (568, 384), (579, 384), (603, 384), (617, 384), (629, 384), (641, 384), (663, 387), (673, 388), (680, 389), (687, 389), (696, 392), (698, 392), (704, 395), (706, 396), (716, 401), (722, 403), (728, 405), (732, 406), (743, 407), (747, 409), (753, 411), (761, 414)]",6.869992308214259,"[1, 6, 3, 4, 2, 5, 7, 9, 8]","(0, 0.25)",THI001B,THI,B,Chinese,Mon Aug 20 15:40:03 2018,Mouse
2,2,2,0,88,1,1,1,612,512,100,141,0,500,200,8000,"[(512, 384), (512, 384), (512, 384), (512, 384), (512, 384), (512, 384), (512, 384), (512, 384), (512, 384), (512, 384), (512, 384), (512, 384), (512, 384), (512, 384), (512, 384), (512, 384), (512, 384), (512, 384), (512, 384), (512, 384), (512, 384), (512, 384), (512, 384), (512, 384), (512, 384), (512, 384), (512, 384), (512, 384), (512, 384), (512, 384), (512, 384), (512, 384), (512, 384), (512, 384), (512, 384), (512, 384), (512, 384), (512, 384), (512, 384), (512, 384), (512, 384), (512, 384), (512, 384), (512, 384), (512, 384), (512, 384), (512, 384), (512, 384), (512, 384), (512, 384), (512, 384), (514, 384), (517, 384), (531, 386), (542, 389), (556, 393), (570, 397), (630, 412), (656, 420), (697, 432), (733, 441), (807, 457)]",13.899063092750808,"[1, 6, 3, 4, 2, 5, 7, 9, 8]","(0, 0.25)",THI001B,THI,B,Chinese,Mon Aug 20 15:40:03 2018,Mouse
