NativeLangNumber,LanuageNumber,SessionNumber,Block,TrialNum,ConditionNumber,Response,Accuracy,RT,MovementOnsetTime,TimeInMotion,SignalContrast,SignalContrastNumber,StimDisplayTime,MaskTime,MaxResponseTime,MousePositionXY,MouseAngle,WheelOrder,NoiseMuSigma,ParticipantID,LanuageTested,SessionTested,NativeLanuage,Date,ResponseDevice
1,2,2,0,1,5,5,1,1013,353,660,153,0,500,200,8000,"[(960, 540), (960, 540), (960, 540), (960, 540), (960, 540), (960, 540), (960, 540), (960, 540), (960, 540), (960, 540), (960, 540), (960, 540), (960, 540), (960, 540), (960, 540), (960, 540), (960, 540), (960, 540), (960, 540), (960, 540), (960, 540), (960, 540), (960, 540), (960, 540), (960, 540), (960, 540), (960, 540), (960, 540), (960, 540), (960, 540), (960, 540), (960, 540), (960, 540), (960, 540), (960, 540), (954, 540), (945, 540), (934, 540), (923, 538), (898, 536), (884, 536), (872, 536), (861, 536), (844, 535), (834, 535), (826, 535), (818, 535), (800, 535), (794, 535), (789, 535), (783, 535), (763, 535), (750, 537), (733, 539), (715, 540), (684, 545), (665, 549), (645, 550), (623, 550), (594, 552), (585, 553), (579, 555), (578, 555), (576, 555), (576, 555), (576, 555), (576, 555), (576, 555), (576, 555), (576, 555), (576, 555), (576, 555), (575, 555), (573, 555), (572, 555), (572, 555), (572, 555), (572, 555), (572, 555), (572, 555), (572, 555), (572, 555), (572, 555), (572, 555), (572, 555), (572, 555), (569, 555), (567, 555), (567, 555), (567, 555), (567, 555), (567, 555), (567, 555), (567, 555), (567, 555), (567, 555), (567, 555), (567, 555), (566, 555), (563, 555), (561, 555), (560, 555)]",177.8524145717015,"[1, 4, 7, 3, 5, 2, 8, 9, 6]","(0, 0.25)",THI006B,THI,B,English,Wed Aug 22 15:28:09 2018,Mouse
1,2,2,0,2,8,8,1,736,156,580,153,0,500,200,8000,"[(960, 540), (960, 540), (960, 540), (960, 540), (960, 540), (960, 540), (960, 540), (960, 540), (960, 540), (960, 540), (960, 540), (960, 540), (960, 540), (960, 540), (960, 540), (962, 538), (962, 534), (962, 532), (962, 529), (962, 526), (962, 520), (962, 514), (962, 510), (960, 501), (953, 484), (952, 476), (949, 467), (947, 459), (941, 444), (938, 436), (935, 428), (932, 420), (929, 408), (928, 405), (927, 404), (927, 402), (927, 399), (927, 398), (927, 397), (927, 396), (927, 394), (927, 393), (927, 392), (927, 391), (927, 389), (928, 387), (928, 386), (928, 384), (929, 380), (929, 378), (929, 374), (929, 370), (929, 365), (929, 362), (929, 361), (929, 360), (929, 359), (929, 358), (929, 358), (929, 356), (929, 352), (928, 349), (926, 345), (922, 340), (916, 326), (912, 316), (907, 305), (905, 293), (894, 254), (891, 236), (888, 215), (886, 197), (881, 162), (878, 141)]",258.38662617684633,"[1, 4, 7, 3, 5, 2, 8, 9, 6]","(0, 0.25)",THI006B,THI,B,English,Wed Aug 22 15:28:09 2018,Mouse
1,2,2,0,3,3,3,1,1198,58,1140,152,0,500,200,8000,"[(960, 540), (960, 540), (960, 540), (960, 540), (960, 540), (960, 539), (957, 539), (956, 539), (954, 539), (953, 538), (950, 537), (949, 537), (947, 536), (946, 536), (938, 534), (934, 534), (931, 533), (929, 533), (924, 532), (920, 532), (917, 531), (910, 530), (898, 528), (890, 527), (884, 526), (879, 526), (872, 525), (871, 525), (867, 524), (864, 524), (861, 524), (860, 523), (858, 523), (858, 523), (855, 523), (854, 523), (852, 523), (850, 523), (846, 523), (844, 523), (843, 523), (840, 523), (838, 523), (837, 523), (836, 523), (836, 523), (833, 523), (833, 523), (832, 523), (830, 523), (827, 521), (823, 518), (820, 514), (818, 511), (813, 502), (811, 496), (809, 490), (807, 481), (801, 465), (796, 458), (792, 448), (788, 438), (782, 426), (780, 421), (777, 416), (776, 413), (768, 402), (763, 395), (756, 387), (750, 379), (745, 373), (744, 372), (744, 372), (744, 371), (744, 371), (743, 371), (743, 371), (743, 371), (743, 371), (743, 371), (743, 371), (743, 371), (743, 371), (743, 371), (743, 371), (743, 372), (743, 376), (743, 380), (744, 387), (747, 400), (750, 420), (751, 435), (751, 449), (751, 464), (751, 491), (747, 505), (741, 518), (737, 529), (725, 555), (722, 565), (717, 575), (714, 582), (708, 595), (707, 604), (706, 609), (703, 614), (701, 622), (701, 625), (701, 630), (700, 634), (697, 645), (697, 653), (694, 660), (690, 671), (681, 694), (675, 710), (669, 723), (663, 740), (649, 770), (643, 785)]",142.30061582387918,"[1, 4, 7, 3, 5, 2, 8, 9, 6]","(0, 0.25)",THI006B,THI,B,English,Wed Aug 22 15:28:09 2018,Mouse
1,2,2,0,4,7,7,1,527,167,360,151,0,500,200,8000,"[(960, 540), (960, 540), (960, 540), (960, 540), (960, 540), (960, 540), (960, 540), (960, 540), (960, 540), (960, 540), (960, 540), (960, 540), (960, 540), (960, 540), (960, 540), (960, 540), (959, 540), (952, 548), (950, 553), (947, 562), (944, 570), (940, 578), (937, 585), (936, 591), (935, 596), (934, 608), (934, 615), (934, 621), (934, 630), (938, 652), (940, 661), (942, 669), (942, 679), (942, 701), (942, 708), (940, 719), (936, 729), (934, 749), (932, 759), (931, 770), (930, 783), (925, 801), (924, 809), (921, 819), (918, 828), (910, 844), (905, 856), (901, 866), (895, 893), (893, 905), (892, 915), (890, 927), (888, 940)]",100.20397372173169,"[1, 4, 7, 3, 5, 2, 8, 9, 6]","(0, 0.25)",THI006B,THI,B,English,Wed Aug 22 15:28:09 2018,Mouse
1,2,2,0,5,9,9,1,3028,1028,2000,150,0,500,200,8000,"[(960, 540), (960, 540), (960, 540), (960, 540), (960, 540), (960, 540), (960, 540), (960, 540), (960, 540), (960, 540), (960, 540), (960, 540), (960, 540), (960, 540), (960, 540), (960, 540), (960, 540), (960, 540), (960, 540), (960, 540), (960, 540), (960, 540), (960, 540), (960, 540), (960, 540), (960, 540), (960, 540), (960, 540), (960, 540), (960, 540), (960, 540), (960, 540), (960, 540), (960, 540), (960, 540), (960, 540), (960, 540), (960, 540), (960, 540), (960, 540), (960, 540), (960, 540), (960, 540), (960, 540), (960, 540), (960, 540), (960, 540), (960, 540), (960, 540), (960, 540), (960, 540), (960, 540), (960, 540), (960, 540), (960, 540), (960, 540), (960, 540), (960, 540), (960, 540), (960, 540), (960, 540), (960, 540), (960, 540), (960, 540), (960, 540), (960, 540), (960, 540), (960, 540), (960, 540), (960, 540), (960, 540), (960, 540), (960, 540), (960, 540), (960, 540), (960, 540), (960, 540), (960, 540), (960, 540), (960, 540), (960, 540), (960, 540), (960, 540), (960, 540), (960, 540), (960, 540), (960, 540), (960, 540), (960, 540), (960, 540), (960, 540), (960, 540), (960, 540), (960, 540), (960, 540), (960, 540), (960, 540), (960, 540), (960, 540), (960, 540), (960, 540), (960, 540), (969, 534), (976, 531), (986, 527), (996, 521), (1016, 509), (1028, 501), (1037, 493), (1047, 484), (1066, 461), (1075, 447), (1081, 437), (1088, 427), (1100, 409), (1103, 402), (1107, 395), (1108, 391), (1110, 388), (1110, 388), (1110, 388), (1110, 388), (1110, 388), (1110, 388), (1110, 388), (1110, 388), (1110, 388), (1110, 388), (1110, 388), (1110, 388), (1110, 388), (1110, 388), (1110, 388), (1110, 388), (1106, 388), (1101, 388), (1100, 389), (1100, 389), (1099, 389), (1099, 389), (1099, 389), (1099, 389), (1099, 389), (1098, 389), (1098, 388), (1098, 386), (1098, 385), (1098, 384), (1098, 383), (1098, 383), (1098, 383), (1098, 383), (1098, 383), (1098, 383), (1098, 383), (1098, 383), (1098, 383), (1098, 383), (1098, 383), (1098, 383), (1098, 383), (1098, 383), (1096, 382), (1095, 382), (1092, 381), (1092, 381), (1087, 380), (1083, 378), (1082, 377), (1078, 376), (1069, 369), (1062, 365), (1056, 361), (1049, 355), (1034, 344), (1030, 343), (1028, 340), (1026, 338), (1019, 332), (1017, 327), (1015, 324), (1014, 322), (1012, 318), (1012, 316), (1012, 316), (1012, 316), (1012, 315), (1012, 315), (1012, 315), (1012, 315), (1012, 315), (1012, 315), (1012, 315), (1012, 315), (1012, 315), (1012, 315), (1012, 315), (1012, 315), (1012, 315), (1012, 315), (1011, 316), (1010, 318), (1007, 322), (1004, 323), (1001, 324), (998, 327), (993, 328), (991, 330), (989, 330), (988, 331), (983, 334), (983, 335), (982, 335), (981, 337), (979, 339), (977, 340), (976, 341), (975, 342), (975, 343), (975, 343), (975, 343), (975, 343), (975, 343), (975, 343), (975, 343), (975, 343), (975, 343), (974, 343), (974, 343), (974, 343), (974, 344), (974, 344), (974, 344), (974, 345), (974, 346), (974, 346), (973, 347), (972, 348), (972, 349), (972, 349), (972, 349), (971, 350), (971, 350), (971, 351), (969, 353), (969, 353), (969, 353), (969, 353), (969, 353), (969, 353), (969, 353), (969, 353), (969, 353), (969, 353), (969, 353), (969, 353), (970, 353), (971, 352), (978, 348), (980, 347), (984, 344), (986, 343), (990, 341), (990, 341), (991, 341), (991, 341), (991, 341), (991, 341), (991, 341), (991, 341), (991, 341), (991, 341), (989, 342), (984, 344), (975, 350), (970, 352), (964, 356), (958, 359), (948, 367), (940, 375), (934, 381), (927, 389), (923, 396), (922, 399), (922, 400), (922, 402), (922, 402), (922, 402), (922, 402), (922, 402), (922, 402), (922, 402), (922, 402), (925, 402), (945, 387), (963, 374), (986, 354), (1012, 333), (1065, 295), (1095, 268), (1118, 246), (1136, 225), (1162, 188)]",299.84994678953177,"[1, 4, 7, 3, 5, 2, 8, 9, 6]","(0, 0.25)",THI006B,THI,B,English,Wed Aug 22 15:28:09 2018,Mouse
1,2,2,0,6,8,8,1,420,20,400,149,0,500,200,8000,"[(952, 542), (945, 542), (933, 543), (929, 545), (927, 545), (923, 545), (915, 545), (912, 545), (909, 545), (908, 544), (905, 544), (903, 542), (903, 542), (903, 542), (903, 542), (903, 542), (902, 541), (902, 541), (900, 540), (898, 539), (898, 539), (897, 539), (894, 538), (893, 537), (892, 537), (891, 537), (887, 537), (884, 535), (880, 535), (879, 535), (873, 531), (869, 527), (865, 523), (861, 514), (853, 478), (853, 456), (853, 423), (853, 384), (853, 295), (853, 245), (858, 199), (866, 148)]",256.51532341136976,"[1, 4, 7, 3, 5, 2, 8, 9, 6]","(0, 0.25)",THI006B,THI,B,English,Wed Aug 22 15:28:09 2018,Mouse
1,2,2,0,7,1,1,1,480,190,290,148,0,500,200,8000,"[(960, 540), (960, 540), (960, 540), (960, 540), (960, 540), (960, 540), (960, 540), (960, 540), (960, 540), (960, 540), (960, 540), (960, 540), (960, 540), (960, 540), (960, 540), (960, 540), (960, 540), (960, 540), (963, 540), (970, 547), (973, 552), (975, 557), (981, 563), (993, 576), (1000, 581), (1006, 588), (1011, 593), (1020, 599), (1023, 603), (1029, 606), (1036, 612), (1051, 622), (1058, 628), (1067, 634), (1076, 641), (1096, 652), (1104, 657), (1112, 659), (1125, 665), (1150, 671), (1162, 675), (1180, 680), (1202, 686), (1249, 691), (1271, 695), (1297, 698), (1319, 702), (1346, 709)]",23.644949351285277,"[1, 4, 7, 3, 5, 2, 8, 9, 6]","(0, 0.25)",THI006B,THI,B,English,Wed Aug 22 15:28:09 2018,Mouse
1,2,2,0,8,1,1,1,409,39,370,147,0,500,200,8000,"[(960, 540), (960, 540), (960, 540), (963, 539), (968, 539), (975, 540), (982, 541), (996, 542), (1002, 545), (1007, 546), (1011, 547), (1022, 551), (1025, 552), (1029, 554), (1032, 554), (1037, 555), (1039, 556), (1044, 558), (1048, 558), (1057, 560), (1063, 562), (1067, 564), (1072, 565), (1079, 569), (1083, 572), (1090, 577), (1095, 581), (1107, 592), (1111, 598), (1118, 604), (1127, 612), (1146, 627), (1156, 634), (1169, 643), (1181, 649), (1211, 662), (1223, 667), (1242, 674), (1260, 684), (1305, 704), (1328, 713)]",25.178625303890673,"[1, 4, 7, 3, 5, 2, 8, 9, 6]","(0, 0.25)",THI006B,THI,B,English,Wed Aug 22 15:28:09 2018,Mouse
1,2,2,0,9,3,3,1,501,101,400,146,0,500,200,8000,"[(960, 540), (960, 540), (960, 540), (960, 540), (960, 540), (960, 540), (960, 540), (960, 540), (960, 540), (960, 540), (959, 540), (953, 540), (947, 543), (944, 543), (937, 547), (932, 549), (926, 551), (920, 553), (911, 555), (904, 557), (900, 558), (895, 560), (884, 565), (878, 568), (872, 572), (865, 577), (844, 592), (834, 601), (822, 612), (812, 621), (791, 636), (782, 644), (775, 650), (770, 655), (762, 663), (760, 666), (759, 669), (758, 673), (755, 683), (754, 690), (754, 697), (753, 703), (746, 720), (741, 729), (735, 738), (729, 747), (711, 765), (703, 772), (692, 780), (682, 787), (654, 806)]",139.00018576051312,"[1, 4, 7, 3, 5, 2, 8, 9, 6]","(0, 0.25)",THI006B,THI,B,English,Wed Aug 22 15:28:09 2018,Mouse
1,2,2,0,10,3,3,1,320,20,300,145,0,500,200,8000,"[(957, 541), (952, 543), (941, 547), (933, 550), (926, 552), (920, 554), (908, 557), (902, 560), (897, 563), (885, 568), (879, 571), (874, 575), (871, 578), (862, 584), (858, 587), (851, 591), (847, 594), (833, 603), (827, 608), (818, 616), (811, 622), (797, 642), (789, 653), (781, 664), (771, 678), (751, 702), (739, 717), (723, 735), (708, 753), (676, 789), (661, 803), (642, 821)]",138.53464740006538,"[1, 4, 7, 3, 5, 2, 8, 9, 6]","(0, 0.25)",THI006B,THI,B,English,Wed Aug 22 15:28:09 2018,Mouse
1,2,2,0,11,7,7,1,332,12,320,144,0,500,200,8000,"[(960, 540), (960, 541), (960, 548), (960, 553), (960, 558), (960, 574), (960, 584), (960, 595), (961, 604), (964, 626), (965, 636), (966, 646), (967, 655), (970, 670), (972, 676), (974, 681), (975, 685), (976, 691), (976, 695), (976, 699), (976, 703), (975, 716), (973, 725), (969, 736), (964, 748), (950, 770), (940, 786), (929, 800), (920, 814), (901, 846), (893, 867), (889, 886), (883, 908), (870, 946)]",102.49891945963873,"[1, 4, 7, 3, 5, 2, 8, 9, 6]","(0, 0.25)",THI006B,THI,B,English,Wed Aug 22 15:28:09 2018,Mouse
1,2,2,0,12,7,7,1,350,70,280,143,0,500,200,8000,"[(960, 540), (960, 540), (960, 540), (960, 540), (960, 540), (960, 540), (956, 540), (950, 543), (945, 546), (940, 550), (929, 559), (925, 565), (921, 573), (918, 579), (914, 589), (913, 594), (911, 600), (910, 608), (910, 623), (910, 633), (910, 645), (910, 656), (910, 684), (912, 705), (915, 729), (917, 750), (917, 792), (917, 807), (917, 821), (917, 836), (911, 867), (908, 891), (905, 912), (903, 930), (898, 961)]",98.3776399079582,"[1, 4, 7, 3, 5, 2, 8, 9, 6]","(0, 0.25)",THI006B,THI,B,English,Wed Aug 22 15:28:09 2018,Mouse
1,2,2,0,13,4,8,0,-3010,20,2990,142,0,500,200,8000,"[(961, 540), (962, 540), (962, 540), (962, 540), (962, 540), (962, 540), (962, 540), (962, 540), (962, 540), (962, 540), (962, 540), (962, 540), (962, 540), (962, 540), (963, 540), (965, 540), (965, 539), (966, 537), (967, 533), (969, 529), (969, 527), (969, 525), (969, 520), (969, 517), (969, 514), (969, 512), (969, 507), (968, 504), (967, 502), (965, 501), (963, 501), (962, 501), (961, 501), (959, 501), (959, 500), (958, 500), (958, 500), (958, 500), (958, 500), (958, 500), (958, 500), (958, 500), (958, 500), (958, 500), (958, 500), (958, 500), (958, 500), (958, 500), (958, 500), (958, 500), (958, 500), (958, 500), (958, 500), (958, 500), (958, 500), (958, 500), (958, 500), (958, 500), (958, 500), (958, 500), (958, 500), (958, 500), (958, 500), (958, 500), (958, 500), (958, 500), (958, 500), (958, 500), (958, 500), (958, 500), (958, 500), (958, 500), (958, 500), (958, 500), (958, 500), (958, 500), (958, 500), (958, 500), (958, 500), (958, 500), (958, 500), (958, 500), (958, 500), (958, 500), (958, 500), (958, 500), (958, 500), (958, 500), (958, 500), (958, 500), (958, 500), (958, 500), (958, 500), (958, 500), (958, 500), (958, 500), (958, 500), (958, 500), (958, 500), (958, 500), (958, 500), (958, 500), (958, 500), (958, 500), (958, 500), (958, 500), (958, 500), (958, 500), (958, 500), (958, 500), (958, 500), (958, 500), (958, 500), (958, 500), (958, 500), (958, 500), (958, 500), (958, 500), (958, 500), (958, 500), (958, 500), (958, 500), (963, 500), (966, 500), (970, 502), (972, 502), (976, 503), (977, 503), (979, 503), (980, 503), (981, 503), (982, 503), (982, 503), (982, 503), (982, 503), (982, 503), (982, 503), (982, 503), (982, 503), (982, 503), (982, 503), (982, 503), (982, 503), (982, 503), (982, 503), (982, 503), (982, 503), (982, 503), (982, 503), (982, 503), (982, 503), (982, 503), (982, 503), (982, 503), (982, 503), (982, 503), (982, 503), (982, 503), (982, 503), (982, 503), (982, 503), (982, 503), (982, 503), (982, 503), (982, 503), (982, 503), (982, 503), (982, 503), (982, 503), (982, 503), (982, 503), (982, 503), (982, 503), (982, 503), (982, 503), (982, 503), (982, 503), (982, 503), (982, 503), (982, 503), (982, 503), (982, 503), (982, 503), (982, 503), (982, 503), (982, 503), (982, 503), (982, 503), (982, 503), (982, 503), (982, 503), (982, 503), (982, 503), (982, 503), (982, 503), (982, 503), (982, 503), (982, 503), (982, 503), (982, 503), (982, 503), (982, 503), (982, 503), (982, 503), (982, 503), (982, 503), (982, 503), (982, 503), (982, 503), (982, 503), (982, 503), (982, 503), (982, 503), (982, 503), (982, 503), (982, 503), (982, 503), (982, 503), (982, 503), (982, 503), (982, 503), (982, 503), (982, 503), (982, 503), (982, 503), (982, 503), (982, 503), (982, 503), (982, 503), (982, 503), (982, 503), (982, 503), (982, 503), (982, 503), (982, 503), (982, 503), (982, 503), (982, 503), (982, 503), (982, 503), (982, 503), (982, 503), (982, 503), (982, 503), (982, 503), (982, 503), (982, 503), (982, 503), (982, 503), (982, 503), (982, 503), (982, 503), (982, 503), (982, 503), (982, 503), (982, 503), (982, 503), (982, 503), (982, 503), (982, 503), (982, 503), (982, 503), (982, 503), (982, 503), (982, 503), (982, 503), (976, 498), (970, 493), (961, 486), (955, 482), (949, 476), (948, 476), (947, 475), (947, 475), (947, 475), (947, 475), (947, 475), (947, 474), (947, 472), (948, 470), (950, 466), (953, 462), (962, 452), (967, 447), (971, 442), (977, 433), (981, 419), (983, 411), (984, 402), (986, 387), (986, 351), (986, 323), (986, 296), (986, 273), (980, 222), (975, 201), (971, 186), (966, 172), (960, 152), (955, 142), (951, 132)]",268.73632744834174,"[1, 4, 7, 3, 5, 2, 8, 9, 6]","(0, 0.25)",THI006B,THI,B,English,Wed Aug 22 15:28:09 2018,Mouse
1,2,2,0,14,8,8,1,327,57,270,143,0,500,200,8000,"[(960, 540), (960, 540), (960, 540), (960, 540), (960, 540), (957, 541), (952, 542), (948, 542), (945, 542), (943, 541), (943, 541), (942, 540), (942, 539), (942, 537), (941, 536), (941, 536), (940, 534), (940, 532), (940, 530), (938, 528), (936, 524), (933, 516), (932, 511), (928, 503), (927, 494), (922, 465), (920, 442), (913, 404), (909, 361), (896, 270), (890, 229), (890, 185), (890, 140)]",260.0737544933483,"[1, 4, 7, 3, 5, 2, 8, 9, 6]","(0, 0.25)",THI006B,THI,B,English,Wed Aug 22 15:28:09 2018,Mouse
1,2,2,0,15,1,1,1,551,11,540,143,0,500,200,8000,"[(960, 540), (961, 547), (964, 555), (967, 561), (981, 580), (988, 589), (995, 596), (1000, 604), (1007, 614), (1010, 620), (1014, 626), (1018, 632), (1028, 647), (1033, 655), (1039, 662), (1045, 670), (1056, 686), (1061, 691), (1066, 697), (1071, 702), (1087, 714), (1096, 719), (1105, 724), (1114, 727), (1132, 733), (1142, 735), (1150, 738), (1159, 739), (1178, 740), (1188, 743), (1196, 743), (1204, 743), (1221, 742), (1232, 741), (1241, 740), (1253, 736), (1275, 730), (1284, 727), (1291, 725), (1298, 724), (1304, 721), (1306, 721), (1308, 721), (1308, 721), (1308, 721), (1308, 721), (1308, 721), (1308, 721), (1309, 721), (1309, 721), (1310, 721), (1311, 721), (1314, 721), (1315, 721), (1316, 722), (1317, 722)]",27.012665347938544,"[1, 4, 7, 3, 5, 2, 8, 9, 6]","(0, 0.25)",THI006B,THI,B,English,Wed Aug 22 15:28:09 2018,Mouse
1,2,2,0,16,9,9,1,1229,999,230,142,0,500,200,8000,"[(960, 540), (960, 540), (960, 540), (960, 540), (960, 540), (960, 540), (960, 540), (960, 540), (960, 540), (960, 540), (960, 540), (960, 540), (960, 540), (960, 540), (960, 540), (960, 540), (960, 540), (960, 540), (960, 540), (960, 540), (960, 540), (960, 540), (960, 540), (960, 540), (960, 540), (960, 540), (960, 540), (960, 540), (960, 540), (960, 540), (960, 540), (960, 540), (960, 540), (960, 540), (960, 540), (960, 540), (960, 540), (960, 540), (960, 540), (960, 540), (960, 540), (960, 540), (960, 540), (960, 540), (960, 540), (960, 540), (960, 540), (960, 540), (960, 540), (960, 540), (960, 540), (960, 540), (960, 540), (960, 540), (960, 540), (960, 540), (960, 540), (960, 540), (960, 540), (960, 540), (960, 540), (960, 540), (960, 540), (960, 540), (960, 540), (960, 540), (960, 540), (960, 540), (960, 540), (960, 540), (960, 540), (960, 540), (960, 540), (960, 540), (960, 540), (960, 540), (960, 540), (960, 540), (960, 540), (960, 540), (960, 540), (960, 540), (960, 540), (960, 540), (960, 540), (960, 540), (960, 540), (960, 540), (960, 540), (960, 540), (960, 540), (960, 540), (960, 540), (960, 540), (960, 540), (960, 540), (960, 540), (960, 540), (960, 540), (962, 540), (965, 536), (967, 535), (969, 534), (971, 533), (972, 532), (974, 530), (978, 526), (982, 523), (983, 520), (989, 513), (1005, 484), (1016, 463), (1029, 436), (1039, 410), (1064, 352), (1074, 324), (1088, 294), (1097, 271), (1111, 229), (1116, 212), (1120, 193), (1123, 179), (1132, 154)]",294.0175545794531,"[1, 4, 7, 3, 5, 2, 8, 9, 6]","(0, 0.25)",THI006B,THI,B,English,Wed Aug 22 15:28:09 2018,Mouse
1,2,2,0,17,7,7,1,670,20,650,141,0,500,200,8000,"[(959, 543), (958, 544), (954, 552), (951, 558), (949, 561), (946, 567), (936, 586), (931, 597), (923, 612), (914, 626), (892, 660), (882, 674), (873, 686), (865, 697), (858, 713), (855, 722), (855, 727), (855, 736), (855, 749), (855, 758), (855, 767), (855, 774), (849, 791), (845, 800), (842, 805), (838, 813), (829, 824), (825, 826), (823, 828), (821, 829), (820, 830), (820, 830), (820, 830), (820, 830), (820, 830), (820, 830), (820, 830), (820, 830), (820, 830), (820, 830), (820, 830), (820, 830), (820, 830), (820, 830), (820, 830), (820, 830), (820, 830), (820, 830), (820, 830), (820, 830), (820, 830), (820, 830), (820, 830), (820, 830), (822, 832), (824, 833), (828, 834), (830, 837), (839, 844), (843, 850), (846, 856), (850, 865), (857, 885), (860, 896), (862, 907), (864, 917), (864, 932)]",103.76078511179124,"[1, 4, 7, 3, 5, 2, 8, 9, 6]","(0, 0.25)",THI006B,THI,B,English,Wed Aug 22 15:28:09 2018,Mouse
1,2,2,0,18,6,6,1,2051,1091,960,140,0,500,200,8000,"[(960, 540), (960, 540), (960, 540), (960, 540), (960, 540), (960, 540), (960, 540), (960, 540), (960, 540), (960, 540), (960, 540), (960, 540), (960, 540), (960, 540), (960, 540), (960, 540), (960, 540), (960, 540), (960, 540), (960, 540), (960, 540), (960, 540), (960, 540), (960, 540), (960, 540), (960, 540), (960, 540), (960, 540), (960, 540), (960, 540), (960, 540), (960, 540), (960, 540), (960, 540), (960, 540), (960, 540), (960, 540), (960, 540), (960, 540), (960, 540), (960, 540), (960, 540), (960, 540), (960, 540), (960, 540), (960, 540), (960, 540), (960, 540), (960, 540), (960, 540), (960, 540), (960, 540), (960, 540), (960, 540), (960, 540), (960, 540), (960, 540), (960, 540), (960, 540), (960, 540), (960, 540), (960, 540), (960, 540), (960, 540), (960, 540), (960, 540), (960, 540), (960, 540), (960, 540), (960, 540), (960, 540), (960, 540), (960, 540), (960, 540), (960, 540), (960, 540), (960, 540), (960, 540), (960, 540), (960, 540), (960, 540), (960, 540), (960, 540), (960, 540), (960, 540), (960, 540), (960, 540), (960, 540), (960, 540), (960, 540), (960, 540), (960, 540), (960, 540), (960, 540), (960, 540), (960, 540), (960, 540), (960, 540), (960, 540), (960, 540), (960, 540), (960, 540), (960, 540), (960, 540), (960, 540), (960, 540), (960, 540), (960, 540), (960, 540), (959, 540), (959, 538), (959, 535), (959, 534), (959, 531), (961, 528), (961, 522), (963, 516), (964, 513), (965, 505), (968, 485), (970, 476), (971, 466), (972, 460), (974, 451), (975, 448), (976, 444), (977, 442), (979, 438), (979, 436), (980, 436), (981, 433), (982, 431), (982, 430), (982, 429), (982, 428), (982, 427), (982, 427), (982, 427), (982, 427), (982, 427), (982, 427), (982, 427), (982, 427), (982, 427), (982, 427), (982, 427), (982, 427), (982, 427), (982, 427), (982, 427), (982, 427), (982, 427), (982, 427), (982, 427), (982, 427), (982, 427), (982, 427), (982, 427), (982, 427), (982, 427), (982, 427), (983, 427), (983, 427), (983, 427), (986, 427), (988, 428), (992, 429), (998, 432), (1003, 433), (1007, 436), (1012, 438), (1018, 440), (1019, 440), (1020, 440), (1021, 441), (1021, 441), (1021, 441), (1021, 441), (1021, 441), (1021, 441), (1021, 441), (1021, 441), (1021, 441), (1021, 441), (1021, 441), (1021, 441), (1021, 441), (1021, 441), (1021, 441), (1021, 441), (1021, 441), (1022, 442), (1027, 443), (1035, 444), (1043, 445), (1072, 449), (1092, 449), (1112, 449), (1139, 449), (1193, 449), (1218, 449), (1246, 449), (1279, 449), (1320, 446), (1341, 443), (1365, 440)]",346.130313561495,"[1, 4, 7, 3, 5, 2, 8, 9, 6]","(0, 0.25)",THI006B,THI,B,English,Wed Aug 22 15:28:09 2018,Mouse
1,2,2,0,19,2,2,1,1619,130,1489,139,0,500,200,8000,"[(960, 540), (960, 540), (960, 540), (960, 540), (960, 540), (960, 540), (960, 540), (960, 540), (960, 540), (960, 540), (960, 540), (960, 540), (955, 540), (950, 542), (946, 546), (942, 550), (936, 556), (934, 557), (933, 557), (932, 559), (930, 560), (930, 560), (929, 561), (927, 563), (923, 567), (921, 571), (919, 572), (916, 576), (909, 583), (905, 588), (903, 591), (899, 596), (891, 605), (889, 607), (887, 609), (886, 610), (886, 610), (885, 612), (885, 613), (885, 613), (885, 614), (885, 616), (884, 617), (884, 617), (883, 618), (882, 621), (881, 623), (880, 624), (880, 624), (880, 626), (879, 627), (879, 627), (879, 628), (877, 630), (877, 630), (877, 631), (877, 631), (876, 632), (876, 632), (876, 633), (876, 633), (876, 634), (874, 635), (874, 635), (874, 636), (874, 637), (874, 637), (874, 639), (874, 639), (874, 641), (874, 643), (874, 643), (874, 644), (874, 646), (874, 648), (874, 649), (874, 649), (874, 652), (874, 654), (874, 655), (874, 655), (874, 656), (874, 656), (874, 656), (874, 656), (874, 656), (874, 656), (874, 656), (874, 656), (874, 656), (874, 656), (874, 656), (874, 656), (874, 656), (874, 656), (874, 656), (874, 656), (874, 656), (874, 656), (874, 656), (874, 656), (874, 651), (874, 648), (874, 645), (874, 643), (874, 637), (874, 635), (874, 632), (874, 629), (874, 622), (874, 619), (874, 616), (875, 611), (879, 605), (879, 602), (880, 596), (880, 595), (882, 592), (882, 592), (882, 592), (882, 592), (882, 592), (882, 592), (882, 592), (882, 592), (882, 592), (882, 592), (882, 592), (882, 592), (882, 592), (882, 592), (882, 592), (882, 592), (882, 592), (882, 592), (882, 592), (882, 592), (882, 592), (882, 592), (882, 592), (882, 592), (882, 592), (882, 592), (882, 592), (882, 592), (882, 592), (882, 592), (882, 592), (877, 580), (839, 527), (812, 488), (785, 451), (763, 421), (733, 376), (726, 363), (721, 354), (717, 344), (702, 322), (693, 312), (680, 298), (665, 280), (634, 252)]",221.4585241359196,"[1, 4, 7, 3, 5, 2, 8, 9, 6]","(0, 0.25)",THI006B,THI,B,English,Wed Aug 22 15:28:09 2018,Mouse
1,2,2,0,20,3,3,1,581,421,160,138,0,500,200,8000,"[(960, 540), (960, 540), (960, 540), (960, 540), (960, 540), (960, 540), (960, 540), (960, 540), (960, 540), (960, 540), (960, 540), (960, 540), (960, 540), (960, 540), (960, 540), (960, 540), (960, 540), (960, 540), (960, 540), (960, 540), (960, 540), (960, 540), (960, 540), (960, 540), (960, 540), (960, 540), (960, 540), (960, 540), (960, 540), (960, 540), (960, 540), (960, 540), (960, 540), (960, 540), (960, 540), (960, 540), (960, 540), (960, 540), (960, 540), (960, 540), (960, 540), (960, 540), (960, 543), (958, 560), (952, 571), (945, 586), (935, 602), (902, 643), (887, 663), (870, 681), (855, 699), (828, 728), (814, 741), (796, 758), (778, 775), (745, 809), (728, 830), (707, 849), (688, 868)]",129.66784111834045,"[1, 4, 7, 3, 5, 2, 8, 9, 6]","(0, 0.25)",THI006B,THI,B,English,Wed Aug 22 15:28:09 2018,Mouse
1,2,2,0,21,8,8,1,391,161,230,137,0,500,200,8000,"[(960, 540), (960, 540), (960, 540), (960, 540), (960, 540), (960, 540), (960, 540), (960, 540), (960, 540), (960, 540), (960, 540), (960, 540), (960, 540), (960, 540), (960, 540), (960, 539), (961, 537), (962, 535), (964, 530), (964, 526), (964, 522), (964, 516), (964, 501), (965, 491), (965, 479), (965, 468), (967, 449), (968, 437), (968, 424), (966, 405), (953, 350), (942, 319), (931, 280), (921, 247), (898, 197), (891, 179), (887, 169), (885, 161), (879, 143)]",258.4682069523103,"[1, 4, 7, 3, 5, 2, 8, 9, 6]","(0, 0.25)",THI006B,THI,B,English,Wed Aug 22 15:28:09 2018,Mouse
1,2,2,0,22,9,3,0,-1531,861,670,136,0,500,200,8000,"[(960, 540), (960, 540), (960, 540), (960, 540), (960, 540), (960, 540), (960, 540), (960, 540), (960, 540), (960, 540), (960, 540), (960, 540), (960, 540), (960, 540), (960, 540), (960, 540), (960, 540), (960, 540), (960, 540), (960, 540), (960, 540), (960, 540), (960, 540), (960, 540), (960, 540), (960, 540), (960, 540), (960, 540), (960, 540), (960, 540), (960, 540), (960, 540), (960, 540), (960, 540), (960, 540), (960, 540), (960, 540), (960, 540), (960, 540), (960, 540), (960, 540), (960, 540), (960, 540), (960, 540), (960, 540), (960, 540), (960, 540), (960, 540), (960, 540), (960, 540), (960, 540), (960, 540), (960, 540), (960, 540), (960, 540), (960, 540), (960, 540), (960, 540), (960, 540), (960, 540), (960, 540), (960, 540), (960, 540), (960, 540), (960, 540), (960, 540), (960, 540), (960, 540), (960, 540), (960, 540), (960, 540), (960, 540), (960, 540), (960, 540), (960, 540), (960, 540), (960, 540), (960, 540), (960, 540), (960, 540), (960, 540), (960, 540), (960, 540), (960, 540), (960, 540), (960, 540), (960, 541), (959, 543), (958, 545), (957, 546), (956, 549), (953, 552), (953, 555), (952, 557), (950, 560), (949, 563), (949, 564), (948, 566), (946, 570), (940, 575), (935, 580), (930, 583), (927, 585), (921, 589), (917, 592), (914, 595), (909, 598), (900, 604), (893, 609), (887, 614), (879, 620), (861, 638), (853, 647), (843, 657), (833, 668), (811, 685), (801, 693), (787, 702), (778, 707), (762, 718), (756, 723), (750, 728), (746, 732), (736, 742), (731, 747), (728, 751), (727, 752), (725, 754), (725, 754), (725, 754), (725, 754), (725, 754), (725, 754), (725, 754), (725, 754), (725, 754), (725, 754), (725, 754), (725, 754), (725, 755), (725, 755), (725, 756), (725, 756), (725, 757), (725, 759), (725, 761), (721, 763), (710, 770), (704, 774), (697, 778), (689, 786), (674, 796), (665, 802), (659, 808)]",138.31923563434404,"[1, 4, 7, 3, 5, 2, 8, 9, 6]","(0, 0.25)",THI006B,THI,B,English,Wed Aug 22 15:28:09 2018,Mouse
1,2,2,0,23,4,4,1,1030,690,340,137,0,500,200,8000,"[(960, 540), (960, 540), (960, 540), (960, 540), (960, 540), (960, 540), (960, 540), (960, 540), (960, 540), (960, 540), (960, 540), (960, 540), (960, 540), (960, 540), (960, 540), (960, 540), (960, 540), (960, 540), (960, 540), (960, 540), (960, 540), (960, 540), (960, 540), (960, 540), (960, 540), (960, 540), (960, 540), (960, 540), (960, 540), (960, 540), (960, 540), (960, 540), (960, 540), (960, 540), (960, 540), (960, 540), (960, 540), (960, 540), (960, 540), (960, 540), (960, 540), (960, 540), (960, 540), (960, 540), (960, 540), (960, 540), (960, 540), (960, 540), (960, 540), (960, 540), (960, 540), (960, 540), (960, 540), (960, 540), (960, 540), (960, 540), (960, 540), (960, 540), (960, 540), (960, 540), (960, 540), (960, 540), (960, 540), (960, 540), (960, 540), (960, 540), (960, 540), (960, 540), (960, 541), (960, 541), (960, 541), (960, 542), (961, 547), (961, 548), (961, 551), (961, 553), (962, 558), (962, 559), (962, 561), (962, 562), (962, 562), (962, 562), (962, 562), (962, 563), (964, 565), (965, 568), (968, 571), (970, 576), (974, 586), (976, 595), (978, 604), (980, 615), (987, 642), (992, 655), (997, 667), (1006, 688), (1032, 729), (1048, 754), (1066, 777), (1092, 806), (1132, 853), (1151, 874), (1164, 891)]",59.83499219425874,"[1, 4, 7, 3, 5, 2, 8, 9, 6]","(0, 0.25)",THI006B,THI,B,English,Wed Aug 22 15:28:09 2018,Mouse
1,2,2,0,24,6,6,1,940,350,590,137,0,500,200,8000,"[(960, 540), (960, 540), (960, 540), (960, 540), (960, 540), (960, 540), (960, 540), (960, 540), (960, 540), (960, 540), (960, 540), (960, 540), (960, 540), (960, 540), (960, 540), (960, 540), (960, 540), (960, 540), (960, 540), (960, 540), (960, 540), (960, 540), (960, 540), (960, 540), (960, 540), (960, 540), (960, 540), (960, 540), (960, 540), (960, 540), (960, 540), (960, 540), (960, 540), (960, 540), (959, 540), (958, 540), (955, 536), (954, 535), (954, 533), (953, 533), (953, 532), (953, 530), (952, 530), (952, 530), (952, 530), (952, 529), (952, 528), (952, 526), (955, 522), (961, 519), (969, 517), (976, 516), (991, 511), (997, 509), (1005, 505), (1012, 503), (1026, 497), (1033, 495), (1039, 492), (1049, 488), (1060, 481), (1065, 478), (1069, 475), (1073, 471), (1083, 465), (1088, 462), (1092, 460), (1095, 458), (1097, 457), (1097, 457), (1099, 456), (1099, 456), (1099, 456), (1099, 456), (1099, 456), (1099, 456), (1099, 456), (1099, 455), (1100, 455), (1101, 454), (1104, 454), (1107, 452), (1109, 452), (1116, 451), (1136, 449), (1149, 447), (1166, 444), (1185, 440), (1229, 436), (1253, 431), (1270, 426), (1284, 424), (1321, 416), (1341, 409)]",341.02538946435067,"[1, 4, 7, 3, 5, 2, 8, 9, 6]","(0, 0.25)",THI006B,THI,B,English,Wed Aug 22 15:28:09 2018,Mouse
1,2,2,0,25,9,8,0,-2179,189,1990,136,0,500,200,8000,"[(960, 540), (960, 540), (960, 540), (960, 540), (960, 540), (960, 540), (960, 540), (960, 540), (960, 540), (960, 540), (960, 540), (960, 540), (960, 540), (960, 540), (960, 540), (960, 540), (960, 540), (960, 540), (961, 541), (961, 541), (961, 541), (960, 543), (956, 545), (953, 548), (951, 549), (947, 551), (944, 553), (941, 556), (940, 556), (939, 558), (939, 563), (939, 566), (939, 570), (939, 571), (939, 574), (939, 576), (940, 579), (942, 581), (951, 587), (955, 590), (959, 592), (964, 595), (969, 597), (971, 598), (972, 599), (972, 599), (972, 599), (972, 599), (972, 599), (972, 599), (973, 600), (973, 600), (973, 600), (973, 600), (973, 600), (973, 600), (973, 600), (973, 600), (973, 600), (974, 601), (974, 601), (974, 601), (974, 602), (974, 603), (974, 603), (974, 604), (974, 606), (975, 608), (975, 608), (975, 610), (975, 612), (976, 614), (976, 615), (976, 616), (977, 619), (977, 619), (977, 619), (977, 619), (977, 620), (977, 620), (977, 620), (977, 620), (977, 620), (977, 620), (977, 620), (977, 620), (977, 620), (977, 620), (977, 620), (977, 620), (977, 620), (977, 620), (977, 620), (977, 620), (977, 620), (977, 620), (977, 620), (977, 620), (977, 620), (977, 620), (977, 620), (977, 620), (977, 620), (977, 620), (977, 620), (977, 620), (977, 620), (977, 620), (977, 620), (977, 620), (977, 620), (977, 620), (977, 620), (977, 620), (977, 620), (977, 620), (977, 620), (977, 620), (977, 620), (977, 620), (977, 620), (977, 620), (977, 620), (977, 620), (977, 620), (977, 620), (977, 620), (977, 620), (977, 620), (977, 620), (977, 621), (977, 621), (977, 621), (977, 621), (977, 621), (977, 621), (977, 621), (977, 621), (977, 621), (977, 621), (977, 621), (977, 621), (977, 621), (977, 621), (977, 621), (977, 621), (977, 621), (977, 621), (977, 621), (977, 621), (977, 621), (977, 621), (977, 621), (977, 621), (977, 621), (977, 621), (977, 621), (977, 621), (977, 621), (977, 621), (977, 621), (977, 621), (977, 621), (977, 621), (977, 621), (977, 621), (977, 621), (977, 621), (977, 621), (977, 621), (977, 621), (977, 621), (977, 621), (977, 621), (977, 621), (977, 621), (977, 621), (977, 621), (977, 621), (977, 621), (977, 621), (977, 621), (977, 621), (977, 621), (977, 621), (977, 621), (977, 621), (977, 621), (977, 621), (977, 621), (977, 621), (977, 621), (977, 621), (977, 621), (977, 621), (977, 621), (977, 621), (977, 614), (977, 604), (977, 595), (976, 583), (974, 572), (970, 539), (966, 520), (966, 503), (965, 489), (959, 455), (955, 436), (951, 410), (946, 387), (932, 345), (929, 321), (921, 293), (913, 263), (900, 211), (894, 188), (889, 169), (881, 144)]",258.71789451724163,"[1, 4, 7, 3, 5, 2, 8, 9, 6]","(0, 0.25)",THI006B,THI,B,English,Wed Aug 22 15:28:09 2018,Mouse
1,2,2,0,26,3,3,1,570,19,551,137,0,500,200,8000,"[(959, 543), (957, 547), (956, 549), (953, 554), (952, 555), (952, 557), (948, 561), (948, 563), (947, 565), (944, 568), (941, 574), (941, 574), (940, 576), (939, 580), (936, 584), (935, 588), (933, 592), (932, 596), (928, 603), (927, 606), (924, 611), (922, 616), (915, 628), (911, 633), (905, 641), (900, 647), (888, 658), (880, 663), (873, 668), (866, 672), (849, 683), (842, 686), (833, 692), (823, 697), (804, 711), (795, 717), (786, 723), (778, 728), (767, 736), (764, 739), (760, 741), (759, 742), (756, 744), (756, 744), (755, 745), (754, 746), (750, 749), (748, 751), (744, 755), (739, 761), (727, 776), (721, 785), (713, 794), (705, 803), (690, 817), (682, 824), (674, 829)]",134.7010682105975,"[1, 4, 7, 3, 5, 2, 8, 9, 6]","(0, 0.25)",THI006B,THI,B,English,Wed Aug 22 15:28:09 2018,Mouse
1,2,2,0,27,9,7,0,-720,500,220,137,0,500,200,8000,"[(960, 540), (960, 540), (960, 540), (960, 540), (960, 540), (960, 540), (960, 540), (960, 540), (960, 540), (960, 540), (960, 540), (960, 540), (960, 540), (960, 540), (960, 540), (960, 540), (960, 540), (960, 540), (960, 540), (960, 540), (960, 540), (960, 540), (960, 540), (960, 540), (960, 540), (960, 540), (960, 540), (960, 540), (960, 540), (960, 540), (960, 540), (960, 540), (960, 540), (960, 540), (960, 540), (960, 540), (960, 540), (960, 540), (960, 540), (960, 540), (960, 540), (960, 540), (960, 540), (960, 540), (960, 540), (960, 540), (960, 540), (960, 540), (960, 540), (960, 541), (960, 541), (960, 541), (960, 544), (959, 547), (958, 549), (957, 553), (956, 564), (954, 573), (953, 584), (952, 598), (946, 629), (940, 646), (933, 666), (926, 684), (916, 730), (910, 755), (908, 786), (908, 820), (908, 887), (908, 910), (912, 936), (912, 951)]",96.66130163977016,"[1, 4, 7, 3, 5, 2, 8, 9, 6]","(0, 0.25)",THI006B,THI,B,English,Wed Aug 22 15:28:09 2018,Mouse
1,2,2,0,28,7,7,1,410,320,90,138,0,500,200,8000,"[(960, 540), (960, 540), (960, 540), (960, 540), (960, 540), (960, 540), (960, 540), (960, 540), (960, 540), (960, 540), (960, 540), (960, 540), (960, 540), (960, 540), (960, 540), (960, 540), (960, 540), (960, 540), (960, 540), (960, 540), (960, 540), (960, 540), (960, 540), (960, 540), (960, 540), (960, 540), (960, 540), (960, 540), (960, 540), (960, 540), (960, 540), (956, 549), (952, 564), (943, 594), (932, 633), (905, 722), (891, 769), (883, 818), (880, 858), (873, 916), (872, 939)]",102.4375482490065,"[1, 4, 7, 3, 5, 2, 8, 9, 6]","(0, 0.25)",THI006B,THI,B,English,Wed Aug 22 15:28:09 2018,Mouse
1,2,2,0,29,9,3,0,-329,29,300,138,0,500,200,8000,"[(960, 540), (960, 540), (958, 540), (956, 540), (953, 540), (945, 540), (938, 541), (935, 541), (931, 541), (922, 543), (919, 545), (915, 547), (909, 551), (900, 558), (895, 562), (888, 566), (881, 569), (868, 577), (861, 581), (852, 588), (844, 595), (826, 610), (817, 621), (806, 636), (795, 653), (765, 691), (752, 708), (736, 728), (728, 744), (700, 775), (687, 788), (674, 802), (664, 814)]",137.2103189243539,"[1, 4, 7, 3, 5, 2, 8, 9, 6]","(0, 0.25)",THI006B,THI,B,English,Wed Aug 22 15:28:09 2018,Mouse
1,2,2,0,30,3,3,1,569,260,309,139,0,500,200,8000,"[(960, 540), (960, 540), (960, 540), (960, 540), (960, 540), (960, 540), (960, 540), (960, 540), (960, 540), (960, 540), (960, 540), (960, 540), (960, 540), (960, 540), (960, 540), (960, 540), (960, 540), (960, 540), (960, 540), (960, 540), (960, 540), (960, 540), (960, 540), (960, 540), (960, 540), (959, 540), (957, 540), (953, 540), (952, 540), (947, 542), (939, 544), (931, 550), (914, 563), (904, 573), (893, 582), (877, 595), (851, 622), (843, 632), (834, 642), (826, 651), (812, 665), (807, 669), (802, 673), (798, 678), (787, 692), (782, 701), (775, 710), (768, 720), (754, 740), (746, 752), (736, 763), (728, 775), (712, 800), (704, 811), (696, 820), (689, 827), (677, 838)]",133.5210915359593,"[1, 4, 7, 3, 5, 2, 8, 9, 6]","(0, 0.25)",THI006B,THI,B,English,Wed Aug 22 15:28:09 2018,Mouse
1,2,2,0,31,5,5,1,910,720,190,139,0,500,200,8000,"[(960, 540), (960, 540), (960, 540), (960, 540), (960, 540), (960, 540), (960, 540), (960, 540), (960, 540), (960, 540), (960, 540), (960, 540), (960, 540), (960, 540), (960, 540), (960, 540), (960, 540), (960, 540), (960, 540), (960, 540), (960, 540), (960, 540), (960, 540), (960, 540), (960, 540), (960, 540), (960, 540), (960, 540), (960, 540), (960, 540), (960, 540), (960, 540), (960, 540), (960, 540), (960, 540), (960, 540), (960, 540), (960, 540), (960, 540), (960, 540), (960, 540), (960, 540), (960, 540), (960, 540), (960, 540), (960, 540), (960, 540), (960, 540), (960, 540), (960, 540), (960, 540), (960, 540), (960, 540), (960, 540), (960, 540), (960, 540), (960, 540), (960, 540), (960, 540), (960, 540), (960, 540), (960, 540), (960, 540), (960, 540), (960, 540), (960, 540), (960, 540), (960, 540), (960, 540), (960, 540), (960, 540), (957, 538), (952, 536), (943, 534), (925, 533), (916, 533), (906, 533), (898, 533), (876, 536), (854, 540), (826, 540), (801, 540), (747, 538), (729, 537), (704, 529), (679, 523), (635, 512), (621, 509), (604, 508), (585, 504), (555, 501)]",185.5004114702019,"[1, 4, 7, 3, 5, 2, 8, 9, 6]","(0, 0.25)",THI006B,THI,B,English,Wed Aug 22 15:28:09 2018,Mouse
1,2,2,0,32,8,8,1,350,110,240,138,0,500,200,8000,"[(960, 540), (960, 540), (960, 540), (960, 540), (960, 540), (960, 540), (960, 540), (960, 540), (960, 540), (960, 540), (961, 540), (963, 540), (966, 540), (970, 538), (975, 533), (977, 532), (980, 529), (984, 522), (991, 513), (996, 506), (999, 499), (1006, 490), (1012, 474), (1017, 460), (1019, 446), (1022, 431), (1023, 380), (1023, 349), (1021, 318), (1006, 270), (997, 249), (983, 222), (972, 198), (957, 171), (938, 134)]",266.89833597013154,"[1, 4, 7, 3, 5, 2, 8, 9, 6]","(0, 0.25)",THI006B,THI,B,English,Wed Aug 22 15:28:09 2018,Mouse
1,2,2,0,33,4,4,1,1141,51,1090,137,0,500,200,8000,"[(960, 540), (960, 540), (960, 540), (960, 540), (960, 540), (959, 542), (955, 549), (951, 555), (946, 561), (943, 567), (934, 579), (929, 587), (925, 596), (918, 603), (908, 617), (904, 623), (897, 629), (892, 631), (883, 638), (879, 642), (876, 647), (872, 652), (864, 668), (858, 677), (853, 687), (849, 695), (842, 711), (839, 716), (835, 722), (833, 727), (826, 735), (825, 737), (823, 738), (823, 739), (822, 740), (822, 740), (822, 740), (822, 740), (822, 740), (822, 740), (822, 740), (822, 740), (824, 740), (827, 739), (828, 738), (831, 737), (833, 737), (837, 735), (839, 734), (843, 733), (848, 733), (852, 731), (854, 731), (857, 731), (862, 731), (865, 731), (867, 731), (869, 731), (872, 731), (874, 731), (875, 731), (876, 731), (880, 731), (882, 731), (883, 731), (885, 731), (891, 731), (892, 731), (893, 731), (894, 731), (895, 730), (896, 730), (896, 730), (896, 730), (896, 730), (896, 730), (896, 730), (896, 730), (896, 730), (896, 730), (896, 730), (896, 730), (896, 730), (896, 730), (896, 730), (896, 730), (896, 730), (896, 730), (897, 730), (897, 730), (900, 730), (900, 730), (903, 730), (908, 730), (917, 734), (925, 738), (931, 741), (942, 746), (961, 755), (974, 763), (987, 770), (1001, 779), (1028, 797), (1042, 807), (1053, 815), (1065, 823), (1085, 838), (1093, 842), (1103, 849), (1113, 853), (1131, 861), (1141, 865), (1151, 870), (1161, 874), (1180, 880)]",57.094757077012105,"[1, 4, 7, 3, 5, 2, 8, 9, 6]","(0, 0.25)",THI006B,THI,B,English,Wed Aug 22 15:28:09 2018,Mouse
1,2,2,0,34,4,4,1,379,59,320,136,0,500,200,8000,"[(960, 540), (960, 540), (960, 540), (960, 540), (960, 540), (960, 541), (960, 546), (962, 550), (964, 555), (966, 560), (972, 573), (977, 580), (982, 588), (984, 594), (989, 602), (992, 607), (994, 611), (997, 616), (1001, 627), (1003, 632), (1006, 638), (1008, 642), (1016, 658), (1018, 667), (1023, 676), (1029, 686), (1046, 711), (1052, 721), (1064, 739), (1074, 753), (1100, 788), (1112, 805), (1124, 820), (1137, 837), (1155, 860), (1162, 870), (1169, 878), (1175, 886)]",58.14370773699879,"[1, 4, 7, 3, 5, 2, 8, 9, 6]","(0, 0.25)",THI006B,THI,B,English,Wed Aug 22 15:28:09 2018,Mouse
1,2,2,0,35,9,8,0,-1120,140,980,135,0,500,200,8000,"[(960, 540), (960, 540), (960, 540), (960, 540), (960, 540), (960, 540), (960, 540), (960, 540), (960, 540), (960, 540), (960, 540), (960, 540), (960, 540), (960, 541), (960, 541), (959, 542), (958, 542), (957, 544), (956, 544), (952, 545), (951, 545), (948, 546), (947, 547), (945, 547), (944, 548), (941, 549), (941, 549), (936, 550), (933, 551), (930, 552), (926, 552), (921, 553), (919, 554), (917, 555), (916, 555), (911, 555), (907, 556), (900, 559), (895, 561), (882, 568), (874, 574), (868, 579), (861, 586), (853, 592), (850, 595), (847, 596), (847, 597), (847, 597), (847, 597), (846, 598), (846, 598), (846, 598), (846, 598), (846, 598), (846, 598), (846, 598), (846, 598), (846, 598), (846, 598), (846, 598), (846, 598), (846, 598), (846, 598), (846, 598), (846, 598), (846, 598), (846, 598), (846, 598), (846, 598), (846, 598), (846, 598), (846, 598), (846, 598), (846, 598), (846, 598), (846, 598), (846, 598), (846, 598), (846, 598), (846, 598), (846, 598), (846, 598), (846, 598), (846, 598), (846, 598), (846, 598), (846, 598), (846, 598), (846, 598), (846, 598), (846, 598), (846, 598), (846, 598), (846, 598), (846, 598), (846, 598), (846, 598), (846, 598), (846, 598), (846, 598), (848, 598), (851, 592), (856, 580), (868, 531), (876, 490), (882, 433), (882, 384), (882, 289), (882, 245), (885, 208), (890, 170), (892, 103)]",261.1553407062069,"[1, 4, 7, 3, 5, 2, 8, 9, 6]","(0, 0.25)",THI006B,THI,B,English,Wed Aug 22 15:28:09 2018,Mouse
1,2,2,0,36,2,2,1,1210,1040,170,136,0,500,200,8000,"[(960, 540), (960, 540), (960, 540), (960, 540), (960, 540), (960, 540), (960, 540), (960, 540), (960, 540), (960, 540), (960, 540), (960, 540), (960, 540), (960, 540), (960, 540), (960, 540), (960, 540), (960, 540), (960, 540), (960, 540), (960, 540), (960, 540), (960, 540), (960, 540), (960, 540), (960, 540), (960, 540), (960, 540), (960, 540), (960, 540), (960, 540), (960, 540), (960, 540), (960, 540), (960, 540), (960, 540), (960, 540), (960, 540), (960, 540), (960, 540), (960, 540), (960, 540), (960, 540), (960, 540), (960, 540), (960, 540), (960, 540), (960, 540), (960, 540), (960, 540), (960, 540), (960, 540), (960, 540), (960, 540), (960, 540), (960, 540), (960, 540), (960, 540), (960, 540), (960, 540), (960, 540), (960, 540), (960, 540), (960, 540), (960, 540), (960, 540), (960, 540), (960, 540), (960, 540), (960, 540), (960, 540), (960, 540), (960, 540), (960, 540), (960, 540), (960, 540), (960, 540), (960, 540), (960, 540), (960, 540), (960, 540), (960, 540), (960, 540), (960, 540), (960, 540), (960, 540), (960, 540), (960, 540), (960, 540), (960, 540), (960, 540), (960, 540), (960, 540), (960, 540), (960, 540), (960, 540), (960, 540), (960, 540), (960, 540), (960, 540), (960, 540), (960, 540), (960, 540), (955, 539), (949, 532), (945, 525), (941, 518), (929, 502), (925, 495), (918, 488), (912, 479), (895, 461), (887, 452), (875, 440), (859, 426), (818, 393), (795, 371), (769, 350), (740, 327), (685, 290), (655, 275)]",220.98582430458896,"[1, 4, 7, 3, 5, 2, 8, 9, 6]","(0, 0.25)",THI006B,THI,B,English,Wed Aug 22 15:28:09 2018,Mouse
1,2,2,0,37,7,7,1,430,80,350,136,0,500,200,8000,"[(960, 540), (960, 540), (960, 540), (960, 540), (960, 540), (960, 540), (960, 540), (960, 541), (958, 548), (952, 569), (950, 582), (949, 595), (948, 608), (944, 630), (944, 638), (944, 645), (944, 652), (944, 666), (946, 670), (948, 675), (950, 678), (951, 682), (951, 684), (951, 685), (951, 688), (951, 698), (951, 703), (951, 708), (951, 715), (951, 726), (950, 734), (950, 741), (947, 750), (945, 769), (942, 781), (941, 796), (939, 811), (937, 848), (936, 866), (936, 891), (936, 906), (936, 933), (936, 944)]",93.39971415912326,"[1, 4, 7, 3, 5, 2, 8, 9, 6]","(0, 0.25)",THI006B,THI,B,English,Wed Aug 22 15:28:09 2018,Mouse
1,2,2,0,38,1,1,1,651,371,280,135,0,500,200,8000,"[(960, 540), (960, 540), (960, 540), (960, 540), (960, 540), (960, 540), (960, 540), (960, 540), (960, 540), (960, 540), (960, 540), (960, 540), (960, 540), (960, 540), (960, 540), (960, 540), (960, 540), (960, 540), (960, 540), (960, 540), (960, 540), (960, 540), (960, 540), (960, 540), (960, 540), (960, 540), (960, 540), (960, 540), (960, 540), (960, 540), (960, 540), (960, 540), (960, 540), (960, 540), (960, 540), (960, 540), (961, 540), (976, 543), (984, 545), (993, 548), (1017, 554), (1032, 560), (1047, 567), (1059, 573), (1087, 584), (1098, 589), (1111, 595), (1120, 599), (1140, 606), (1154, 610), (1167, 613), (1178, 617), (1208, 624), (1227, 628), (1248, 631), (1268, 638), (1296, 647), (1309, 650), (1319, 655), (1325, 657), (1333, 661), (1336, 662), (1338, 664), (1339, 664), (1341, 666)]",18.299498059860426,"[1, 4, 7, 3, 5, 2, 8, 9, 6]","(0, 0.25)",THI006B,THI,B,English,Wed Aug 22 15:28:09 2018,Mouse
1,2,2,0,39,4,3,0,-980,330,650,134,0,500,200,8000,"[(960, 540), (960, 540), (960, 540), (960, 540), (960, 540), (960, 540), (960, 540), (960, 540), (960, 540), (960, 540), (960, 540), (960, 540), (960, 540), (960, 540), (960, 540), (960, 540), (960, 540), (960, 540), (960, 540), (960, 540), (960, 540), (960, 540), (960, 540), (960, 540), (960, 540), (960, 540), (960, 540), (960, 540), (960, 540), (960, 540), (960, 540), (960, 540), (959, 540), (959, 540), (958, 542), (958, 544), (958, 545), (958, 545), (956, 548), (956, 548), (956, 549), (956, 549), (956, 550), (955, 551), (955, 551), (955, 552), (954, 554), (954, 555), (954, 556), (954, 556), (954, 557), (954, 557), (954, 558), (954, 558), (953, 559), (953, 559), (953, 560), (953, 560), (953, 561), (953, 563), (953, 564), (953, 566), (952, 567), (952, 567), (952, 569), (952, 569), (951, 571), (951, 571), (950, 572), (950, 572), (950, 573), (949, 574), (949, 575), (949, 576), (946, 581), (943, 583), (941, 586), (936, 588), (924, 593), (915, 598), (911, 599), (904, 600), (884, 606), (865, 616), (854, 621), (841, 629), (811, 650), (797, 661), (777, 676), (761, 692), (733, 717), (723, 730), (711, 741), (699, 751), (676, 771), (667, 780), (657, 790), (648, 799)]",140.3029777759947,"[1, 4, 7, 3, 5, 2, 8, 9, 6]","(0, 0.25)",THI006B,THI,B,English,Wed Aug 22 15:28:09 2018,Mouse
1,2,2,0,40,9,4,0,-851,731,120,135,0,500,200,8000,"[(960, 540), (960, 540), (960, 540), (960, 540), (960, 540), (960, 540), (960, 540), (960, 540), (960, 540), (960, 540), (960, 540), (960, 540), (960, 540), (960, 540), (960, 540), (960, 540), (960, 540), (960, 540), (960, 540), (960, 540), (960, 540), (960, 540), (960, 540), (960, 540), (960, 540), (960, 540), (960, 540), (960, 540), (960, 540), (960, 540), (960, 540), (960, 540), (960, 540), (960, 540), (960, 540), (960, 540), (960, 540), (960, 540), (960, 540), (960, 540), (960, 540), (960, 540), (960, 540), (960, 540), (960, 540), (960, 540), (960, 540), (960, 540), (960, 540), (960, 540), (960, 540), (960, 540), (960, 540), (960, 540), (960, 540), (960, 540), (960, 540), (960, 540), (960, 540), (960, 540), (960, 540), (960, 540), (960, 540), (960, 540), (960, 540), (960, 540), (960, 540), (960, 540), (960, 540), (960, 540), (960, 540), (960, 540), (960, 540), (962, 546), (967, 564), (972, 581), (997, 631), (1011, 656), (1029, 686), (1040, 707), (1076, 756), (1093, 774), (1113, 789), (1136, 806), (1187, 843), (1213, 868)]",52.35550839596118,"[1, 4, 7, 3, 5, 2, 8, 9, 6]","(0, 0.25)",THI006B,THI,B,English,Wed Aug 22 15:28:09 2018,Mouse
1,2,2,0,41,5,5,1,591,301,290,136,0,500,200,8000,"[(960, 540), (960, 540), (960, 540), (960, 540), (960, 540), (960, 540), (960, 540), (960, 540), (960, 540), (960, 540), (960, 540), (960, 540), (960, 540), (960, 540), (960, 540), (960, 540), (960, 540), (960, 540), (960, 540), (960, 540), (960, 540), (960, 540), (960, 540), (960, 540), (960, 540), (960, 540), (960, 540), (960, 540), (960, 540), (960, 540), (958, 539), (955, 538), (953, 537), (951, 537), (948, 536), (947, 536), (946, 536), (944, 536), (944, 536), (943, 536), (943, 536), (943, 536), (943, 536), (942, 536), (942, 536), (941, 536), (938, 536), (934, 536), (930, 536), (923, 535), (904, 531), (891, 531), (874, 529), (852, 524), (802, 518), (768, 515), (726, 515), (682, 515), (588, 515), (540, 515)]",183.4064437549947,"[1, 4, 7, 3, 5, 2, 8, 9, 6]","(0, 0.25)",THI006B,THI,B,English,Wed Aug 22 15:28:09 2018,Mouse
1,2,2,0,42,3,3,1,369,109,260,136,0,500,200,8000,"[(960, 540), (960, 540), (960, 540), (960, 540), (960, 540), (960, 540), (960, 540), (960, 540), (960, 540), (960, 540), (960, 544), (957, 552), (953, 560), (947, 571), (932, 593), (925, 604), (919, 614), (910, 627), (892, 648), (883, 657), (872, 666), (863, 674), (842, 692), (832, 699), (823, 709), (814, 716), (799, 733), (790, 743), (782, 752), (770, 762), (748, 777), (735, 784), (723, 788), (710, 794), (683, 804), (672, 807), (662, 810)]",137.8221552998118,"[1, 4, 7, 3, 5, 2, 8, 9, 6]","(0, 0.25)",THI006B,THI,B,English,Wed Aug 22 15:28:09 2018,Mouse
1,2,2,0,43,3,4,0,-1041,61,980,135,0,500,200,8000,"[(960, 540), (960, 540), (960, 540), (960, 540), (960, 540), (960, 540), (961, 539), (961, 539), (960, 538), (958, 538), (957, 538), (956, 539), (954, 541), (953, 541), (953, 541), (953, 541), (953, 541), (953, 541), (953, 541), (953, 541), (953, 541), (953, 541), (953, 541), (953, 541), (953, 541), (953, 541), (953, 541), (953, 541), (953, 541), (953, 541), (953, 541), (953, 541), (953, 541), (953, 541), (953, 541), (953, 541), (953, 541), (953, 541), (953, 541), (953, 541), (953, 541), (953, 541), (953, 541), (953, 541), (953, 541), (953, 541), (953, 541), (953, 541), (953, 541), (953, 541), (953, 541), (953, 541), (953, 541), (953, 541), (953, 541), (953, 541), (953, 541), (953, 541), (953, 541), (953, 541), (953, 541), (953, 541), (953, 541), (953, 541), (953, 541), (953, 541), (953, 541), (953, 541), (953, 541), (953, 541), (953, 541), (953, 541), (953, 541), (953, 541), (953, 541), (953, 541), (953, 541), (953, 541), (953, 541), (953, 541), (953, 541), (953, 541), (953, 541), (953, 541), (953, 541), (953, 541), (953, 541), (953, 541), (953, 541), (953, 548), (953, 559), (955, 571), (960, 589), (974, 627), (981, 650), (990, 670), (1002, 697), (1026, 745), (1040, 769), (1053, 794), (1070, 819), (1099, 865), (1111, 887), (1119, 900), (1126, 914)]",66.06594565311872,"[1, 4, 7, 3, 5, 2, 8, 9, 6]","(0, 0.25)",THI006B,THI,B,English,Wed Aug 22 15:28:09 2018,Mouse
1,2,2,0,44,9,1,0,-681,41,640,136,0,500,200,8000,"[(960, 540), (960, 540), (960, 540), (960, 540), (955, 539), (950, 541), (942, 546), (927, 556), (923, 558), (921, 559), (920, 560), (918, 560), (918, 560), (918, 560), (918, 560), (918, 560), (918, 560), (918, 560), (918, 560), (918, 560), (918, 560), (918, 560), (918, 560), (918, 560), (918, 560), (918, 560), (918, 560), (918, 560), (918, 560), (918, 560), (918, 560), (918, 560), (918, 560), (922, 560), (927, 560), (933, 560), (933, 560), (935, 561), (935, 562), (937, 562), (940, 562), (942, 563), (945, 564), (950, 565), (953, 566), (957, 567), (959, 567), (960, 567), (960, 567), (960, 567), (960, 567), (961, 568), (961, 568), (962, 569), (962, 569), (963, 569), (965, 570), (968, 571), (970, 571), (983, 574), (996, 578), (1014, 582), (1036, 590), (1112, 612), (1156, 623), (1200, 635), (1242, 650), (1336, 673), (1378, 689)]",19.619083556315182,"[1, 4, 7, 3, 5, 2, 8, 9, 6]","(0, 0.25)",THI006B,THI,B,English,Wed Aug 22 15:28:09 2018,Mouse
1,2,2,0,45,2,2,1,1140,30,1110,137,0,500,200,8000,"[(959, 540), (959, 540), (958, 540), (958, 540), (958, 540), (957, 540), (956, 540), (953, 542), (949, 543), (941, 544), (936, 544), (932, 545), (925, 547), (904, 550), (897, 551), (891, 551), (889, 552), (887, 552), (887, 552), (887, 552), (887, 552), (887, 552), (887, 552), (887, 552), (887, 552), (886, 553), (886, 553), (886, 553), (884, 553), (881, 555), (879, 556), (879, 557), (876, 558), (873, 560), (872, 561), (872, 561), (872, 561), (872, 562), (872, 562), (872, 562), (872, 562), (872, 562), (872, 562), (872, 562), (872, 562), (872, 563), (872, 565), (872, 565), (872, 565), (872, 565), (872, 565), (872, 565), (872, 565), (872, 565), (872, 565), (872, 565), (872, 565), (872, 565), (872, 565), (871, 566), (870, 566), (867, 562), (866, 561), (865, 560), (865, 559), (864, 558), (863, 556), (862, 556), (862, 555), (860, 553), (860, 553), (859, 553), (859, 553), (859, 552), (859, 552), (859, 552), (859, 552), (859, 552), (859, 552), (858, 550), (858, 550), (858, 547), (858, 547), (857, 545), (856, 542), (855, 538), (854, 535), (854, 534), (853, 534), (853, 532), (853, 532), (853, 532), (853, 532), (852, 531), (851, 530), (851, 528), (849, 527), (848, 522), (846, 520), (845, 517), (844, 514), (839, 502), (834, 492), (827, 480), (820, 465), (796, 427), (786, 412), (773, 395), (755, 375), (717, 335), (696, 315), (676, 300), (653, 284), (596, 249)]",218.64060725631253,"[1, 4, 7, 3, 5, 2, 8, 9, 6]","(0, 0.25)",THI006B,THI,B,English,Wed Aug 22 15:28:09 2018,Mouse
1,2,2,0,46,5,4,0,-1020,70,950,137,0,500,200,8000,"[(960, 540), (960, 540), (960, 540), (960, 540), (960, 540), (960, 540), (961, 546), (962, 553), (965, 562), (966, 571), (971, 589), (975, 600), (978, 609), (981, 616), (989, 634), (992, 640), (997, 645), (1001, 650), (1008, 656), (1010, 658), (1013, 661), (1013, 661), (1014, 662), (1014, 662), (1015, 664), (1015, 664), (1015, 664), (1015, 664), (1015, 664), (1015, 664), (1015, 664), (1015, 665), (1015, 665), (1015, 665), (1015, 666), (1014, 666), (1011, 666), (1008, 666), (1005, 663), (1002, 662), (999, 659), (993, 655), (985, 650), (981, 648), (975, 644), (968, 640), (959, 634), (955, 632), (952, 631), (951, 630), (950, 629), (950, 629), (950, 629), (950, 629), (950, 629), (950, 629), (950, 629), (950, 629), (950, 629), (950, 629), (950, 629), (950, 630), (950, 632), (951, 634), (952, 635), (952, 637), (955, 643), (961, 649), (965, 654), (967, 656), (973, 662), (975, 665), (978, 667), (979, 669), (981, 672), (981, 672), (981, 672), (982, 672), (982, 672), (982, 672), (982, 672), (982, 672), (982, 672), (982, 672), (982, 672), (982, 672), (982, 672), (982, 672), (982, 672), (982, 672), (983, 673), (986, 676), (990, 681), (995, 687), (1011, 709), (1029, 730), (1047, 753), (1065, 776), (1106, 835), (1128, 861), (1151, 887), (1170, 906)]",60.1540680503126,"[1, 4, 7, 3, 5, 2, 8, 9, 6]","(0, 0.25)",THI006B,THI,B,English,Wed Aug 22 15:28:09 2018,Mouse
1,2,2,0,47,2,2,1,610,90,520,138,0,500,200,8000,"[(960, 540), (960, 540), (960, 540), (960, 540), (960, 540), (960, 540), (960, 540), (960, 540), (958, 540), (957, 540), (953, 540), (942, 552), (938, 559), (934, 564), (930, 569), (923, 578), (921, 580), (919, 582), (918, 585), (916, 586), (916, 587), (916, 588), (916, 588), (916, 588), (916, 588), (916, 588), (916, 588), (916, 588), (916, 588), (916, 588), (916, 588), (916, 588), (916, 588), (916, 588), (916, 588), (916, 588), (918, 580), (920, 571), (922, 562), (923, 535), (923, 518), (918, 491), (906, 465), (885, 420), (866, 394), (848, 371), (838, 361), (800, 335), (781, 325), (764, 318), (750, 315), (723, 308), (714, 305), (705, 302), (698, 301), (686, 296), (684, 295), (680, 292), (678, 289), (669, 275), (662, 267)]",222.49302930090764,"[1, 4, 7, 3, 5, 2, 8, 9, 6]","(0, 0.25)",THI006B,THI,B,English,Wed Aug 22 15:28:09 2018,Mouse
1,2,2,0,48,3,3,1,479,19,460,138,0,500,200,8000,"[(960, 540), (960, 542), (959, 551), (957, 557), (955, 562), (952, 567), (945, 580), (940, 588), (935, 596), (930, 603), (919, 616), (914, 624), (910, 630), (907, 636), (900, 647), (898, 650), (897, 652), (896, 654), (895, 655), (895, 656), (895, 656), (895, 656), (895, 656), (895, 656), (895, 656), (895, 656), (895, 657), (893, 658), (891, 659), (889, 660), (881, 662), (875, 665), (869, 666), (864, 667), (846, 672), (837, 675), (825, 681), (815, 687), (792, 704), (780, 712), (770, 721), (756, 733), (738, 751), (723, 763), (709, 772), (697, 782), (662, 801), (643, 810)]",139.5778007222494,"[1, 4, 7, 3, 5, 2, 8, 9, 6]","(0, 0.25)",THI006B,THI,B,English,Wed Aug 22 15:28:09 2018,Mouse
1,2,2,0,49,6,1,0,-640,510,130,137,0,500,200,8000,"[(960, 540), (960, 540), (960, 540), (960, 540), (960, 540), (960, 540), (960, 540), (960, 540), (960, 540), (960, 540), (960, 540), (960, 540), (960, 540), (960, 540), (960, 540), (960, 540), (960, 540), (960, 540), (960, 540), (960, 540), (960, 540), (960, 540), (960, 540), (960, 540), (960, 540), (960, 540), (960, 540), (960, 540), (960, 540), (960, 540), (960, 540), (960, 540), (960, 540), (960, 540), (960, 540), (960, 540), (960, 540), (960, 540), (960, 540), (960, 540), (960, 540), (960, 540), (960, 540), (960, 540), (960, 540), (960, 540), (960, 540), (960, 540), (960, 540), (960, 540), (964, 543), (972, 552), (984, 558), (1010, 574), (1024, 581), (1044, 589), (1065, 597), (1113, 613), (1146, 622), (1174, 630), (1210, 641), (1289, 659), (1325, 668), (1358, 675)]",18.73672967149221,"[1, 4, 7, 3, 5, 2, 8, 9, 6]","(0, 0.25)",THI006B,THI,B,English,Wed Aug 22 15:28:09 2018,Mouse
1,2,2,0,50,9,9,1,3981,191,3790,138,0,500,200,8000,"[(960, 540), (960, 540), (960, 540), (960, 540), (960, 540), (960, 540), (960, 540), (960, 540), (960, 540), (960, 540), (960, 540), (960, 540), (960, 540), (960, 540), (960, 540), (960, 540), (960, 540), (960, 540), (960, 540), (960, 542), (958, 544), (958, 544), (957, 545), (957, 545), (957, 547), (957, 548), (957, 550), (957, 551), (957, 554), (957, 556), (957, 558), (957, 560), (957, 563), (957, 564), (957, 565), (957, 567), (957, 570), (957, 571), (957, 573), (957, 575), (957, 577), (957, 578), (957, 578), (957, 580), (958, 582), (958, 583), (958, 583), (958, 584), (958, 584), (958, 585), (959, 586), (959, 586), (959, 587), (959, 588), (959, 588), (960, 590), (961, 590), (961, 590), (961, 590), (961, 591), (961, 591), (961, 591), (961, 591), (961, 592), (961, 592), (961, 593), (961, 593), (961, 593), (961, 593), (961, 593), (961, 593), (961, 593), (961, 593), (961, 593), (961, 593), (961, 593), (961, 593), (961, 593), (961, 593), (961, 593), (961, 593), (961, 593), (961, 593), (961, 593), (961, 593), (961, 593), (961, 593), (961, 593), (961, 593), (961, 593), (961, 593), (961, 593), (961, 593), (961, 593), (961, 593), (961, 593), (961, 593), (961, 594), (961, 594), (961, 594), (961, 594), (961, 594), (961, 595), (961, 595), (961, 595), (961, 595), (961, 595), (961, 595), (961, 596), (961, 596), (961, 596), (960, 596), (960, 597), (959, 597), (958, 598), (957, 598), (954, 600), (952, 600), (949, 600), (947, 601), (943, 602), (942, 602), (942, 602), (942, 602), (940, 603), (940, 603), (940, 603), (940, 603), (940, 603), (940, 603), (940, 603), (940, 603), (940, 603), (940, 603), (940, 603), (940, 603), (940, 603), (940, 603), (940, 603), (940, 603), (940, 603), (940, 603), (941, 602), (942, 602), (944, 599), (944, 598), (944, 597), (945, 596), (945, 593), (945, 590), (945, 589), (945, 586), (945, 583), (945, 583), (945, 582), (945, 580), (945, 579), (945, 579), (945, 579), (945, 578), (945, 576), (945, 576), (945, 574), (945, 573), (945, 571), (945, 570), (945, 570), (945, 570), (944, 569), (944, 569), (944, 569), (944, 569), (943, 569), (941, 571), (939, 573), (938, 576), (934, 582), (932, 585), (930, 590), (927, 595), (923, 608), (922, 615), (921, 619), (921, 625), (920, 638), (920, 643), (920, 647), (920, 649), (920, 650), (920, 650), (920, 650), (920, 650), (920, 650), (920, 650), (920, 650), (920, 650), (920, 650), (920, 650), (920, 650), (920, 650), (920, 650), (920, 650), (920, 650), (920, 650), (920, 650), (920, 650), (921, 650), (922, 649), (925, 644), (926, 642), (929, 638), (931, 634), (938, 621), (940, 617), (942, 606), (944, 598), (946, 582), (947, 577), (950, 572), (951, 568), (953, 560), (954, 558), (955, 554), (955, 552), (955, 550), (955, 548), (955, 547), (955, 547), (955, 545), (955, 545), (955, 544), (955, 544), (955, 544), (955, 544), (955, 544), (955, 544), (955, 544), (955, 544), (955, 544), (955, 544), (955, 544), (955, 544), (955, 544), (955, 544), (955, 544), (955, 544), (955, 544), (955, 544), (955, 544), (955, 544), (955, 544), (955, 544), (955, 544), (955, 544), (955, 544), (955, 544), (955, 544), (955, 544), (955, 544), (955, 544), (955, 544), (955, 544), (955, 544), (955, 544), (955, 544), (955, 544), (955, 544), (955, 544), (955, 544), (955, 544), (955, 544), (955, 544), (955, 544), (955, 544), (955, 544), (955, 544), (955, 544), (955, 544), (955, 544), (955, 544), (955, 544), (955, 544), (955, 544), (955, 544), (955, 544), (955, 544), (955, 544), (955, 544), (955, 544), (955, 544), (955, 544), (955, 544), (955, 544), (955, 544), (955, 544), (955, 544), (955, 544), (955, 544), (955, 544), (955, 544), (955, 544), (955, 544), (955, 544), (955, 544), (955, 544), (955, 544), (955, 544), (955, 544), (955, 544), (955, 544), (955, 544), (955, 544), (955, 544), (955, 544), (955, 544), (955, 544), (955, 544), (955, 544), (955, 544), (955, 544), (955, 544), (955, 544), (955, 544), (955, 544), (955, 544), (955, 544), (955, 544), (955, 544), (955, 544), (955, 544), (955, 544), (955, 544), (955, 544), (955, 544), (955, 544), (955, 544), (955, 543), (954, 543), (953, 543), (952, 543), (950, 543), (950, 543), (950, 543), (950, 543), (950, 543), (950, 543), (950, 543), (950, 543), (949, 543), (949, 543), (949, 543), (949, 543), (949, 543), (949, 543), (949, 543), (949, 543), (949, 543), (949, 543), (949, 543), (949, 543), (949, 543), (949, 543), (949, 543), (949, 543), (949, 543), (949, 543), (949, 543), (949, 543), (949, 543), (949, 543), (949, 543), (951, 540), (957, 533), (961, 529), (963, 526), (969, 517), (982, 499), (987, 490), (994, 479), (1006, 463), (1036, 414), (1051, 387), (1066, 360), (1076, 341), (1095, 316), (1105, 305), (1111, 299), (1118, 290), (1127, 277), (1130, 269), (1136, 262), (1141, 255), (1151, 244), (1156, 239), (1162, 233), (1168, 226), (1177, 214), (1181, 208), (1185, 200)]",303.49518467374116,"[1, 4, 7, 3, 5, 2, 8, 9, 6]","(0, 0.25)",THI006B,THI,B,English,Wed Aug 22 15:28:09 2018,Mouse
1,2,2,0,51,2,2,1,1050,20,1030,138,0,500,200,8000,"[(960, 543), (958, 547), (956, 552), (954, 555), (949, 564), (946, 567), (942, 571), (940, 575), (932, 582), (931, 585), (928, 590), (926, 594), (922, 602), (920, 605), (918, 609), (917, 612), (914, 616), (911, 621), (910, 624), (907, 628), (902, 635), (900, 638), (898, 642), (896, 644), (894, 648), (893, 649), (892, 650), (892, 653), (892, 656), (892, 658), (892, 661), (892, 663), (891, 667), (890, 668), (890, 669), (890, 671), (889, 672), (889, 672), (889, 672), (889, 672), (888, 673), (888, 673), (888, 673), (888, 673), (888, 673), (888, 673), (888, 673), (888, 673), (888, 673), (888, 673), (888, 673), (888, 673), (888, 673), (888, 673), (888, 673), (888, 673), (888, 673), (888, 673), (888, 673), (888, 673), (888, 673), (888, 673), (888, 673), (888, 673), (887, 668), (886, 663), (883, 656), (881, 647), (874, 634), (869, 626), (866, 623), (863, 620), (857, 617), (855, 616), (852, 616), (851, 616), (848, 616), (846, 616), (845, 616), (843, 616), (841, 616), (841, 616), (841, 616), (841, 616), (841, 616), (841, 616), (841, 616), (841, 616), (841, 616), (841, 616), (841, 616), (840, 615), (839, 609), (837, 603), (836, 596), (835, 585), (828, 560), (822, 541), (808, 515), (797, 486), (770, 432), (750, 402), (726, 368), (697, 334), (642, 275)]",219.80557109226518,"[1, 4, 7, 3, 5, 2, 8, 9, 6]","(0, 0.25)",THI006B,THI,B,English,Wed Aug 22 15:28:09 2018,Mouse
1,2,2,0,52,5,5,1,579,70,509,137,0,500,200,8000,"[(960, 540), (960, 540), (960, 540), (960, 540), (960, 540), (960, 540), (960, 544), (960, 546), (958, 550), (958, 552), (957, 559), (957, 562), (956, 565), (956, 567), (956, 574), (956, 575), (956, 578), (956, 581), (956, 585), (956, 585), (957, 587), (957, 589), (958, 591), (958, 593), (958, 596), (959, 597), (959, 599), (959, 600), (959, 601), (959, 601), (959, 601), (959, 601), (959, 601), (959, 601), (959, 601), (959, 601), (959, 601), (959, 601), (959, 601), (959, 601), (958, 602), (954, 602), (945, 600), (937, 597), (929, 594), (916, 588), (884, 578), (861, 571), (832, 569), (803, 564), (739, 556), (708, 556), (677, 556), (647, 556), (622, 556), (580, 556), (563, 556), (549, 556)]",177.77063311493748,"[1, 4, 7, 3, 5, 2, 8, 9, 6]","(0, 0.25)",THI006B,THI,B,English,Wed Aug 22 15:28:09 2018,Mouse
1,2,2,0,53,6,2,0,-941,81,860,136,0,500,200,8000,"[(960, 540), (960, 540), (960, 540), (960, 540), (960, 540), (960, 540), (960, 540), (960, 540), (961, 540), (961, 548), (961, 554), (960, 562), (960, 569), (956, 584), (954, 588), (951, 596), (949, 599), (944, 608), (941, 614), (941, 617), (939, 621), (936, 630), (936, 636), (935, 640), (935, 643), (933, 649), (932, 651), (931, 654), (929, 657), (929, 658), (927, 659), (927, 660), (927, 660), (925, 662), (925, 662), (924, 663), (923, 664), (921, 668), (918, 670), (918, 672), (916, 674), (913, 678), (913, 679), (911, 681), (911, 681), (911, 683), (911, 683), (911, 683), (911, 683), (911, 683), (911, 683), (911, 683), (911, 683), (911, 683), (911, 683), (911, 683), (911, 683), (911, 683), (911, 683), (911, 683), (911, 683), (911, 681), (911, 679), (912, 677), (915, 671), (916, 660), (916, 651), (916, 637), (916, 626), (909, 601), (904, 590), (899, 582), (896, 577), (893, 572), (890, 569), (889, 568), (887, 566), (883, 563), (882, 563), (880, 563), (879, 562), (876, 560), (876, 559), (874, 558), (870, 552), (859, 534), (852, 523), (841, 506), (832, 489), (805, 443), (792, 419), (777, 394), (760, 367), (699, 288), (667, 258)]",223.90404051105025,"[1, 4, 7, 3, 5, 2, 8, 9, 6]","(0, 0.25)",THI006B,THI,B,English,Wed Aug 22 15:28:09 2018,Mouse
1,2,2,0,54,6,6,1,430,20,410,137,0,500,200,8000,"[(961, 542), (969, 544), (971, 545), (971, 546), (972, 546), (974, 547), (974, 547), (975, 547), (976, 547), (978, 549), (979, 549), (981, 549), (983, 550), (993, 553), (996, 553), (1000, 553), (1004, 553), (1011, 553), (1014, 553), (1017, 553), (1020, 553), (1024, 553), (1028, 553), (1031, 553), (1035, 553), (1045, 552), (1050, 551), (1058, 548), (1063, 547), (1075, 543), (1085, 539), (1090, 537), (1113, 528), (1123, 525), (1135, 522), (1149, 519), (1163, 514), (1197, 499), (1223, 488), (1244, 479), (1275, 468), (1333, 452), (1368, 437)]",345.8316627499404,"[1, 4, 7, 3, 5, 2, 8, 9, 6]","(0, 0.25)",THI006B,THI,B,English,Wed Aug 22 15:28:09 2018,Mouse
1,2,2,0,55,5,4,0,-1022,282,740,137,0,500,200,8000,"[(960, 540), (960, 540), (960, 540), (960, 540), (960, 540), (960, 540), (960, 540), (960, 540), (960, 540), (960, 540), (960, 540), (960, 540), (960, 540), (960, 540), (960, 540), (960, 540), (960, 540), (960, 540), (960, 540), (960, 540), (960, 540), (960, 540), (960, 540), (960, 540), (960, 540), (960, 540), (960, 540), (960, 540), (958, 541), (948, 554), (943, 559), (935, 566), (927, 571), (915, 580), (906, 586), (901, 591), (897, 594), (890, 602), (890, 603), (890, 604), (888, 605), (888, 606), (888, 606), (888, 607), (888, 609), (888, 610), (888, 612), (888, 613), (889, 613), (890, 615), (891, 616), (891, 616), (891, 616), (891, 616), (891, 616), (891, 616), (891, 616), (891, 616), (891, 616), (891, 616), (891, 616), (891, 616), (891, 616), (891, 616), (891, 616), (891, 616), (891, 616), (891, 616), (891, 616), (891, 616), (891, 616), (891, 616), (891, 616), (891, 616), (891, 616), (891, 616), (891, 616), (891, 616), (891, 616), (891, 616), (891, 616), (891, 616), (891, 616), (891, 616), (891, 616), (891, 616), (891, 616), (891, 616), (891, 616), (891, 616), (891, 616), (893, 619), (894, 621), (900, 628), (906, 634), (912, 644), (923, 656), (953, 694), (975, 718), (1004, 755), (1037, 789), (1103, 869), (1134, 903)]",64.3897900767942,"[1, 4, 7, 3, 5, 2, 8, 9, 6]","(0, 0.25)",THI006B,THI,B,English,Wed Aug 22 15:28:09 2018,Mouse
1,2,2,0,56,7,7,1,540,100,440,138,0,500,200,8000,"[(960, 540), (960, 540), (960, 540), (960, 540), (960, 540), (960, 540), (960, 540), (960, 540), (960, 540), (953, 538), (943, 537), (935, 536), (925, 532), (908, 529), (899, 527), (892, 526), (888, 524), (883, 522), (883, 522), (883, 522), (882, 522), (882, 522), (882, 522), (882, 522), (882, 522), (882, 522), (882, 522), (882, 522), (882, 522), (882, 522), (882, 522), (882, 522), (882, 522), (882, 522), (882, 522), (882, 522), (882, 523), (886, 536), (887, 546), (887, 557), (887, 571), (887, 604), (887, 624), (890, 647), (892, 673), (900, 734), (906, 762), (910, 794), (916, 824), (927, 873), (930, 894), (931, 911), (931, 925), (931, 952)]",94.02631463156692,"[1, 4, 7, 3, 5, 2, 8, 9, 6]","(0, 0.25)",THI006B,THI,B,English,Wed Aug 22 15:28:09 2018,Mouse
1,2,2,0,57,1,1,1,450,130,320,138,0,500,200,8000,"[(960, 540), (960, 540), (960, 540), (960, 540), (960, 540), (960, 540), (960, 540), (960, 540), (960, 540), (960, 540), (960, 540), (960, 540), (962, 540), (964, 540), (965, 539), (966, 538), (967, 538), (969, 536), (970, 534), (972, 533), (974, 531), (974, 531), (981, 529), (985, 528), (989, 528), (996, 528), (1015, 528), (1026, 528), (1037, 528), (1049, 528), (1076, 528), (1087, 528), (1099, 528), (1114, 528), (1143, 538), (1168, 544), (1190, 552), (1211, 562), (1248, 585), (1265, 598), (1279, 609), (1291, 619), (1323, 642), (1335, 650), (1348, 661)]",17.320385550437297,"[1, 4, 7, 3, 5, 2, 8, 9, 6]","(0, 0.25)",THI006B,THI,B,English,Wed Aug 22 15:28:09 2018,Mouse
1,2,2,0,58,1,1,1,420,100,320,137,0,500,200,8000,"[(960, 540), (960, 540), (960, 540), (960, 540), (960, 540), (960, 540), (960, 540), (960, 540), (960, 540), (961, 541), (962, 545), (964, 549), (973, 558), (978, 563), (982, 567), (987, 572), (999, 581), (1007, 585), (1014, 591), (1024, 595), (1048, 605), (1057, 609), (1068, 613), (1081, 619), (1102, 629), (1111, 632), (1121, 637), (1131, 641), (1151, 650), (1162, 653), (1172, 657), (1184, 659), (1209, 664), (1221, 667), (1238, 668), (1257, 671), (1282, 674), (1293, 676), (1302, 680), (1310, 682), (1324, 686), (1333, 689)]",21.774920454714763,"[1, 4, 7, 3, 5, 2, 8, 9, 6]","(0, 0.25)",THI006B,THI,B,English,Wed Aug 22 15:28:09 2018,Mouse
1,2,2,0,59,4,4,1,1039,89,950,136,0,500,200,8000,"[(960, 540), (960, 540), (960, 540), (960, 540), (960, 540), (960, 540), (960, 540), (960, 540), (958, 540), (957, 541), (948, 544), (944, 545), (941, 547), (938, 547), (932, 548), (929, 548), (928, 549), (926, 549), (920, 550), (917, 550), (915, 551), (914, 551), (909, 553), (907, 553), (906, 553), (904, 553), (901, 554), (901, 554), (900, 554), (899, 554), (897, 554), (896, 554), (894, 554), (893, 554), (893, 554), (892, 554), (892, 554), (892, 554), (891, 554), (890, 554), (890, 554), (889, 554), (888, 554), (888, 554), (888, 554), (888, 554), (887, 554), (887, 555), (887, 555), (887, 555), (887, 555), (887, 556), (887, 556), (887, 558), (887, 563), (888, 566), (888, 572), (890, 576), (893, 588), (894, 594), (895, 599), (898, 606), (900, 616), (902, 619), (903, 622), (906, 627), (907, 628), (907, 630), (907, 630), (908, 631), (909, 633), (910, 634), (911, 636), (913, 639), (918, 646), (923, 651), (928, 656), (935, 662), (950, 674), (959, 680), (965, 684), (971, 689), (986, 696), (995, 702), (1003, 706), (1011, 712), (1026, 722), (1035, 728), (1041, 733), (1049, 738), (1059, 748), (1064, 752), (1068, 757), (1073, 762), (1082, 776), (1087, 784), (1094, 794), (1104, 807), (1117, 829), (1123, 840), (1133, 854), (1139, 864), (1149, 883), (1152, 891)]",61.320963730619354,"[1, 4, 7, 3, 5, 2, 8, 9, 6]","(0, 0.25)",THI006B,THI,B,English,Wed Aug 22 15:28:09 2018,Mouse
1,2,2,0,60,5,5,1,730,40,690,135,0,500,200,8000,"[(960, 540), (960, 540), (960, 540), (961, 540), (961, 540), (961, 540), (961, 540), (961, 540), (961, 540), (961, 540), (961, 540), (961, 540), (961, 540), (961, 540), (961, 540), (961, 540), (961, 540), (961, 540), (961, 540), (961, 540), (961, 540), (961, 540), (961, 540), (961, 540), (961, 540), (961, 540), (961, 540), (961, 540), (961, 540), (962, 545), (963, 548), (963, 548), (963, 548), (964, 550), (964, 550), (964, 550), (964, 550), (964, 550), (964, 550), (964, 550), (964, 550), (964, 550), (964, 550), (964, 550), (964, 550), (964, 550), (964, 550), (963, 550), (962, 550), (955, 550), (948, 548), (937, 547), (927, 546), (910, 542), (898, 542), (886, 542), (875, 542), (846, 542), (834, 542), (822, 542), (796, 542), (783, 542), (769, 542), (757, 542), (745, 542), (719, 542), (704, 542), (685, 542), (663, 542), (615, 542), (590, 542), (565, 542), (545, 542)]",179.72387789905451,"[1, 4, 7, 3, 5, 2, 8, 9, 6]","(0, 0.25)",THI006B,THI,B,English,Wed Aug 22 15:28:09 2018,Mouse
1,2,2,0,61,6,6,1,1650,170,1480,134,0,500,200,8000,"[(960, 540), (960, 540), (960, 540), (960, 540), (960, 540), (960, 540), (960, 540), (960, 540), (960, 540), (960, 540), (960, 540), (960, 540), (960, 540), (960, 540), (960, 540), (960, 540), (961, 540), (961, 540), (962, 540), (963, 540), (964, 540), (964, 540), (964, 540), (964, 540), (964, 540), (965, 541), (965, 543), (965, 544), (964, 546), (963, 550), (957, 557), (955, 559), (950, 564), (946, 568), (939, 578), (937, 580), (934, 586), (932, 588), (930, 593), (928, 595), (928, 596), (928, 596), (927, 597), (926, 598), (926, 598), (926, 598), (925, 599), (925, 599), (925, 600), (925, 600), (923, 600), (923, 601), (922, 601), (922, 602), (921, 602), (921, 602), (921, 602), (921, 602), (920, 603), (920, 603), (920, 603), (919, 604), (919, 604), (919, 604), (919, 604), (919, 604), (919, 604), (919, 604), (919, 604), (919, 604), (919, 604), (919, 604), (919, 604), (919, 604), (919, 604), (919, 604), (919, 604), (919, 604), (919, 604), (919, 604), (919, 604), (919, 604), (919, 604), (919, 603), (918, 602), (917, 601), (916, 600), (916, 600), (916, 600), (916, 600), (916, 600), (916, 600), (916, 600), (916, 600), (916, 600), (916, 600), (916, 600), (916, 600), (916, 600), (916, 600), (916, 600), (916, 600), (916, 600), (916, 600), (916, 600), (916, 600), (916, 600), (916, 600), (916, 600), (916, 599), (916, 599), (916, 598), (916, 597), (916, 596), (916, 595), (916, 595), (916, 595), (916, 595), (916, 595), (916, 595), (916, 595), (916, 595), (916, 595), (916, 595), (916, 595), (916, 595), (916, 595), (916, 595), (916, 595), (916, 595), (916, 595), (916, 595), (916, 595), (916, 595), (916, 595), (916, 595), (915, 593), (914, 593), (913, 593), (911, 593), (911, 593), (911, 593), (911, 593), (912, 593), (913, 593), (914, 592), (917, 589), (919, 585), (921, 583), (926, 578), (943, 563), (954, 557), (973, 549), (997, 538), (1058, 512), (1086, 500), (1121, 483), (1150, 469), (1206, 446), (1229, 435), (1250, 426), (1271, 417), (1308, 405), (1325, 400), (1341, 396)]",339.295776370658,"[1, 4, 7, 3, 5, 2, 8, 9, 6]","(0, 0.25)",THI006B,THI,B,English,Wed Aug 22 15:28:09 2018,Mouse
1,2,2,0,62,1,1,1,1180,640,540,133,0,500,200,8000,"[(960, 540), (960, 540), (960, 540), (960, 540), (960, 540), (960, 540), (960, 540), (960, 540), (960, 540), (960, 540), (960, 540), (960, 540), (960, 540), (960, 540), (960, 540), (960, 540), (960, 540), (960, 540), (960, 540), (960, 540), (960, 540), (960, 540), (960, 540), (960, 540), (960, 540), (960, 540), (960, 540), (960, 540), (960, 540), (960, 540), (960, 540), (960, 540), (960, 540), (960, 540), (960, 540), (960, 540), (960, 540), (960, 540), (960, 540), (960, 540), (960, 540), (960, 540), (960, 540), (960, 540), (960, 540), (960, 540), (960, 540), (960, 540), (960, 540), (960, 540), (960, 540), (960, 540), (960, 540), (960, 540), (960, 540), (960, 540), (960, 540), (960, 540), (960, 540), (960, 540), (960, 540), (960, 540), (960, 540), (961, 540), (962, 540), (963, 540), (963, 540), (963, 540), (963, 540), (963, 540), (963, 540), (963, 540), (963, 540), (963, 540), (963, 540), (963, 540), (963, 540), (963, 540), (963, 540), (963, 540), (963, 540), (963, 540), (963, 540), (963, 540), (963, 540), (963, 540), (963, 540), (963, 540), (963, 540), (963, 540), (964, 539), (964, 539), (964, 539), (965, 539), (966, 539), (968, 539), (972, 539), (974, 539), (976, 540), (979, 541), (986, 545), (990, 547), (995, 551), (1005, 559), (1021, 572), (1030, 578), (1039, 584), (1051, 592), (1071, 606), (1085, 619), (1105, 632), (1133, 652), (1180, 683), (1202, 695), (1228, 708), (1246, 717), (1293, 736), (1311, 738)]",29.427456403189737,"[1, 4, 7, 3, 5, 2, 8, 9, 6]","(0, 0.25)",THI006B,THI,B,English,Wed Aug 22 15:28:09 2018,Mouse
1,2,2,0,63,4,4,1,891,731,160,132,0,500,200,8000,"[(960, 540), (960, 540), (960, 540), (960, 540), (960, 540), (960, 540), (960, 540), (960, 540), (960, 540), (960, 540), (960, 540), (960, 540), (960, 540), (960, 540), (960, 540), (960, 540), (960, 540), (960, 540), (960, 540), (960, 540), (960, 540), (960, 540), (960, 540), (960, 540), (960, 540), (960, 540), (960, 540), (960, 540), (960, 540), (960, 540), (960, 540), (960, 540), (960, 540), (960, 540), (960, 540), (960, 540), (960, 540), (960, 540), (960, 540), (960, 540), (960, 540), (960, 540), (960, 540), (960, 540), (960, 540), (960, 540), (960, 540), (960, 540), (960, 540), (960, 540), (960, 540), (960, 540), (960, 540), (960, 540), (960, 540), (960, 540), (960, 540), (960, 540), (960, 540), (960, 540), (960, 540), (960, 540), (960, 540), (960, 540), (960, 540), (960, 540), (960, 540), (960, 540), (960, 540), (960, 540), (960, 540), (960, 540), (960, 540), (960, 542), (960, 553), (960, 563), (960, 574), (960, 587), (966, 617), (970, 633), (980, 652), (992, 673), (1019, 720), (1039, 750), (1061, 781), (1082, 809), (1119, 858), (1132, 877), (1144, 894), (1153, 904)]",62.06658021705817,"[1, 4, 7, 3, 5, 2, 8, 9, 6]","(0, 0.25)",THI006B,THI,B,English,Wed Aug 22 15:28:09 2018,Mouse
1,2,2,0,64,3,3,1,2119,2009,110,131,0,500,200,8000,"[(960, 540), (960, 540), (960, 540), (960, 540), (960, 540), (960, 540), (960, 540), (960, 540), (960, 540), (960, 540), (960, 540), (960, 540), (960, 540), (960, 540), (960, 540), (960, 540), (960, 540), (960, 540), (960, 540), (960, 540), (960, 540), (960, 540), (960, 540), (960, 540), (960, 540), (960, 540), (960, 540), (960, 540), (960, 540), (960, 540), (960, 540), (960, 540), (960, 540), (960, 540), (960, 540), (960, 540), (960, 540), (960, 540), (960, 540), (960, 540), (960, 540), (960, 540), (960, 540), (960, 540), (960, 540), (960, 540), (960, 540), (960, 540), (960, 540), (960, 540), (960, 540), (960, 540), (960, 540), (960, 540), (960, 540), (960, 540), (960, 540), (960, 540), (960, 540), (960, 540), (960, 540), (960, 540), (960, 540), (960, 540), (960, 540), (960, 540), (960, 540), (960, 540), (960, 540), (960, 540), (960, 540), (960, 540), (960, 540), (960, 540), (960, 540), (960, 540), (960, 540), (960, 540), (960, 540), (960, 540), (960, 540), (960, 540), (960, 540), (960, 540), (960, 540), (960, 540), (960, 540), (960, 540), (960, 540), (960, 540), (960, 540), (960, 540), (960, 540), (960, 540), (960, 540), (960, 540), (960, 540), (960, 540), (960, 540), (960, 540), (960, 540), (960, 540), (960, 540), (960, 540), (960, 540), (960, 540), (960, 540), (960, 540), (960, 540), (960, 540), (960, 540), (960, 540), (960, 540), (960, 540), (960, 540), (960, 540), (960, 540), (960, 540), (960, 540), (960, 540), (960, 540), (960, 540), (960, 540), (960, 540), (960, 540), (960, 540), (960, 540), (960, 540), (960, 540), (960, 540), (960, 540), (960, 540), (960, 540), (960, 540), (960, 540), (960, 540), (960, 540), (960, 540), (960, 540), (960, 540), (960, 540), (960, 540), (960, 540), (960, 540), (960, 540), (960, 540), (960, 540), (960, 540), (960, 540), (960, 540), (960, 540), (960, 540), (960, 540), (960, 540), (960, 540), (960, 540), (960, 540), (960, 540), (960, 540), (960, 540), (960, 540), (960, 540), (960, 540), (960, 540), (960, 540), (960, 540), (960, 540), (960, 540), (960, 540), (960, 540), (960, 540), (960, 540), (960, 540), (960, 540), (960, 540), (960, 540), (960, 540), (960, 540), (960, 540), (960, 540), (960, 540), (960, 540), (960, 540), (960, 540), (960, 540), (960, 540), (960, 540), (960, 540), (960, 540), (960, 540), (960, 540), (960, 540), (960, 540), (960, 540), (960, 540), (960, 540), (960, 540), (960, 540), (960, 540), (960, 540), (951, 548), (941, 562), (926, 582), (912, 602), (877, 643), (859, 659), (831, 681), (801, 700), (750, 738), (716, 762), (686, 782), (652, 806)]",139.1849161251184,"[1, 4, 7, 3, 5, 2, 8, 9, 6]","(0, 0.25)",THI006B,THI,B,English,Wed Aug 22 15:28:09 2018,Mouse
1,2,2,0,65,8,1,0,-500,280,220,130,0,500,200,8000,"[(960, 540), (960, 540), (960, 540), (960, 540), (960, 540), (960, 540), (960, 540), (960, 540), (960, 540), (960, 540), (960, 540), (960, 540), (960, 540), (960, 540), (960, 540), (960, 540), (960, 540), (960, 540), (960, 540), (960, 540), (960, 540), (960, 540), (960, 540), (960, 540), (960, 540), (960, 540), (960, 540), (965, 540), (976, 540), (990, 540), (1003, 540), (1025, 543), (1037, 549), (1058, 559), (1077, 569), (1102, 586), (1116, 598), (1128, 605), (1147, 619), (1171, 636), (1182, 643), (1195, 651), (1210, 663), (1240, 683), (1255, 688), (1267, 692), (1280, 694), (1304, 695), (1318, 695), (1333, 695)]",22.56530794728181,"[1, 4, 7, 3, 5, 2, 8, 9, 6]","(0, 0.25)",THI006B,THI,B,English,Wed Aug 22 15:28:09 2018,Mouse
1,2,2,0,66,5,4,0,-681,481,200,131,0,500,200,8000,"[(960, 540), (960, 540), (960, 540), (960, 540), (960, 540), (960, 540), (960, 540), (960, 540), (960, 540), (960, 540), (960, 540), (960, 540), (960, 540), (960, 540), (960, 540), (960, 540), (960, 540), (960, 540), (960, 540), (960, 540), (960, 540), (960, 540), (960, 540), (960, 540), (960, 540), (960, 540), (960, 540), (960, 540), (960, 540), (960, 540), (960, 540), (960, 540), (960, 540), (960, 540), (960, 540), (960, 540), (960, 540), (960, 540), (960, 540), (960, 540), (960, 540), (960, 540), (960, 540), (960, 540), (960, 540), (960, 540), (960, 540), (960, 540), (961, 540), (963, 548), (964, 555), (965, 558), (970, 574), (974, 582), (978, 594), (981, 602), (993, 624), (1001, 637), (1011, 653), (1025, 678), (1049, 716), (1066, 742), (1080, 764), (1096, 786), (1119, 820), (1133, 842), (1144, 859), (1154, 871), (1171, 895)]",59.274181383803445,"[1, 4, 7, 3, 5, 2, 8, 9, 6]","(0, 0.25)",THI006B,THI,B,English,Wed Aug 22 15:28:09 2018,Mouse
1,2,2,0,67,1,6,0,-740,590,150,132,0,500,200,8000,"[(960, 540), (960, 540), (960, 540), (960, 540), (960, 540), (960, 540), (960, 540), (960, 540), (960, 540), (960, 540), (960, 540), (960, 540), (960, 540), (960, 540), (960, 540), (960, 540), (960, 540), (960, 540), (960, 540), (960, 540), (960, 540), (960, 540), (960, 540), (960, 540), (960, 540), (960, 540), (960, 540), (960, 540), (960, 540), (960, 540), (960, 540), (960, 540), (960, 540), (960, 540), (960, 540), (960, 540), (960, 540), (960, 540), (960, 540), (960, 540), (960, 540), (960, 540), (960, 540), (960, 540), (960, 540), (960, 540), (960, 540), (960, 540), (960, 540), (960, 540), (960, 540), (960, 540), (960, 540), (960, 540), (960, 540), (960, 540), (960, 540), (960, 540), (960, 538), (967, 535), (982, 532), (1004, 528), (1030, 522), (1046, 518), (1065, 508), (1079, 501), (1120, 483), (1144, 472), (1172, 462), (1200, 452), (1256, 437), (1291, 430), (1317, 422), (1347, 416)]",342.23384313004664,"[1, 4, 7, 3, 5, 2, 8, 9, 6]","(0, 0.25)",THI006B,THI,B,English,Wed Aug 22 15:28:09 2018,Mouse
1,2,2,0,68,2,1,0,-961,491,470,133,0,500,200,8000,"[(960, 540), (960, 540), (960, 540), (960, 540), (960, 540), (960, 540), (960, 540), (960, 540), (960, 540), (960, 540), (960, 540), (960, 540), (960, 540), (960, 540), (960, 540), (960, 540), (960, 540), (960, 540), (960, 540), (960, 540), (960, 540), (960, 540), (960, 540), (960, 540), (960, 540), (960, 540), (960, 540), (960, 540), (960, 540), (960, 540), (960, 540), (960, 540), (960, 540), (960, 540), (960, 540), (960, 540), (960, 540), (960, 540), (960, 540), (960, 540), (960, 540), (960, 540), (960, 540), (960, 540), (960, 540), (960, 540), (960, 540), (960, 540), (960, 540), (962, 542), (963, 546), (964, 549), (965, 552), (966, 553), (966, 553), (966, 553), (967, 554), (967, 554), (967, 554), (967, 554), (967, 554), (967, 554), (967, 554), (967, 554), (967, 554), (967, 554), (967, 554), (967, 554), (967, 554), (967, 554), (967, 554), (967, 554), (967, 554), (967, 554), (967, 554), (967, 554), (967, 554), (967, 554), (967, 554), (967, 554), (969, 555), (972, 557), (977, 560), (984, 562), (1002, 570), (1013, 577), (1026, 584), (1051, 599), (1102, 627), (1129, 643), (1159, 660), (1184, 675), (1232, 699), (1250, 709), (1275, 724), (1290, 730), (1319, 744)]",29.607192695634954,"[1, 4, 7, 3, 5, 2, 8, 9, 6]","(0, 0.25)",THI006B,THI,B,English,Wed Aug 22 15:28:09 2018,Mouse
1,2,2,0,69,8,4,0,-1209,719,490,134,0,500,200,8000,"[(960, 540), (960, 540), (960, 540), (960, 540), (960, 540), (960, 540), (960, 540), (960, 540), (960, 540), (960, 540), (960, 540), (960, 540), (960, 540), (960, 540), (960, 540), (960, 540), (960, 540), (960, 540), (960, 540), (960, 540), (960, 540), (960, 540), (960, 540), (960, 540), (960, 540), (960, 540), (960, 540), (960, 540), (960, 540), (960, 540), (960, 540), (960, 540), (960, 540), (960, 540), (960, 540), (960, 540), (960, 540), (960, 540), (960, 540), (960, 540), (960, 540), (960, 540), (960, 540), (960, 540), (960, 540), (960, 540), (960, 540), (960, 540), (960, 540), (960, 540), (960, 540), (960, 540), (960, 540), (960, 540), (960, 540), (960, 540), (960, 540), (960, 540), (960, 540), (960, 540), (960, 540), (960, 540), (960, 540), (960, 540), (960, 540), (960, 540), (960, 540), (960, 540), (960, 540), (960, 540), (960, 540), (963, 552), (964, 560), (967, 569), (968, 576), (972, 590), (974, 596), (975, 604), (980, 612), (990, 632), (997, 643), (1007, 659), (1017, 673), (1038, 698), (1046, 708), (1055, 718), (1062, 726), (1077, 745), (1086, 754), (1095, 764), (1103, 773), (1116, 790), (1122, 799), (1128, 807), (1133, 815), (1143, 831), (1147, 839), (1151, 845), (1156, 852), (1159, 861), (1161, 865), (1162, 867), (1163, 869), (1164, 871), (1164, 871), (1164, 871), (1164, 872), (1164, 872), (1164, 872), (1164, 872), (1164, 872), (1164, 873), (1164, 873), (1164, 874), (1164, 874), (1164, 875), (1164, 876), (1164, 876), (1164, 877), (1165, 880), (1167, 884)]",58.9628187586376,"[1, 4, 7, 3, 5, 2, 8, 9, 6]","(0, 0.25)",THI006B,THI,B,English,Wed Aug 22 15:28:09 2018,Mouse
1,2,2,0,70,8,4,0,-701,421,280,135,0,500,200,8000,"[(960, 540), (960, 540), (960, 540), (960, 540), (960, 540), (960, 540), (960, 540), (960, 540), (960, 540), (960, 540), (960, 540), (960, 540), (960, 540), (960, 540), (960, 540), (960, 540), (960, 540), (960, 540), (960, 540), (960, 540), (960, 540), (960, 540), (960, 540), (960, 540), (960, 540), (960, 540), (960, 540), (960, 540), (960, 540), (960, 540), (960, 540), (960, 540), (960, 540), (960, 540), (960, 540), (960, 540), (960, 540), (960, 540), (960, 540), (960, 540), (960, 540), (960, 540), (964, 545), (969, 557), (974, 567), (978, 578), (985, 599), (990, 612), (992, 621), (996, 633), (1008, 660), (1017, 674), (1027, 686), (1032, 697), (1047, 718), (1054, 728), (1062, 737), (1068, 747), (1085, 770), (1092, 780), (1102, 790), (1111, 799), (1124, 815), (1129, 820), (1133, 825), (1138, 830), (1147, 845), (1153, 852), (1161, 862), (1167, 872), (1182, 893)]",57.834410403474365,"[1, 4, 7, 3, 5, 2, 8, 9, 6]","(0, 0.25)",THI006B,THI,B,English,Wed Aug 22 15:28:09 2018,Mouse
1,2,2,0,71,5,5,1,1982,552,1430,136,0,500,200,8000,"[(960, 540), (960, 540), (960, 540), (960, 540), (960, 540), (960, 540), (960, 540), (960, 540), (960, 540), (960, 540), (960, 540), (960, 540), (960, 540), (960, 540), (960, 540), (960, 540), (960, 540), (960, 540), (960, 540), (960, 540), (960, 540), (960, 540), (960, 540), (960, 540), (960, 540), (960, 540), (960, 540), (960, 540), (960, 540), (960, 540), (960, 540), (960, 540), (960, 540), (960, 540), (960, 540), (960, 540), (960, 540), (960, 540), (960, 540), (960, 540), (960, 540), (960, 540), (960, 540), (960, 540), (960, 540), (960, 540), (960, 540), (960, 540), (960, 540), (960, 540), (960, 540), (960, 540), (960, 540), (960, 540), (960, 540), (960, 541), (960, 541), (960, 542), (961, 542), (964, 542), (964, 542), (964, 542), (964, 542), (964, 542), (964, 542), (964, 542), (964, 542), (964, 542), (964, 542), (964, 542), (964, 542), (964, 542), (964, 542), (964, 542), (964, 542), (964, 542), (964, 542), (964, 542), (964, 542), (964, 542), (964, 542), (964, 542), (964, 542), (964, 542), (964, 542), (964, 542), (964, 542), (964, 542), (964, 542), (964, 542), (964, 542), (964, 542), (964, 542), (964, 542), (964, 542), (964, 542), (964, 542), (964, 542), (964, 542), (964, 542), (964, 542), (964, 542), (964, 542), (964, 542), (964, 542), (964, 542), (964, 542), (965, 542), (965, 541), (965, 540), (965, 539), (965, 539), (966, 538), (966, 538), (966, 538), (967, 538), (967, 538), (968, 538), (971, 538), (977, 534), (979, 529), (979, 529), (979, 528), (979, 528), (979, 528), (979, 528), (979, 528), (979, 528), (979, 528), (979, 528), (979, 528), (979, 528), (979, 528), (979, 528), (979, 528), (979, 528), (979, 528), (979, 528), (979, 528), (979, 528), (979, 528), (979, 528), (979, 528), (979, 528), (979, 528), (979, 528), (979, 528), (979, 528), (979, 528), (979, 528), (979, 528), (979, 528), (979, 528), (979, 528), (979, 528), (979, 528), (979, 528), (979, 528), (979, 528), (979, 528), (979, 528), (979, 528), (979, 528), (979, 528), (979, 528), (975, 526), (959, 526), (948, 525), (941, 523), (936, 520), (932, 520), (932, 520), (932, 520), (932, 520), (932, 520), (932, 520), (932, 520), (932, 520), (932, 520), (932, 520), (932, 520), (932, 520), (932, 520), (932, 520), (932, 520), (932, 520), (932, 520), (932, 520), (932, 520), (932, 520), (931, 520), (915, 520), (902, 520), (883, 520), (800, 520), (745, 520), (678, 520), (609, 520), (476, 520)]",182.3662479914558,"[1, 4, 7, 3, 5, 2, 8, 9, 6]","(0, 0.25)",THI006B,THI,B,English,Wed Aug 22 15:28:09 2018,Mouse
1,2,2,0,72,4,4,1,760,160,600,136,0,500,200,8000,"[(960, 540), (960, 540), (960, 540), (960, 540), (960, 540), (960, 540), (960, 540), (960, 540), (960, 540), (960, 540), (960, 540), (960, 540), (960, 540), (960, 540), (960, 540), (961, 549), (961, 557), (961, 567), (961, 587), (961, 598), (961, 609), (959, 620), (950, 638), (947, 648), (943, 652), (939, 659), (932, 668), (930, 671), (929, 672), (926, 676), (924, 678), (924, 678), (924, 678), (924, 679), (923, 680), (923, 680), (923, 680), (923, 680), (923, 680), (923, 680), (923, 680), (923, 680), (923, 680), (923, 680), (923, 680), (923, 680), (923, 680), (923, 680), (924, 682), (927, 684), (935, 693), (942, 700), (948, 706), (953, 712), (969, 730), (975, 735), (983, 743), (988, 747), (1000, 757), (1002, 759), (1003, 761), (1004, 762), (1004, 762), (1005, 762), (1005, 762), (1005, 763), (1008, 765), (1012, 767), (1020, 772), (1027, 775), (1044, 786), (1056, 795), (1076, 809), (1096, 824), (1145, 863), (1171, 884)]",58.47620906035849,"[1, 4, 7, 3, 5, 2, 8, 9, 6]","(0, 0.25)",THI006B,THI,B,English,Wed Aug 22 15:28:09 2018,Mouse
1,2,2,0,73,1,1,1,430,280,150,135,0,500,200,8000,"[(960, 540), (960, 540), (960, 540), (960, 540), (960, 540), (960, 540), (960, 540), (960, 540), (960, 540), (960, 540), (960, 540), (960, 540), (960, 540), (960, 540), (960, 540), (960, 540), (960, 540), (960, 540), (960, 540), (960, 540), (960, 540), (960, 540), (960, 540), (960, 540), (960, 540), (960, 540), (960, 540), (960, 539), (970, 539), (1002, 548), (1025, 557), (1052, 571), (1075, 580), (1124, 609), (1152, 627), (1172, 642), (1194, 658), (1226, 680), (1240, 690), (1257, 702), (1271, 710), (1302, 726), (1315, 731)]",28.28150315264729,"[1, 4, 7, 3, 5, 2, 8, 9, 6]","(0, 0.25)",THI006B,THI,B,English,Wed Aug 22 15:28:09 2018,Mouse
1,2,2,0,74,6,6,1,741,291,450,134,0,500,200,8000,"[(960, 540), (960, 540), (960, 540), (960, 540), (960, 540), (960, 540), (960, 540), (960, 540), (960, 540), (960, 540), (960, 540), (960, 540), (960, 540), (960, 540), (960, 540), (960, 540), (960, 540), (960, 540), (960, 540), (960, 540), (960, 540), (960, 540), (960, 540), (960, 540), (960, 540), (960, 540), (960, 540), (960, 540), (960, 540), (960, 539), (958, 539), (958, 538), (957, 538), (955, 538), (955, 538), (953, 538), (953, 538), (953, 538), (953, 538), (953, 538), (953, 538), (953, 538), (953, 538), (953, 538), (953, 538), (953, 538), (953, 538), (953, 538), (953, 538), (953, 538), (953, 538), (953, 538), (953, 538), (953, 538), (953, 538), (953, 538), (956, 536), (966, 532), (991, 517), (1003, 511), (1018, 505), (1029, 501), (1054, 491), (1066, 487), (1078, 481), (1090, 477), (1118, 469), (1136, 464), (1162, 455), (1186, 443), (1243, 422), (1272, 410), (1291, 406), (1317, 394), (1358, 384)]",338.59681714720625,"[1, 4, 7, 3, 5, 2, 8, 9, 6]","(0, 0.25)",THI006B,THI,B,English,Wed Aug 22 15:28:09 2018,Mouse
1,2,2,0,75,6,6,1,519,399,120,133,0,500,200,8000,"[(960, 540), (960, 540), (960, 540), (960, 540), (960, 540), (960, 540), (960, 540), (960, 540), (960, 540), (960, 540), (960, 540), (960, 540), (960, 540), (960, 540), (960, 540), (960, 540), (960, 540), (960, 540), (960, 540), (960, 540), (960, 540), (960, 540), (960, 540), (960, 540), (960, 540), (960, 540), (960, 540), (960, 540), (960, 540), (960, 540), (960, 540), (960, 540), (960, 540), (960, 540), (960, 540), (960, 540), (960, 540), (960, 540), (960, 540), (963, 540), (969, 540), (980, 540), (991, 540), (1033, 540), (1066, 540), (1102, 540), (1144, 538), (1218, 524), (1254, 513), (1292, 504), (1323, 495), (1389, 468)]",350.4727166185476,"[1, 4, 7, 3, 5, 2, 8, 9, 6]","(0, 0.25)",THI006B,THI,B,English,Wed Aug 22 15:28:09 2018,Mouse
1,2,2,0,76,3,1,0,-961,261,700,132,0,500,200,8000,"[(960, 540), (960, 540), (960, 540), (960, 540), (960, 540), (960, 540), (960, 540), (960, 540), (960, 540), (960, 540), (960, 540), (960, 540), (960, 540), (960, 540), (960, 540), (960, 540), (960, 540), (960, 540), (960, 540), (960, 540), (960, 540), (960, 540), (960, 540), (960, 540), (960, 540), (960, 540), (960, 542), (959, 548), (959, 550), (959, 551), (959, 552), (959, 553), (959, 555), (959, 557), (959, 558), (959, 560), (959, 561), (960, 561), (960, 562), (960, 563), (960, 563), (961, 564), (961, 564), (961, 564), (961, 564), (961, 564), (961, 564), (961, 564), (961, 564), (961, 564), (961, 564), (961, 564), (961, 564), (961, 564), (961, 564), (961, 564), (961, 564), (961, 564), (961, 564), (961, 564), (961, 564), (961, 564), (961, 564), (961, 564), (961, 564), (961, 564), (961, 564), (961, 564), (962, 565), (962, 565), (962, 565), (962, 565), (962, 566), (962, 566), (963, 567), (963, 568), (963, 568), (964, 570), (965, 570), (967, 571), (968, 572), (972, 573), (976, 574), (988, 578), (995, 579), (1003, 580), (1014, 582), (1052, 592), (1075, 598), (1100, 606), (1130, 615), (1192, 632), (1225, 642), (1256, 651), (1284, 661), (1332, 676), (1353, 687)]",20.508098971768437,"[1, 4, 7, 3, 5, 2, 8, 9, 6]","(0, 0.25)",THI006B,THI,B,English,Wed Aug 22 15:28:09 2018,Mouse
1,2,2,0,77,3,3,1,572,212,360,133,0,500,200,8000,"[(960, 540), (960, 540), (960, 540), (960, 540), (960, 540), (960, 540), (960, 540), (960, 540), (960, 540), (960, 540), (960, 540), (960, 540), (960, 540), (960, 540), (960, 540), (960, 540), (960, 540), (960, 540), (960, 540), (960, 540), (960, 540), (958, 540), (952, 541), (947, 544), (943, 545), (933, 552), (929, 555), (923, 559), (916, 564), (907, 570), (893, 580), (884, 588), (879, 593), (873, 599), (873, 600), (872, 601), (872, 601), (871, 602), (871, 602), (871, 602), (871, 603), (869, 606), (866, 609), (865, 613), (862, 616), (853, 627), (847, 633), (839, 640), (830, 647), (810, 659), (801, 664), (790, 670), (775, 679), (738, 690), (715, 699), (694, 710), (672, 722), (615, 753)]",148.30917869540048,"[1, 4, 7, 3, 5, 2, 8, 9, 6]","(0, 0.25)",THI006B,THI,B,English,Wed Aug 22 15:28:09 2018,Mouse
