NativeLangNumber,LanuageNumber,SessionNumber,Block,TrialNum,ConditionNumber,Response,Accuracy,RT,MovementOnsetTime,TimeInMotion,SignalContrast,SignalContrastNumber,StimDisplayTime,MaskTime,MaxResponseTime,MousePositionXY,MouseAngle,WheelOrder,NoiseMuSigma,ParticipantID,LanuageTested,SessionTested,NativeLanuage,Date,ResponseDevice
1,2,1,0,1,4,4,1,2223,1403,820,153,0,500,200,8000,"[(960, 540), (960, 540), (960, 540), (960, 540), (960, 540), (960, 540), (960, 540), (960, 540), (960, 540), (960, 540), (960, 540), (960, 540), (960, 540), (960, 540), (960, 540), (960, 540), (960, 540), (960, 540), (960, 540), (960, 540), (960, 540), (960, 540), (960, 540), (960, 540), (960, 540), (960, 540), (960, 540), (960, 540), (960, 540), (960, 540), (960, 540), (960, 540), (960, 540), (960, 540), (960, 540), (960, 540), (960, 540), (960, 540), (960, 540), (960, 540), (960, 540), (960, 540), (960, 540), (960, 540), (960, 540), (960, 540), (960, 540), (960, 540), (960, 540), (960, 540), (960, 540), (960, 540), (960, 540), (960, 540), (960, 540), (960, 540), (960, 540), (960, 540), (960, 540), (960, 540), (960, 540), (960, 540), (960, 540), (960, 540), (960, 540), (960, 540), (960, 540), (960, 540), (960, 540), (960, 540), (960, 540), (960, 540), (960, 540), (960, 540), (960, 540), (960, 540), (960, 540), (960, 540), (960, 540), (960, 540), (960, 540), (960, 540), (960, 540), (960, 540), (960, 540), (960, 540), (960, 540), (960, 540), (960, 540), (960, 540), (960, 540), (960, 540), (960, 540), (960, 540), (960, 540), (960, 540), (960, 540), (960, 540), (960, 540), (960, 540), (960, 540), (960, 540), (960, 540), (960, 540), (960, 540), (960, 540), (960, 540), (960, 540), (960, 540), (960, 540), (960, 540), (960, 540), (960, 540), (960, 540), (960, 540), (960, 540), (960, 540), (960, 540), (960, 540), (960, 540), (960, 540), (960, 540), (960, 540), (960, 540), (960, 540), (960, 540), (960, 540), (960, 540), (960, 540), (960, 540), (960, 540), (960, 540), (960, 540), (960, 540), (960, 540), (960, 540), (960, 540), (960, 540), (960, 540), (960, 540), (959, 540), (958, 540), (958, 540), (958, 540), (956, 540), (956, 540), (956, 540), (956, 540), (956, 540), (956, 540), (956, 540), (956, 540), (956, 540), (956, 540), (956, 540), (956, 540), (956, 540), (956, 540), (956, 540), (956, 540), (956, 540), (956, 540), (956, 540), (956, 540), (956, 540), (956, 540), (956, 540), (956, 540), (956, 540), (956, 540), (956, 540), (956, 540), (956, 540), (956, 540), (956, 540), (956, 540), (956, 540), (956, 540), (956, 540), (956, 540), (956, 540), (956, 540), (956, 540), (956, 540), (956, 540), (956, 540), (956, 540), (956, 540), (956, 540), (956, 540), (956, 540), (955, 540), (953, 540), (953, 540), (952, 540), (951, 539), (949, 537), (947, 536), (945, 535), (943, 533), (938, 528), (934, 524), (930, 519), (927, 516), (918, 509), (908, 502), (903, 498), (895, 491), (880, 482), (876, 478), (871, 474), (863, 467), (844, 454), (826, 448), (799, 436), (768, 426), (707, 407), (681, 397), (655, 386), (636, 377), (613, 367), (604, 361), (597, 358)]",206.62815223032496,"[6, 7, 2, 3, 9, 4, 1, 5, 8]","(0, 0.25)",THI004A,THI,A,English,Tue Aug 07 11:19:52 2018,Mouse
1,2,1,0,2,9,9,1,1870,1020,850,153,0,500,200,8000,"[(960, 540), (960, 540), (960, 540), (960, 540), (960, 540), (960, 540), (960, 540), (960, 540), (960, 540), (960, 540), (960, 540), (960, 540), (960, 540), (960, 540), (960, 540), (960, 540), (960, 540), (960, 540), (960, 540), (960, 540), (960, 540), (960, 540), (960, 540), (960, 540), (960, 540), (960, 540), (960, 540), (960, 540), (960, 540), (960, 540), (960, 540), (960, 540), (960, 540), (960, 540), (960, 540), (960, 540), (960, 540), (960, 540), (960, 540), (960, 540), (960, 540), (960, 540), (960, 540), (960, 540), (960, 540), (960, 540), (960, 540), (960, 540), (960, 540), (960, 540), (960, 540), (960, 540), (960, 540), (960, 540), (960, 540), (960, 540), (960, 540), (960, 540), (960, 540), (960, 540), (960, 540), (960, 540), (960, 540), (960, 540), (960, 540), (960, 540), (960, 540), (960, 540), (960, 540), (960, 540), (960, 540), (960, 540), (960, 540), (960, 540), (960, 540), (960, 540), (960, 540), (960, 540), (960, 540), (960, 540), (960, 540), (960, 540), (960, 540), (960, 540), (960, 540), (960, 540), (960, 540), (960, 540), (960, 540), (960, 540), (960, 540), (960, 540), (960, 540), (960, 540), (960, 540), (960, 540), (960, 540), (960, 540), (960, 540), (960, 540), (960, 540), (960, 538), (960, 537), (960, 534), (960, 534), (960, 533), (960, 533), (960, 533), (960, 533), (960, 533), (960, 533), (960, 533), (960, 533), (960, 533), (960, 533), (960, 533), (960, 533), (960, 533), (960, 533), (960, 533), (960, 533), (960, 533), (960, 533), (960, 533), (960, 533), (960, 533), (960, 533), (960, 533), (960, 533), (960, 533), (960, 533), (960, 533), (960, 533), (960, 533), (960, 533), (960, 533), (960, 533), (960, 533), (960, 533), (960, 533), (960, 533), (960, 533), (960, 533), (960, 533), (960, 533), (960, 533), (960, 533), (960, 533), (960, 533), (960, 533), (960, 533), (960, 533), (960, 533), (960, 533), (960, 533), (960, 533), (960, 533), (960, 533), (960, 533), (960, 533), (960, 533), (960, 533), (960, 533), (960, 533), (960, 533), (960, 533), (960, 533), (960, 533), (960, 533), (960, 533), (960, 533), (960, 533), (960, 533), (960, 533), (960, 533), (960, 533), (960, 533), (953, 532), (943, 534), (932, 537), (914, 540), (904, 541), (885, 541), (860, 541), (737, 533), (653, 524), (552, 511)]",184.06565657192914,"[6, 7, 2, 3, 9, 4, 1, 5, 8]","(0, 0.25)",THI004A,THI,A,English,Tue Aug 07 11:19:52 2018,Mouse
1,2,1,0,3,3,3,1,681,251,430,152,0,500,200,8000,"[(960, 540), (960, 540), (960, 540), (960, 540), (960, 540), (960, 540), (960, 540), (960, 540), (960, 540), (960, 540), (960, 540), (960, 540), (960, 540), (960, 540), (960, 540), (960, 540), (960, 540), (960, 540), (960, 540), (960, 540), (960, 540), (960, 540), (960, 540), (960, 540), (960, 540), (960, 543), (960, 545), (959, 546), (959, 549), (957, 554), (956, 557), (955, 559), (953, 562), (949, 571), (946, 575), (942, 580), (936, 588), (927, 600), (922, 608), (916, 615), (911, 623), (901, 635), (895, 640), (887, 648), (880, 654), (862, 667), (845, 679), (833, 686), (826, 692), (811, 705), (803, 711), (797, 714), (791, 718), (771, 727), (761, 730), (746, 736), (731, 742), (704, 755), (693, 761), (686, 768), (681, 771), (679, 774), (678, 775), (677, 776), (675, 779), (668, 786), (660, 791), (655, 796), (648, 802)]",139.97835533930882,"[6, 7, 2, 3, 9, 4, 1, 5, 8]","(0, 0.25)",THI004A,THI,A,English,Tue Aug 07 11:19:52 2018,Mouse
1,2,1,0,4,7,7,1,660,90,570,151,0,500,200,8000,"[(960, 540), (960, 540), (960, 540), (960, 540), (960, 540), (960, 540), (960, 540), (960, 540), (960, 543), (960, 545), (960, 547), (960, 552), (960, 555), (960, 556), (960, 558), (960, 561), (960, 561), (960, 562), (960, 562), (961, 564), (961, 564), (961, 564), (961, 565), (961, 565), (961, 566), (962, 567), (962, 567), (963, 570), (964, 572), (965, 574), (966, 576), (969, 585), (973, 591), (975, 594), (979, 600), (989, 615), (995, 623), (1002, 631), (1008, 640), (1023, 656), (1028, 665), (1034, 671), (1035, 675), (1043, 684), (1046, 689), (1050, 694), (1053, 698), (1058, 706), (1060, 707), (1060, 709), (1062, 712), (1066, 720), (1067, 724), (1072, 732), (1075, 738), (1081, 754), (1085, 761), (1088, 768), (1094, 776), (1101, 796), (1107, 807), (1111, 820), (1121, 835), (1138, 860), (1148, 875), (1159, 887)]",60.16628810832006,"[6, 7, 2, 3, 9, 4, 1, 5, 8]","(0, 0.25)",THI004A,THI,A,English,Tue Aug 07 11:19:52 2018,Mouse
1,2,1,0,5,7,7,1,620,500,120,150,0,500,200,8000,"[(960, 540), (960, 540), (960, 540), (960, 540), (960, 540), (960, 540), (960, 540), (960, 540), (960, 540), (960, 540), (960, 540), (960, 540), (960, 540), (960, 540), (960, 540), (960, 540), (960, 540), (960, 540), (960, 540), (960, 540), (960, 540), (960, 540), (960, 540), (960, 540), (960, 540), (960, 540), (960, 540), (960, 540), (960, 540), (960, 540), (960, 540), (960, 540), (960, 540), (960, 540), (960, 540), (960, 540), (960, 540), (960, 540), (960, 540), (960, 540), (960, 540), (960, 540), (960, 540), (960, 540), (960, 540), (960, 540), (960, 540), (960, 540), (960, 540), (959, 540), (959, 544), (959, 551), (965, 580), (973, 602), (982, 628), (993, 662), (1016, 732), (1031, 766), (1050, 807), (1064, 839), (1105, 907), (1123, 940)]",67.82910436616557,"[6, 7, 2, 3, 9, 4, 1, 5, 8]","(0, 0.25)",THI004A,THI,A,English,Tue Aug 07 11:19:52 2018,Mouse
1,2,1,0,6,9,9,1,689,309,380,149,0,500,200,8000,"[(960, 540), (960, 540), (960, 540), (960, 540), (960, 540), (960, 540), (960, 540), (960, 540), (960, 540), (960, 540), (960, 540), (960, 540), (960, 540), (960, 540), (960, 540), (960, 540), (960, 540), (960, 540), (960, 540), (960, 540), (960, 540), (960, 540), (960, 540), (960, 540), (960, 540), (960, 540), (960, 540), (960, 540), (960, 540), (960, 540), (959, 540), (957, 540), (954, 539), (944, 537), (939, 536), (935, 535), (930, 535), (925, 533), (922, 533), (920, 531), (917, 530), (905, 527), (899, 527), (891, 525), (883, 523), (870, 522), (865, 521), (862, 521), (860, 521), (851, 518), (847, 517), (838, 516), (831, 516), (807, 516), (793, 516), (780, 516), (766, 516), (744, 516), (735, 516), (727, 516), (719, 516), (701, 516), (686, 516), (672, 516), (656, 516), (614, 516), (593, 513), (576, 513), (553, 512)]",183.93552339423363,"[6, 7, 2, 3, 9, 4, 1, 5, 8]","(0, 0.25)",THI004A,THI,A,English,Tue Aug 07 11:19:52 2018,Mouse
1,2,1,0,7,7,7,1,521,321,200,148,0,500,200,8000,"[(960, 540), (960, 540), (960, 540), (960, 540), (960, 540), (960, 540), (960, 540), (960, 540), (960, 540), (960, 540), (960, 540), (960, 540), (960, 540), (960, 540), (960, 540), (960, 540), (960, 540), (960, 540), (960, 540), (960, 540), (960, 540), (960, 540), (960, 540), (960, 540), (960, 540), (960, 540), (960, 540), (960, 540), (960, 540), (960, 540), (960, 540), (960, 540), (964, 551), (968, 562), (970, 573), (974, 586), (988, 620), (996, 636), (1008, 658), (1015, 671), (1040, 708), (1057, 726), (1068, 738), (1081, 753), (1100, 780), (1107, 789), (1114, 799), (1121, 809), (1139, 830), (1149, 843), (1160, 854), (1169, 865), (1191, 885)]",56.19511142629998,"[6, 7, 2, 3, 9, 4, 1, 5, 8]","(0, 0.25)",THI004A,THI,A,English,Tue Aug 07 11:19:52 2018,Mouse
1,2,1,0,8,8,8,1,680,20,660,147,0,500,200,8000,"[(960, 540), (960, 539), (960, 539), (960, 539), (960, 539), (960, 539), (960, 539), (960, 539), (960, 539), (960, 539), (960, 539), (960, 539), (960, 539), (958, 539), (958, 539), (958, 539), (957, 539), (957, 539), (957, 539), (957, 539), (957, 539), (957, 539), (957, 539), (956, 540), (956, 540), (955, 540), (955, 540), (955, 540), (955, 540), (954, 541), (954, 541), (954, 541), (954, 541), (954, 541), (954, 541), (952, 541), (952, 541), (952, 541), (952, 541), (952, 541), (952, 541), (952, 541), (951, 541), (951, 541), (951, 541), (951, 541), (951, 541), (951, 541), (950, 542), (950, 542), (950, 542), (950, 542), (950, 542), (950, 542), (950, 542), (950, 542), (950, 542), (950, 542), (950, 542), (956, 539), (971, 531), (998, 516), (1036, 499), (1135, 457), (1205, 431), (1264, 405), (1326, 382), (1449, 331)]",336.85799789216236,"[6, 7, 2, 3, 9, 4, 1, 5, 8]","(0, 0.25)",THI004A,THI,A,English,Tue Aug 07 11:19:52 2018,Mouse
1,2,1,0,9,3,3,1,420,180,240,146,0,500,200,8000,"[(960, 540), (960, 540), (960, 540), (960, 540), (960, 540), (960, 540), (960, 540), (960, 540), (960, 540), (960, 540), (960, 540), (960, 540), (960, 540), (960, 540), (960, 540), (960, 540), (960, 540), (960, 539), (959, 539), (958, 539), (957, 540), (954, 543), (950, 545), (947, 548), (939, 553), (921, 569), (912, 581), (906, 591), (899, 604), (889, 630), (883, 640), (877, 651), (866, 665), (834, 701), (819, 721), (803, 741), (784, 762), (754, 798), (743, 810), (733, 821), (721, 832), (698, 852)]",130.0216446606912,"[6, 7, 2, 3, 9, 4, 1, 5, 8]","(0, 0.25)",THI004A,THI,A,English,Tue Aug 07 11:19:52 2018,Mouse
1,2,1,0,10,5,5,1,1179,789,390,145,0,500,200,8000,"[(960, 540), (960, 540), (960, 540), (960, 540), (960, 540), (960, 540), (960, 540), (960, 540), (960, 540), (960, 540), (960, 540), (960, 540), (960, 540), (960, 540), (960, 540), (960, 540), (960, 540), (960, 540), (960, 540), (960, 540), (960, 540), (960, 540), (960, 540), (960, 540), (960, 540), (960, 540), (960, 540), (960, 540), (960, 540), (960, 540), (960, 540), (960, 540), (960, 540), (960, 540), (960, 540), (960, 540), (960, 540), (960, 540), (960, 540), (960, 540), (960, 540), (960, 540), (960, 540), (960, 540), (960, 540), (960, 540), (960, 540), (960, 540), (960, 540), (960, 540), (960, 540), (960, 540), (960, 540), (960, 540), (960, 540), (960, 540), (960, 540), (960, 540), (960, 540), (960, 540), (960, 540), (960, 540), (960, 540), (960, 540), (960, 540), (960, 540), (960, 540), (960, 540), (960, 540), (960, 540), (960, 540), (960, 540), (960, 540), (960, 540), (960, 540), (960, 540), (960, 540), (960, 540), (959, 524), (960, 515), (963, 502), (967, 491), (975, 474), (977, 467), (979, 458), (979, 447), (979, 421), (980, 406), (984, 389), (991, 369), (1002, 339), (1009, 324), (1014, 312), (1020, 305), (1028, 288), (1032, 281), (1035, 277), (1038, 271), (1043, 259), (1046, 254), (1048, 250), (1051, 246), (1058, 236), (1060, 232), (1064, 229), (1065, 226), (1069, 221), (1072, 216), (1075, 214), (1076, 211), (1083, 202), (1085, 199), (1091, 192), (1096, 186), (1105, 178), (1109, 174), (1113, 171), (1117, 166)]",292.7719868953893,"[6, 7, 2, 3, 9, 4, 1, 5, 8]","(0, 0.25)",THI004A,THI,A,English,Tue Aug 07 11:19:52 2018,Mouse
1,2,1,0,11,1,1,1,1069,899,170,144,0,500,200,8000,"[(960, 540), (960, 540), (960, 540), (960, 540), (960, 540), (960, 540), (960, 540), (960, 540), (960, 540), (960, 540), (960, 540), (960, 540), (960, 540), (960, 540), (960, 540), (960, 540), (960, 540), (960, 540), (960, 540), (960, 540), (960, 540), (960, 540), (960, 540), (960, 540), (960, 540), (960, 540), (960, 540), (960, 540), (960, 540), (960, 540), (960, 540), (960, 540), (960, 540), (960, 540), (960, 540), (960, 540), (960, 540), (960, 540), (960, 540), (960, 540), (960, 540), (960, 540), (960, 540), (960, 540), (960, 540), (960, 540), (960, 540), (960, 540), (960, 540), (960, 540), (960, 540), (960, 540), (960, 540), (960, 540), (960, 540), (960, 540), (960, 540), (960, 540), (960, 540), (960, 540), (960, 540), (960, 540), (960, 540), (960, 540), (960, 540), (960, 540), (960, 540), (960, 540), (960, 540), (960, 540), (960, 540), (960, 540), (960, 540), (960, 540), (960, 540), (960, 540), (960, 540), (960, 540), (960, 540), (960, 540), (960, 540), (960, 540), (960, 540), (960, 540), (960, 540), (960, 540), (960, 540), (960, 540), (960, 540), (958, 539), (957, 529), (954, 502), (953, 483), (948, 456), (945, 424), (935, 360), (929, 317), (925, 279), (918, 244), (914, 192), (914, 175), (914, 164), (914, 156), (914, 148), (914, 146), (914, 143), (914, 142)]",263.40712729240573,"[6, 7, 2, 3, 9, 4, 1, 5, 8]","(0, 0.25)",THI004A,THI,A,English,Tue Aug 07 11:19:52 2018,Mouse
1,2,1,0,12,7,7,1,1371,1251,120,143,0,500,200,8000,"[(960, 540), (960, 540), (960, 540), (960, 540), (960, 540), (960, 540), (960, 540), (960, 540), (960, 540), (960, 540), (960, 540), (960, 540), (960, 540), (960, 540), (960, 540), (960, 540), (960, 540), (960, 540), (960, 540), (960, 540), (960, 540), (960, 540), (960, 540), (960, 540), (960, 540), (960, 540), (960, 540), (960, 540), (960, 540), (960, 540), (960, 540), (960, 540), (960, 540), (960, 540), (960, 540), (960, 540), (960, 540), (960, 540), (960, 540), (960, 540), (960, 540), (960, 540), (960, 540), (960, 540), (960, 540), (960, 540), (960, 540), (960, 540), (960, 540), (960, 540), (960, 540), (960, 540), (960, 540), (960, 540), (960, 540), (960, 540), (960, 540), (960, 540), (960, 540), (960, 540), (960, 540), (960, 540), (960, 540), (960, 540), (960, 540), (960, 540), (960, 540), (960, 540), (960, 540), (960, 540), (960, 540), (960, 540), (960, 540), (960, 540), (960, 540), (960, 540), (960, 540), (960, 540), (960, 540), (960, 540), (960, 540), (960, 540), (960, 540), (960, 540), (960, 540), (960, 540), (960, 540), (960, 540), (960, 540), (960, 540), (960, 540), (960, 540), (960, 540), (960, 540), (960, 540), (960, 540), (960, 540), (960, 540), (960, 540), (960, 540), (960, 540), (960, 540), (960, 540), (960, 540), (960, 540), (960, 540), (960, 540), (960, 540), (960, 540), (960, 540), (960, 540), (960, 540), (960, 540), (960, 540), (960, 540), (960, 540), (960, 540), (960, 540), (960, 540), (960, 540), (960, 540), (960, 540), (960, 540), (960, 540), (960, 541), (960, 541), (960, 541), (960, 543), (960, 545), (960, 550), (965, 561), (979, 595), (1004, 636), (1028, 685), (1058, 739), (1122, 859), (1163, 920)]",61.88839798317219,"[6, 7, 2, 3, 9, 4, 1, 5, 8]","(0, 0.25)",THI004A,THI,A,English,Tue Aug 07 11:19:52 2018,Mouse
1,2,1,0,13,8,8,1,460,300,160,142,0,500,200,8000,"[(960, 540), (960, 540), (960, 540), (960, 540), (960, 540), (960, 540), (960, 540), (960, 540), (960, 540), (960, 540), (960, 540), (960, 540), (960, 540), (960, 540), (960, 540), (960, 540), (960, 540), (960, 540), (960, 540), (960, 540), (960, 540), (960, 540), (960, 540), (960, 540), (960, 540), (960, 540), (960, 540), (960, 540), (960, 540), (960, 538), (961, 537), (965, 535), (966, 535), (971, 531), (972, 528), (975, 527), (977, 524), (992, 513), (1002, 507), (1014, 502), (1034, 493), (1114, 461), (1153, 446), (1202, 426), (1250, 401), (1352, 359)]",335.2155912689207,"[6, 7, 2, 3, 9, 4, 1, 5, 8]","(0, 0.25)",THI004A,THI,A,English,Tue Aug 07 11:19:52 2018,Mouse
1,2,1,0,14,8,8,1,390,240,150,141,0,500,200,8000,"[(960, 540), (960, 540), (960, 540), (960, 540), (960, 540), (960, 540), (960, 540), (960, 540), (960, 540), (960, 540), (960, 540), (960, 540), (960, 540), (960, 540), (960, 540), (960, 540), (960, 540), (960, 540), (960, 540), (960, 540), (960, 540), (960, 540), (960, 540), (960, 539), (960, 539), (961, 537), (971, 531), (994, 519), (1010, 512), (1023, 503), (1057, 486), (1076, 478), (1107, 466), (1136, 454), (1181, 438), (1259, 414), (1296, 397), (1327, 389), (1352, 381)]",337.92192296487195,"[6, 7, 2, 3, 9, 4, 1, 5, 8]","(0, 0.25)",THI004A,THI,A,English,Tue Aug 07 11:19:52 2018,Mouse
1,2,1,0,15,8,8,1,440,20,420,140,0,500,200,8000,"[(960, 540), (961, 539), (962, 539), (962, 539), (962, 539), (962, 539), (962, 539), (962, 539), (962, 539), (962, 539), (962, 539), (962, 539), (962, 539), (962, 539), (962, 539), (962, 539), (962, 539), (962, 539), (962, 539), (962, 539), (962, 539), (962, 539), (962, 539), (962, 539), (962, 539), (962, 538), (962, 538), (963, 538), (963, 536), (965, 536), (969, 532), (976, 528), (986, 523), (1001, 517), (1050, 498), (1081, 488), (1114, 479), (1150, 466), (1212, 449), (1239, 441), (1261, 437), (1276, 431), (1319, 417), (1339, 410)]",341.06762596787246,"[6, 7, 2, 3, 9, 4, 1, 5, 8]","(0, 0.25)",THI004A,THI,A,English,Tue Aug 07 11:19:52 2018,Mouse
1,2,1,0,16,9,9,1,391,241,150,139,0,500,200,8000,"[(960, 540), (960, 540), (960, 540), (960, 540), (960, 540), (960, 540), (960, 540), (960, 540), (960, 540), (960, 540), (960, 540), (960, 540), (960, 540), (960, 540), (960, 540), (960, 540), (960, 540), (960, 540), (960, 540), (960, 540), (960, 540), (960, 540), (960, 540), (960, 540), (958, 541), (957, 541), (948, 541), (937, 542), (926, 544), (912, 545), (876, 550), (847, 552), (819, 552), (791, 552), (736, 552), (711, 552), (680, 552), (646, 552), (581, 555), (547, 559)]",177.36597389099077,"[6, 7, 2, 3, 9, 4, 1, 5, 8]","(0, 0.25)",THI004A,THI,A,English,Tue Aug 07 11:19:52 2018,Mouse
1,2,1,0,17,1,1,1,841,81,760,138,0,500,200,8000,"[(960, 540), (960, 540), (960, 540), (960, 540), (960, 540), (960, 540), (960, 540), (960, 540), (958, 541), (956, 540), (950, 532), (948, 531), (946, 529), (944, 528), (941, 527), (941, 526), (941, 526), (940, 525), (940, 525), (940, 525), (940, 525), (940, 525), (940, 525), (940, 525), (940, 525), (940, 525), (940, 525), (940, 525), (940, 525), (940, 525), (940, 525), (940, 525), (940, 525), (940, 525), (940, 525), (940, 525), (940, 525), (940, 525), (940, 525), (940, 525), (940, 525), (940, 525), (938, 524), (938, 524), (936, 523), (936, 523), (935, 522), (933, 521), (933, 521), (933, 521), (933, 521), (933, 521), (933, 521), (933, 521), (933, 521), (933, 521), (933, 520), (933, 520), (933, 520), (933, 520), (933, 520), (933, 520), (933, 519), (933, 519), (933, 517), (933, 515), (933, 513), (933, 512), (933, 509), (933, 506), (933, 500), (933, 495), (933, 488), (933, 478), (933, 455), (933, 441), (933, 418), (933, 395), (933, 334), (933, 306), (930, 274), (930, 241), (918, 176), (909, 146), (899, 112)]",261.8886401311137,"[6, 7, 2, 3, 9, 4, 1, 5, 8]","(0, 0.25)",THI004A,THI,A,English,Tue Aug 07 11:19:52 2018,Mouse
1,2,1,0,18,1,1,1,469,258,211,137,0,500,200,8000,"[(960, 540), (960, 540), (960, 540), (960, 540), (960, 540), (960, 540), (960, 540), (960, 540), (960, 540), (960, 540), (960, 540), (960, 540), (960, 540), (960, 540), (960, 540), (960, 540), (960, 540), (960, 540), (960, 540), (960, 540), (960, 540), (960, 540), (960, 540), (960, 540), (960, 540), (960, 539), (960, 533), (960, 524), (960, 507), (959, 497), (958, 486), (957, 474), (956, 447), (956, 430), (956, 417), (956, 398), (951, 364), (950, 349), (946, 334), (941, 317), (931, 278), (927, 256), (922, 232), (919, 211), (912, 169), (909, 148), (904, 131)]",262.2035794682482,"[6, 7, 2, 3, 9, 4, 1, 5, 8]","(0, 0.25)",THI004A,THI,A,English,Tue Aug 07 11:19:52 2018,Mouse
1,2,1,0,19,5,5,1,940,720,220,136,0,500,200,8000,"[(960, 540), (960, 540), (960, 540), (960, 540), (960, 540), (960, 540), (960, 540), (960, 540), (960, 540), (960, 540), (960, 540), (960, 540), (960, 540), (960, 540), (960, 540), (960, 540), (960, 540), (960, 540), (960, 540), (960, 540), (960, 540), (960, 540), (960, 540), (960, 540), (960, 540), (960, 540), (960, 540), (960, 540), (960, 540), (960, 540), (960, 540), (960, 540), (960, 540), (960, 540), (960, 540), (960, 540), (960, 540), (960, 540), (960, 540), (960, 540), (960, 540), (960, 540), (960, 540), (960, 540), (960, 540), (960, 540), (960, 540), (960, 540), (960, 540), (960, 540), (960, 540), (960, 540), (960, 540), (960, 540), (960, 540), (960, 540), (960, 540), (960, 540), (960, 540), (960, 540), (960, 540), (960, 540), (960, 540), (960, 540), (960, 540), (960, 540), (960, 540), (960, 540), (960, 540), (960, 540), (960, 540), (961, 539), (970, 528), (977, 518), (983, 509), (993, 496), (1018, 459), (1030, 440), (1042, 414), (1055, 384), (1076, 332), (1088, 309), (1094, 291), (1103, 273), (1113, 248), (1116, 238), (1117, 230), (1119, 224), (1121, 211), (1122, 205), (1124, 198), (1126, 192), (1130, 178), (1132, 172)]",295.05097781644287,"[6, 7, 2, 3, 9, 4, 1, 5, 8]","(0, 0.25)",THI004A,THI,A,English,Tue Aug 07 11:19:52 2018,Mouse
1,2,1,0,20,4,9,0,-939,539,400,135,0,500,200,8000,"[(960, 540), (960, 540), (960, 540), (960, 540), (960, 540), (960, 540), (960, 540), (960, 540), (960, 540), (960, 540), (960, 540), (960, 540), (960, 540), (960, 540), (960, 540), (960, 540), (960, 540), (960, 540), (960, 540), (960, 540), (960, 540), (960, 540), (960, 540), (960, 540), (960, 540), (960, 540), (960, 540), (960, 540), (960, 540), (960, 540), (960, 540), (960, 540), (960, 540), (960, 540), (960, 540), (960, 540), (960, 540), (960, 540), (960, 540), (960, 540), (960, 540), (960, 540), (960, 540), (960, 540), (960, 540), (960, 540), (960, 540), (960, 540), (960, 540), (960, 540), (960, 540), (960, 540), (960, 540), (960, 542), (960, 542), (960, 542), (959, 542), (959, 542), (959, 542), (959, 542), (959, 542), (959, 542), (958, 542), (958, 542), (958, 542), (958, 542), (958, 542), (958, 542), (958, 542), (958, 542), (958, 542), (958, 542), (958, 542), (958, 542), (958, 542), (958, 542), (958, 542), (958, 542), (958, 542), (958, 542), (958, 542), (958, 542), (958, 542), (956, 542), (955, 542), (946, 542), (937, 542), (925, 542), (911, 542), (838, 532), (789, 527), (728, 525), (668, 516), (550, 506)]",184.74051057389116,"[6, 7, 2, 3, 9, 4, 1, 5, 8]","(0, 0.25)",THI004A,THI,A,English,Tue Aug 07 11:19:52 2018,Mouse
1,2,1,0,21,9,9,1,1080,20,1060,136,0,500,200,8000,"[(959, 540), (958, 540), (957, 540), (957, 540), (957, 540), (957, 540), (956, 540), (956, 540), (956, 540), (956, 540), (956, 540), (956, 540), (956, 540), (956, 540), (956, 540), (956, 540), (956, 540), (956, 540), (956, 540), (956, 540), (956, 540), (956, 540), (956, 540), (956, 540), (956, 540), (956, 540), (956, 540), (956, 540), (956, 540), (955, 540), (953, 540), (951, 540), (950, 540), (947, 540), (944, 540), (943, 540), (943, 540), (943, 540), (943, 540), (941, 540), (941, 540), (941, 540), (941, 540), (941, 540), (941, 540), (941, 540), (941, 540), (941, 540), (941, 540), (941, 540), (940, 538), (940, 538), (940, 538), (940, 538), (940, 538), (940, 538), (940, 537), (940, 537), (940, 536), (940, 535), (939, 534), (939, 534), (939, 534), (939, 534), (939, 534), (939, 534), (939, 534), (939, 534), (939, 534), (939, 534), (939, 532), (939, 532), (937, 532), (937, 532), (937, 532), (937, 532), (937, 531), (937, 531), (937, 531), (937, 531), (937, 531), (936, 531), (936, 530), (936, 530), (936, 530), (936, 530), (936, 530), (936, 530), (936, 530), (936, 530), (936, 530), (936, 530), (936, 530), (936, 530), (936, 530), (936, 530), (936, 530), (934, 529), (927, 529), (922, 529), (912, 529), (899, 529), (849, 529), (813, 529), (769, 529), (713, 529), (594, 529), (536, 529)]",181.48611375535074,"[6, 7, 2, 3, 9, 4, 1, 5, 8]","(0, 0.25)",THI004A,THI,A,English,Tue Aug 07 11:19:52 2018,Mouse
1,2,1,0,22,3,3,1,458,238,220,136,0,500,200,8000,"[(960, 540), (960, 540), (960, 540), (960, 540), (960, 540), (960, 540), (960, 540), (960, 540), (960, 540), (960, 540), (960, 540), (960, 540), (960, 540), (960, 540), (960, 540), (960, 540), (960, 540), (960, 540), (960, 540), (960, 540), (960, 540), (960, 540), (960, 540), (959, 540), (958, 540), (953, 544), (952, 546), (948, 550), (946, 552), (938, 561), (934, 566), (929, 571), (925, 576), (912, 591), (903, 600), (896, 609), (888, 619), (867, 638), (853, 648), (839, 656), (815, 669), (784, 683), (761, 693), (731, 710), (696, 729), (606, 781)]",145.75332000261233,"[6, 7, 2, 3, 9, 4, 1, 5, 8]","(0, 0.25)",THI004A,THI,A,English,Tue Aug 07 11:19:52 2018,Mouse
1,2,1,0,23,3,3,1,430,310,120,135,0,500,200,8000,"[(960, 540), (960, 540), (960, 540), (960, 540), (960, 540), (960, 540), (960, 540), (960, 540), (960, 540), (960, 540), (960, 540), (960, 540), (960, 540), (960, 540), (960, 540), (960, 540), (960, 540), (960, 540), (960, 540), (960, 540), (960, 540), (960, 540), (960, 540), (960, 540), (960, 540), (960, 540), (960, 540), (960, 540), (960, 540), (960, 540), (956, 541), (951, 543), (945, 546), (940, 550), (930, 562), (925, 570), (915, 583), (903, 598), (846, 657), (808, 693), (765, 734), (712, 776), (615, 863)]",136.8863049496044,"[6, 7, 2, 3, 9, 4, 1, 5, 8]","(0, 0.25)",THI004A,THI,A,English,Tue Aug 07 11:19:52 2018,Mouse
1,2,1,0,24,6,3,0,-571,311,260,134,0,500,200,8000,"[(960, 540), (960, 540), (960, 540), (960, 540), (960, 540), (960, 540), (960, 540), (960, 540), (960, 540), (960, 540), (960, 540), (960, 540), (960, 540), (960, 540), (960, 540), (960, 540), (960, 540), (960, 540), (960, 540), (960, 540), (960, 540), (960, 540), (960, 540), (960, 540), (960, 540), (960, 540), (960, 540), (960, 540), (960, 540), (960, 540), (958, 540), (956, 541), (949, 543), (940, 550), (919, 562), (905, 572), (892, 580), (882, 586), (861, 600), (853, 606), (851, 607), (850, 608), (849, 609), (849, 609), (849, 609), (849, 609), (849, 609), (849, 609), (849, 609), (847, 611), (838, 616), (829, 624), (819, 633), (799, 650), (743, 709), (697, 758), (643, 812)]",139.36894904527765,"[6, 7, 2, 3, 9, 4, 1, 5, 8]","(0, 0.25)",THI004A,THI,A,English,Tue Aug 07 11:19:52 2018,Mouse
1,2,1,0,25,5,9,0,-319,229,90,135,0,500,200,8000,"[(960, 540), (960, 540), (960, 540), (960, 540), (960, 540), (960, 540), (960, 540), (960, 540), (960, 540), (960, 540), (960, 540), (960, 540), (960, 540), (960, 540), (960, 540), (960, 540), (960, 540), (960, 540), (960, 540), (960, 540), (960, 540), (960, 540), (957, 541), (951, 542), (933, 550), (915, 553), (890, 561), (859, 570), (746, 586), (683, 594), (611, 601), (541, 605)]",171.1819226852708,"[6, 7, 2, 3, 9, 4, 1, 5, 8]","(0, 0.25)",THI004A,THI,A,English,Tue Aug 07 11:19:52 2018,Mouse
1,2,1,0,26,5,4,0,-1150,420,730,136,0,500,200,8000,"[(960, 540), (960, 540), (960, 540), (960, 540), (960, 540), (960, 540), (960, 540), (960, 540), (960, 540), (960, 540), (960, 540), (960, 540), (960, 540), (960, 540), (960, 540), (960, 540), (960, 540), (960, 540), (960, 540), (960, 540), (960, 540), (960, 540), (960, 540), (960, 540), (960, 540), (960, 540), (960, 540), (960, 540), (960, 540), (960, 540), (960, 540), (960, 540), (960, 540), (960, 540), (960, 540), (960, 540), (960, 540), (960, 540), (960, 540), (960, 540), (960, 540), (958, 539), (955, 539), (952, 541), (936, 549), (927, 554), (915, 561), (905, 569), (880, 587), (870, 595), (856, 606), (847, 614), (835, 627), (833, 630), (830, 633), (830, 633), (830, 634), (830, 634), (830, 634), (830, 634), (830, 634), (830, 634), (830, 634), (830, 634), (830, 634), (830, 634), (830, 634), (830, 634), (830, 634), (830, 634), (830, 634), (830, 634), (830, 634), (830, 634), (830, 634), (830, 634), (829, 634), (829, 634), (829, 632), (829, 627), (829, 616), (829, 609), (829, 603), (829, 594), (829, 581), (829, 572), (829, 566), (829, 559), (829, 541), (831, 532), (832, 523), (834, 503), (836, 492), (836, 480), (839, 465), (839, 450), (840, 424), (840, 414), (840, 403), (840, 394), (834, 377), (830, 372), (821, 361), (815, 354), (793, 340), (784, 332), (773, 327), (764, 320), (742, 304), (731, 297), (719, 289), (709, 281), (687, 264), (680, 258), (671, 251)]",225.0,"[6, 7, 2, 3, 9, 4, 1, 5, 8]","(0, 0.25)",THI004A,THI,A,English,Tue Aug 07 11:19:52 2018,Mouse
1,2,1,0,27,7,7,1,490,160,330,137,0,500,200,8000,"[(960, 540), (960, 540), (960, 540), (960, 540), (960, 540), (960, 540), (960, 540), (960, 540), (960, 540), (960, 540), (960, 540), (960, 540), (960, 540), (960, 540), (960, 540), (963, 545), (965, 552), (968, 560), (971, 570), (988, 600), (1004, 619), (1022, 639), (1043, 659), (1080, 687), (1095, 697), (1111, 707), (1118, 712), (1129, 720), (1132, 722), (1133, 723), (1133, 723), (1135, 727), (1135, 728), (1136, 728), (1136, 731), (1141, 738), (1146, 744), (1150, 750), (1154, 756), (1160, 769), (1162, 775), (1164, 781), (1165, 789), (1167, 806), (1169, 816), (1173, 828), (1176, 840), (1185, 863), (1192, 877)]",55.45541471880998,"[6, 7, 2, 3, 9, 4, 1, 5, 8]","(0, 0.25)",THI004A,THI,A,English,Tue Aug 07 11:19:52 2018,Mouse
1,2,1,0,28,2,2,1,1250,430,820,137,0,500,200,8000,"[(960, 540), (960, 540), (960, 540), (960, 540), (960, 540), (960, 540), (960, 540), (960, 540), (960, 540), (960, 540), (960, 540), (960, 540), (960, 540), (960, 540), (960, 540), (960, 540), (960, 540), (960, 540), (960, 540), (960, 540), (960, 540), (960, 540), (960, 540), (960, 540), (960, 540), (960, 540), (960, 540), (960, 540), (960, 540), (960, 540), (960, 540), (960, 540), (960, 540), (960, 540), (960, 540), (960, 540), (960, 540), (960, 540), (960, 540), (960, 540), (960, 540), (960, 540), (960, 543), (959, 547), (959, 550), (958, 559), (958, 564), (958, 572), (957, 581), (956, 607), (956, 621), (956, 640), (956, 657), (956, 685), (956, 696), (956, 706), (956, 715), (954, 725), (954, 729), (954, 730), (954, 732), (954, 733), (954, 734), (954, 735), (954, 735), (954, 736), (954, 736), (954, 736), (954, 737), (953, 738), (953, 738), (953, 738), (953, 738), (953, 738), (953, 738), (953, 738), (953, 738), (951, 738), (950, 738), (948, 736), (947, 735), (943, 731), (941, 729), (940, 727), (938, 725), (934, 721), (931, 720), (930, 719), (929, 719), (927, 719), (925, 719), (922, 719), (919, 725), (914, 742), (913, 749), (910, 758), (910, 764), (910, 778), (911, 783), (912, 789), (916, 795), (917, 802), (919, 806), (919, 806), (920, 809), (920, 809), (920, 809), (920, 809), (920, 810), (920, 810), (920, 810), (920, 810), (920, 810), (920, 815), (919, 817), (919, 820), (919, 825), (917, 835), (917, 842), (917, 849), (917, 858), (915, 884), (912, 903), (911, 926), (904, 958)]",97.63055422538277,"[6, 7, 2, 3, 9, 4, 1, 5, 8]","(0, 0.25)",THI004A,THI,A,English,Tue Aug 07 11:19:52 2018,Mouse
1,2,1,0,29,5,4,0,-1719,939,780,136,0,500,200,8000,"[(960, 540), (960, 540), (960, 540), (960, 540), (960, 540), (960, 540), (960, 540), (960, 540), (960, 540), (960, 540), (960, 540), (960, 540), (960, 540), (960, 540), (960, 540), (960, 540), (960, 540), (960, 540), (960, 540), (960, 540), (960, 540), (960, 540), (960, 540), (960, 540), (960, 540), (960, 540), (960, 540), (960, 540), (960, 540), (960, 540), (960, 540), (960, 540), (960, 540), (960, 540), (960, 540), (960, 540), (960, 540), (960, 540), (960, 540), (960, 540), (960, 540), (960, 540), (960, 540), (960, 540), (960, 540), (960, 540), (960, 540), (960, 540), (960, 540), (960, 540), (960, 540), (960, 540), (960, 540), (960, 540), (960, 540), (960, 540), (960, 540), (960, 540), (960, 540), (960, 540), (960, 540), (960, 540), (960, 540), (960, 540), (960, 540), (960, 540), (960, 540), (960, 540), (960, 540), (960, 540), (960, 540), (960, 540), (960, 540), (960, 540), (960, 540), (960, 540), (960, 540), (960, 540), (960, 540), (960, 540), (960, 540), (960, 540), (960, 540), (960, 540), (960, 540), (960, 540), (960, 540), (960, 540), (960, 540), (960, 540), (960, 540), (960, 540), (960, 540), (960, 539), (960, 539), (960, 538), (960, 538), (960, 538), (960, 538), (960, 538), (960, 538), (960, 538), (960, 538), (960, 538), (960, 538), (960, 538), (960, 538), (960, 538), (960, 538), (960, 538), (960, 538), (960, 538), (960, 538), (960, 538), (960, 538), (960, 531), (958, 526), (955, 520), (950, 510), (943, 492), (939, 483), (934, 474), (932, 467), (926, 454), (922, 449), (919, 441), (918, 439), (916, 435), (915, 435), (915, 434), (915, 434), (915, 434), (915, 434), (915, 434), (915, 434), (915, 434), (915, 434), (915, 434), (915, 434), (915, 434), (915, 434), (915, 434), (915, 434), (915, 434), (915, 434), (915, 434), (915, 434), (916, 435), (917, 436), (918, 436), (918, 437), (919, 439), (919, 439), (919, 440), (919, 440), (919, 440), (919, 440), (919, 440), (919, 440), (919, 440), (919, 441), (914, 440), (901, 436), (863, 417), (829, 405), (794, 388), (759, 372), (704, 339), (680, 326), (661, 315), (642, 304), (622, 293)]",216.1581854398083,"[6, 7, 2, 3, 9, 4, 1, 5, 8]","(0, 0.25)",THI004A,THI,A,English,Tue Aug 07 11:19:52 2018,Mouse
1,2,1,0,30,9,9,1,741,221,520,137,0,500,200,8000,"[(960, 540), (960, 540), (960, 540), (960, 540), (960, 540), (960, 540), (960, 540), (960, 540), (960, 540), (960, 540), (960, 540), (960, 540), (960, 540), (960, 540), (960, 540), (960, 540), (960, 540), (960, 540), (960, 540), (960, 540), (960, 540), (960, 540), (959, 540), (957, 537), (955, 537), (955, 536), (954, 536), (954, 536), (954, 536), (952, 535), (952, 535), (951, 534), (950, 534), (950, 534), (948, 534), (946, 533), (944, 533), (940, 533), (931, 533), (907, 530), (892, 529), (878, 529), (863, 527), (840, 523), (834, 522), (833, 522), (833, 522), (833, 522), (833, 522), (833, 522), (833, 522), (833, 522), (833, 522), (833, 522), (833, 522), (833, 522), (833, 522), (833, 522), (833, 522), (833, 522), (833, 522), (833, 522), (833, 522), (833, 522), (833, 522), (833, 522), (832, 522), (822, 522), (811, 522), (794, 522), (772, 522), (702, 522), (661, 522), (610, 525), (545, 535)]",180.69027719786507,"[6, 7, 2, 3, 9, 4, 1, 5, 8]","(0, 0.25)",THI004A,THI,A,English,Tue Aug 07 11:19:52 2018,Mouse
1,2,1,0,31,1,8,0,-1199,1129,70,137,0,500,200,8000,"[(960, 540), (960, 540), (960, 540), (960, 540), (960, 540), (960, 540), (960, 540), (960, 540), (960, 540), (960, 540), (960, 540), (960, 540), (960, 540), (960, 540), (960, 540), (960, 540), (960, 540), (960, 540), (960, 540), (960, 540), (960, 540), (960, 540), (960, 540), (960, 540), (960, 540), (960, 540), (960, 540), (960, 540), (960, 540), (960, 540), (960, 540), (960, 540), (960, 540), (960, 540), (960, 540), (960, 540), (960, 540), (960, 540), (960, 540), (960, 540), (960, 540), (960, 540), (960, 540), (960, 540), (960, 540), (960, 540), (960, 540), (960, 540), (960, 540), (960, 540), (960, 540), (960, 540), (960, 540), (960, 540), (960, 540), (960, 540), (960, 540), (960, 540), (960, 540), (960, 540), (960, 540), (960, 540), (960, 540), (960, 540), (960, 540), (960, 540), (960, 540), (960, 540), (960, 540), (960, 540), (960, 540), (960, 540), (960, 540), (960, 540), (960, 540), (960, 540), (960, 540), (960, 540), (960, 540), (960, 540), (960, 540), (960, 540), (960, 540), (960, 540), (960, 540), (960, 540), (960, 540), (960, 540), (960, 540), (960, 540), (960, 540), (960, 540), (960, 540), (960, 540), (960, 540), (960, 540), (960, 540), (960, 540), (960, 540), (960, 540), (960, 540), (960, 540), (960, 540), (960, 540), (960, 540), (960, 540), (960, 540), (960, 540), (960, 540), (960, 540), (960, 540), (960, 540), (974, 538), (1001, 533), (1047, 525), (1096, 515), (1215, 484), (1278, 467), (1342, 446), (1404, 420)]",344.8759926916894,"[6, 7, 2, 3, 9, 4, 1, 5, 8]","(0, 0.25)",THI004A,THI,A,English,Tue Aug 07 11:19:52 2018,Mouse
1,2,1,0,32,4,9,0,-510,40,470,138,0,500,200,8000,"[(960, 538), (960, 538), (960, 538), (959, 537), (959, 537), (959, 537), (959, 537), (958, 535), (958, 535), (958, 535), (955, 530), (954, 527), (953, 524), (952, 523), (951, 520), (950, 517), (949, 516), (949, 516), (948, 513), (948, 513), (948, 512), (946, 511), (946, 511), (946, 511), (946, 511), (946, 511), (944, 510), (943, 510), (940, 510), (938, 510), (924, 512), (916, 515), (907, 518), (901, 521), (887, 527), (877, 531), (867, 535), (857, 539), (841, 543), (834, 544), (830, 545), (824, 545), (817, 545), (810, 545), (801, 545), (788, 545), (744, 545), (708, 545), (669, 545), (630, 545), (555, 545)]",179.29268063145577,"[6, 7, 2, 3, 9, 4, 1, 5, 8]","(0, 0.25)",THI004A,THI,A,English,Tue Aug 07 11:19:52 2018,Mouse
1,2,1,0,33,7,7,1,460,230,230,139,0,500,200,8000,"[(960, 540), (960, 540), (960, 540), (960, 540), (960, 540), (960, 540), (960, 540), (960, 540), (960, 540), (960, 540), (960, 540), (960, 540), (960, 540), (960, 540), (960, 540), (960, 540), (960, 540), (960, 540), (960, 540), (960, 540), (960, 540), (960, 540), (959, 541), (959, 542), (959, 546), (959, 551), (960, 569), (965, 584), (970, 601), (980, 624), (996, 665), (1006, 684), (1018, 705), (1034, 725), (1066, 764), (1077, 781), (1091, 796), (1101, 810), (1122, 837), (1130, 847), (1136, 855), (1143, 861), (1154, 872), (1158, 877), (1162, 882), (1167, 890)]",59.39871720346789,"[6, 7, 2, 3, 9, 4, 1, 5, 8]","(0, 0.25)",THI004A,THI,A,English,Tue Aug 07 11:19:52 2018,Mouse
1,2,1,0,34,9,9,1,710,20,690,139,0,500,200,8000,"[(959, 540), (958, 540), (958, 539), (957, 539), (957, 538), (957, 538), (957, 538), (957, 538), (956, 536), (956, 536), (956, 536), (956, 536), (956, 536), (956, 536), (956, 536), (956, 536), (956, 536), (956, 536), (956, 536), (956, 536), (955, 536), (955, 536), (955, 536), (955, 536), (955, 536), (955, 536), (954, 536), (954, 536), (954, 536), (954, 536), (954, 536), (953, 536), (953, 536), (952, 536), (952, 536), (952, 536), (952, 536), (952, 536), (952, 536), (952, 536), (952, 536), (952, 536), (952, 536), (952, 536), (952, 536), (952, 536), (952, 536), (952, 536), (952, 536), (952, 536), (952, 536), (952, 536), (952, 536), (952, 536), (952, 536), (951, 536), (949, 536), (946, 536), (942, 536), (926, 535), (913, 531), (899, 527), (878, 525), (833, 517), (809, 513), (782, 510), (750, 505), (667, 505), (622, 505), (564, 505), (511, 505)]",184.45725006845547,"[6, 7, 2, 3, 9, 4, 1, 5, 8]","(0, 0.25)",THI004A,THI,A,English,Tue Aug 07 11:19:52 2018,Mouse
1,2,1,0,35,2,2,1,790,260,530,138,0,500,200,8000,"[(960, 540), (960, 540), (960, 540), (960, 540), (960, 540), (960, 540), (960, 540), (960, 540), (960, 540), (960, 540), (960, 540), (960, 540), (960, 540), (960, 540), (960, 540), (960, 540), (960, 540), (960, 540), (960, 540), (960, 540), (960, 540), (960, 540), (960, 540), (960, 540), (960, 540), (961, 539), (970, 544), (986, 565), (1000, 580), (1013, 597), (1020, 607), (1027, 625), (1032, 636), (1035, 643), (1035, 649), (1035, 656), (1035, 658), (1035, 660), (1034, 664), (1033, 666), (1032, 667), (1032, 668), (1031, 668), (1031, 668), (1030, 669), (1030, 669), (1029, 669), (1026, 669), (1025, 669), (1023, 669), (1021, 668), (1015, 666), (1013, 663), (1011, 663), (1009, 661), (1006, 660), (1004, 659), (1002, 658), (1000, 658), (997, 658), (995, 658), (992, 658), (989, 658), (982, 665), (978, 669), (976, 674), (971, 680), (966, 689), (963, 694), (960, 701), (958, 706), (953, 721), (947, 737), (941, 762), (931, 788), (896, 855), (881, 885), (869, 914), (857, 942)]",104.37110686445115,"[6, 7, 2, 3, 9, 4, 1, 5, 8]","(0, 0.25)",THI004A,THI,A,English,Tue Aug 07 11:19:52 2018,Mouse
1,2,1,0,36,4,4,1,2071,151,1920,137,0,500,200,8000,"[(960, 540), (960, 540), (960, 540), (960, 540), (960, 540), (960, 540), (960, 540), (960, 540), (960, 540), (960, 540), (960, 540), (960, 540), (960, 540), (960, 540), (960, 540), (960, 539), (960, 539), (960, 539), (960, 539), (960, 539), (960, 538), (960, 538), (960, 538), (960, 538), (960, 538), (960, 538), (960, 538), (960, 538), (960, 538), (960, 538), (960, 537), (960, 537), (960, 537), (960, 537), (960, 537), (960, 537), (961, 537), (961, 537), (961, 537), (961, 537), (961, 537), (961, 537), (961, 537), (961, 537), (962, 537), (962, 537), (962, 537), (962, 537), (962, 537), (963, 537), (963, 537), (963, 537), (964, 537), (964, 537), (964, 537), (964, 537), (965, 537), (965, 537), (965, 537), (966, 537), (966, 537), (966, 537), (966, 537), (967, 537), (967, 537), (968, 537), (969, 537), (970, 537), (974, 536), (977, 535), (978, 535), (982, 534), (984, 533), (985, 532), (985, 532), (985, 532), (987, 532), (987, 532), (987, 532), (987, 532), (988, 532), (988, 531), (988, 531), (988, 531), (988, 531), (988, 531), (988, 531), (988, 531), (988, 531), (988, 531), (988, 531), (988, 531), (988, 531), (988, 531), (988, 531), (988, 531), (988, 531), (988, 531), (988, 531), (988, 531), (988, 531), (988, 531), (989, 530), (989, 530), (989, 530), (990, 530), (990, 531), (990, 531), (991, 532), (992, 532), (992, 532), (992, 533), (992, 533), (993, 533), (993, 533), (993, 533), (993, 533), (993, 533), (993, 533), (993, 533), (993, 533), (993, 533), (993, 533), (993, 533), (993, 533), (993, 533), (993, 533), (993, 533), (994, 533), (994, 533), (994, 533), (994, 533), (994, 533), (994, 534), (994, 534), (996, 535), (998, 536), (1000, 537), (1002, 538), (1004, 540), (1010, 541), (1013, 543), (1013, 543), (1016, 544), (1020, 544), (1023, 545), (1023, 545), (1023, 545), (1023, 545), (1023, 545), (1023, 545), (1023, 545), (1023, 545), (1023, 545), (1023, 545), (1023, 545), (1023, 545), (1023, 545), (1023, 545), (1023, 545), (1023, 545), (1023, 545), (1023, 545), (1023, 545), (1023, 545), (1023, 545), (1023, 545), (1023, 545), (1023, 545), (1023, 545), (1023, 545), (1023, 545), (1023, 545), (1023, 545), (1023, 545), (1023, 545), (1023, 544), (1023, 542), (1023, 542), (1023, 540), (1023, 538), (1022, 537), (1022, 536), (1022, 535), (1022, 535), (1021, 534), (1021, 534), (1020, 534), (1019, 533), (1019, 533), (1019, 533), (1019, 533), (1017, 531), (1016, 531), (1013, 529), (1009, 526), (997, 517), (989, 510), (973, 494), (948, 467), (878, 401), (841, 370), (802, 336), (770, 308), (720, 263), (705, 251), (695, 241), (687, 234)]",228.26203347739676,"[6, 7, 2, 3, 9, 4, 1, 5, 8]","(0, 0.25)",THI004A,THI,A,English,Tue Aug 07 11:19:52 2018,Mouse
1,2,1,0,37,9,9,1,408,18,390,136,0,500,200,8000,"[(962, 541), (963, 543), (964, 544), (966, 546), (969, 548), (970, 549), (971, 550), (972, 550), (975, 553), (975, 554), (977, 555), (980, 557), (983, 560), (985, 561), (989, 565), (991, 567), (998, 573), (1000, 574), (1002, 577), (1003, 577), (1003, 578), (1003, 578), (1003, 578), (1003, 578), (1005, 579), (1005, 579), (1005, 579), (1005, 579), (1005, 579), (1005, 579), (1005, 579), (1002, 579), (989, 579), (974, 578), (947, 573), (910, 569), (802, 557), (746, 553), (686, 543), (630, 541), (527, 539)]",180.1323225811738,"[6, 7, 2, 3, 9, 4, 1, 5, 8]","(0, 0.25)",THI004A,THI,A,English,Tue Aug 07 11:19:52 2018,Mouse
1,2,1,0,38,2,1,0,-3319,19,3300,135,0,500,200,8000,"[(960, 539), (959, 539), (958, 538), (957, 537), (957, 537), (957, 537), (957, 537), (956, 536), (956, 536), (956, 536), (956, 536), (956, 536), (956, 536), (955, 535), (954, 535), (954, 534), (954, 534), (954, 533), (954, 533), (954, 533), (954, 533), (954, 533), (954, 533), (954, 533), (954, 533), (954, 533), (954, 533), (954, 533), (954, 533), (954, 533), (954, 533), (954, 533), (954, 533), (954, 533), (954, 533), (954, 533), (954, 533), (954, 533), (954, 533), (954, 533), (954, 533), (954, 533), (954, 533), (954, 533), (954, 533), (954, 533), (954, 533), (954, 533), (954, 533), (954, 533), (954, 533), (954, 533), (954, 533), (954, 533), (954, 533), (954, 533), (954, 533), (954, 533), (954, 533), (954, 533), (954, 533), (954, 533), (954, 533), (954, 533), (954, 533), (954, 533), (954, 533), (954, 533), (954, 533), (954, 533), (954, 533), (954, 533), (954, 533), (953, 533), (953, 533), (953, 533), (953, 533), (953, 533), (953, 534), (953, 534), (953, 534), (953, 534), (953, 534), (953, 534), (953, 534), (952, 535), (952, 537), (952, 538), (952, 539), (952, 541), (952, 542), (952, 542), (952, 543), (952, 543), (952, 543), (952, 543), (952, 543), (952, 543), (952, 543), (952, 543), (952, 543), (952, 543), (952, 543), (952, 543), (952, 543), (952, 543), (952, 543), (952, 543), (952, 543), (952, 543), (951, 543), (951, 541), (951, 539), (950, 536), (950, 536), (949, 535), (949, 535), (948, 534), (948, 533), (947, 533), (947, 533), (946, 533), (945, 532), (945, 532), (945, 532), (944, 532), (943, 532), (943, 532), (942, 531), (941, 531), (941, 531), (940, 531), (939, 531), (938, 531), (938, 531), (937, 530), (937, 530), (936, 530), (935, 530), (933, 530), (932, 529), (932, 529), (930, 529), (929, 528), (929, 528), (929, 528), (927, 528), (927, 528), (927, 528), (926, 528), (926, 528), (926, 528), (926, 528), (926, 528), (926, 528), (926, 528), (926, 528), (926, 528), (926, 528), (926, 528), (926, 528), (924, 528), (924, 528), (924, 528), (924, 528), (924, 528), (924, 528), (924, 528), (923, 527), (923, 527), (923, 527), (923, 527), (923, 527), (923, 527), (923, 527), (923, 527), (923, 527), (923, 527), (923, 527), (923, 527), (923, 527), (923, 527), (923, 527), (923, 527), (923, 527), (923, 527), (923, 527), (923, 527), (923, 527), (923, 527), (923, 527), (923, 527), (923, 527), (923, 527), (923, 527), (923, 527), (923, 527), (923, 527), (923, 527), (923, 527), (923, 527), (923, 527), (923, 527), (923, 527), (923, 527), (923, 527), (923, 527), (923, 527), (923, 527), (923, 527), (923, 527), (923, 527), (923, 527), (923, 527), (923, 527), (923, 527), (923, 527), (923, 527), (923, 527), (923, 527), (923, 527), (923, 527), (923, 527), (923, 527), (923, 527), (923, 527), (923, 527), (923, 527), (923, 527), (922, 525), (922, 525), (922, 525), (922, 524), (922, 524), (922, 524), (922, 524), (922, 524), (922, 524), (922, 524), (922, 524), (922, 524), (922, 524), (922, 524), (922, 524), (922, 524), (922, 524), (922, 524), (922, 524), (922, 524), (922, 524), (922, 524), (922, 524), (922, 524), (922, 524), (922, 524), (922, 524), (922, 524), (922, 524), (922, 524), (922, 524), (922, 524), (922, 524), (922, 523), (922, 523), (922, 523), (922, 523), (922, 523), (922, 522), (922, 522), (923, 522), (923, 522), (923, 522), (923, 522), (923, 522), (923, 522), (923, 522), (923, 522), (923, 522), (923, 522), (923, 522), (923, 522), (923, 522), (923, 522), (923, 522), (924, 522), (924, 522), (924, 522), (924, 522), (924, 522), (924, 521), (924, 521), (924, 521), (925, 520), (925, 520), (925, 520), (925, 520), (925, 520), (925, 520), (925, 520), (925, 520), (925, 520), (925, 520), (925, 520), (925, 520), (925, 520), (925, 520), (925, 520), (925, 520), (925, 520), (925, 520), (925, 520), (925, 520), (925, 520), (925, 520), (925, 520), (926, 519), (926, 518), (926, 514), (926, 512), (926, 508), (926, 504), (926, 492), (926, 485), (924, 471), (923, 456), (918, 423), (913, 396), (910, 364), (909, 338), (893, 233), (889, 182), (889, 118)]",260.44963209944495,"[6, 7, 2, 3, 9, 4, 1, 5, 8]","(0, 0.25)",THI004A,THI,A,English,Tue Aug 07 11:19:52 2018,Mouse
1,2,1,0,39,2,4,0,-248,18,230,136,0,500,200,8000,"[(960, 539), (958, 537), (954, 534), (949, 529), (934, 520), (924, 513), (905, 503), (880, 489), (840, 466), (821, 454), (807, 446), (792, 435), (775, 419), (761, 403), (737, 381), (728, 371), (705, 353), (699, 348), (692, 341), (688, 336), (677, 322), (672, 317), (664, 310), (657, 299), (644, 284)]",219.01185162422448,"[6, 7, 2, 3, 9, 4, 1, 5, 8]","(0, 0.25)",THI004A,THI,A,English,Tue Aug 07 11:19:52 2018,Mouse
1,2,1,0,40,9,9,1,360,210,150,137,0,500,200,8000,"[(960, 540), (960, 540), (960, 540), (960, 540), (960, 540), (960, 540), (960, 540), (960, 540), (960, 540), (960, 540), (960, 540), (960, 540), (960, 540), (960, 540), (960, 540), (960, 540), (960, 540), (960, 540), (960, 540), (960, 540), (960, 539), (959, 538), (958, 537), (955, 535), (951, 534), (945, 534), (924, 534), (909, 534), (894, 534), (873, 534), (818, 534), (787, 534), (745, 534), (701, 534), (606, 534), (557, 534)]",180.85297588038242,"[6, 7, 2, 3, 9, 4, 1, 5, 8]","(0, 0.25)",THI004A,THI,A,English,Tue Aug 07 11:19:52 2018,Mouse
1,2,1,0,41,2,7,0,-551,51,500,137,0,500,200,8000,"[(960, 540), (960, 540), (960, 540), (960, 540), (960, 540), (961, 540), (961, 540), (961, 540), (961, 540), (961, 540), (961, 540), (961, 540), (961, 540), (961, 540), (961, 540), (961, 540), (961, 540), (961, 540), (961, 540), (961, 540), (961, 540), (961, 540), (961, 540), (961, 540), (961, 540), (961, 540), (962, 540), (963, 541), (965, 545), (968, 550), (978, 565), (984, 574), (991, 584), (999, 595), (1021, 624), (1033, 637), (1042, 649), (1051, 659), (1074, 682), (1083, 691), (1092, 701), (1099, 711), (1112, 729), (1118, 736), (1124, 744), (1131, 754), (1143, 772), (1150, 780), (1154, 786), (1159, 793), (1171, 810), (1175, 816), (1180, 824), (1185, 833), (1194, 851), (1202, 860)]",52.90160594034247,"[6, 7, 2, 3, 9, 4, 1, 5, 8]","(0, 0.25)",THI004A,THI,A,English,Tue Aug 07 11:19:52 2018,Mouse
1,2,1,0,42,5,5,1,1208,18,1190,138,0,500,200,8000,"[(956, 540), (952, 540), (939, 540), (935, 540), (931, 540), (927, 540), (922, 539), (922, 539), (920, 538), (920, 538), (920, 538), (919, 538), (919, 538), (919, 538), (919, 538), (919, 538), (919, 538), (919, 538), (919, 538), (919, 538), (919, 538), (918, 537), (918, 537), (918, 537), (918, 538), (918, 538), (918, 538), (918, 538), (918, 538), (916, 539), (916, 539), (916, 539), (916, 539), (916, 539), (916, 539), (916, 539), (916, 539), (916, 539), (916, 539), (916, 539), (916, 539), (916, 539), (916, 539), (916, 539), (916, 539), (916, 539), (916, 539), (916, 539), (916, 539), (916, 539), (914, 540), (914, 540), (914, 541), (913, 542), (913, 543), (913, 543), (913, 543), (913, 543), (913, 543), (913, 543), (912, 544), (911, 546), (904, 555), (892, 560), (889, 562), (889, 562), (889, 562), (889, 562), (889, 562), (889, 562), (889, 562), (889, 562), (889, 562), (889, 562), (889, 562), (889, 562), (889, 562), (889, 562), (889, 562), (889, 562), (889, 562), (889, 562), (889, 562), (889, 562), (889, 562), (889, 562), (889, 562), (889, 562), (889, 562), (889, 562), (889, 562), (889, 562), (889, 562), (889, 562), (899, 561), (900, 558), (903, 557), (907, 552), (918, 532), (924, 520), (931, 501), (938, 476), (949, 429), (952, 411), (953, 401), (954, 396), (970, 368), (978, 358), (987, 348), (1001, 336), (1046, 308), (1063, 293), (1082, 276), (1102, 259), (1124, 234), (1131, 223), (1134, 217), (1139, 210), (1145, 195), (1149, 190), (1153, 184)]",298.4636635477368,"[6, 7, 2, 3, 9, 4, 1, 5, 8]","(0, 0.25)",THI004A,THI,A,English,Tue Aug 07 11:19:52 2018,Mouse
1,2,1,0,43,4,9,0,-3590,130,3460,138,0,500,200,8000,"[(960, 540), (960, 540), (960, 540), (960, 540), (960, 540), (960, 540), (960, 540), (960, 540), (960, 540), (960, 540), (960, 540), (960, 540), (959, 541), (959, 541), (959, 541), (959, 541), (959, 541), (959, 541), (959, 541), (959, 541), (959, 541), (959, 541), (959, 541), (959, 541), (959, 541), (959, 541), (959, 541), (959, 541), (959, 541), (959, 541), (959, 541), (959, 541), (959, 541), (959, 541), (959, 541), (959, 541), (959, 541), (959, 541), (959, 541), (959, 541), (959, 541), (959, 541), (959, 541), (959, 541), (959, 541), (959, 541), (959, 541), (959, 541), (959, 541), (959, 541), (959, 541), (959, 541), (959, 541), (959, 541), (959, 541), (959, 541), (959, 541), (959, 541), (959, 541), (959, 541), (959, 541), (959, 541), (959, 541), (959, 541), (959, 541), (959, 541), (959, 541), (959, 541), (959, 541), (959, 541), (959, 541), (959, 541), (959, 541), (959, 541), (959, 541), (959, 541), (959, 541), (959, 541), (959, 541), (959, 541), (959, 541), (959, 541), (959, 541), (959, 541), (959, 541), (959, 541), (959, 541), (959, 541), (959, 541), (959, 541), (959, 541), (959, 541), (959, 541), (959, 541), (959, 541), (959, 541), (959, 541), (959, 541), (959, 541), (959, 541), (959, 541), (959, 541), (959, 541), (959, 541), (959, 541), (959, 541), (959, 541), (959, 541), (959, 541), (959, 541), (959, 541), (959, 541), (959, 541), (959, 541), (959, 541), (959, 541), (959, 541), (959, 541), (959, 541), (958, 541), (958, 541), (958, 541), (958, 541), (958, 541), (958, 541), (958, 541), (958, 541), (958, 541), (958, 541), (958, 541), (958, 541), (958, 541), (958, 541), (958, 541), (958, 541), (958, 541), (958, 541), (958, 541), (958, 541), (958, 541), (958, 541), (958, 541), (958, 541), (958, 541), (958, 541), (958, 541), (958, 541), (958, 541), (958, 541), (958, 541), (958, 541), (958, 541), (958, 541), (958, 541), (958, 541), (958, 541), (958, 541), (958, 541), (958, 541), (958, 541), (958, 541), (958, 541), (958, 541), (958, 541), (958, 541), (958, 541), (958, 541), (958, 541), (958, 541), (958, 541), (958, 541), (958, 541), (958, 541), (958, 541), (958, 541), (958, 541), (958, 541), (958, 541), (958, 541), (958, 541), (958, 541), (958, 541), (958, 541), (958, 541), (958, 541), (958, 541), (958, 541), (958, 541), (958, 541), (958, 541), (958, 541), (958, 541), (958, 541), (958, 541), (958, 541), (958, 541), (958, 541), (958, 541), (958, 541), (958, 541), (958, 541), (958, 541), (958, 541), (958, 541), (958, 541), (958, 541), (958, 541), (958, 541), (958, 541), (958, 541), (958, 541), (958, 541), (958, 541), (958, 541), (958, 541), (958, 541), (958, 541), (958, 541), (958, 541), (958, 541), (958, 541), (958, 541), (958, 541), (958, 541), (958, 541), (958, 541), (958, 541), (958, 541), (958, 541), (958, 541), (958, 541), (958, 541), (958, 541), (958, 541), (958, 541), (958, 541), (958, 541), (958, 541), (958, 541), (958, 541), (958, 541), (958, 541), (958, 541), (958, 541), (958, 541), (958, 541), (958, 541), (958, 541), (958, 541), (958, 541), (958, 541), (958, 541), (958, 541), (958, 541), (958, 541), (958, 541), (958, 541), (958, 541), (958, 541), (958, 541), (958, 541), (958, 541), (958, 541), (958, 541), (958, 541), (958, 541), (958, 541), (958, 541), (958, 541), (958, 541), (958, 541), (958, 541), (958, 541), (958, 541), (958, 541), (958, 541), (958, 541), (958, 541), (958, 541), (957, 541), (957, 541), (957, 541), (957, 541), (955, 541), (955, 541), (955, 541), (954, 541), (954, 541), (954, 541), (953, 540), (953, 540), (953, 540), (953, 540), (953, 540), (953, 540), (953, 539), (952, 539), (952, 539), (952, 538), (952, 538), (951, 537), (951, 537), (950, 536), (949, 535), (948, 534), (947, 533), (946, 533), (945, 530), (943, 528), (939, 523), (931, 516), (912, 499), (896, 487), (881, 473), (863, 458), (832, 438), (817, 430), (798, 422), (784, 413), (763, 405), (753, 402), (747, 400), (742, 399), (734, 397), (732, 397), (731, 397), (728, 397), (728, 397), (728, 397), (728, 397), (726, 397), (726, 397), (726, 397), (726, 397), (726, 397), (726, 397), (726, 397), (726, 397), (726, 397), (725, 397), (725, 397), (725, 397), (725, 396), (725, 395), (725, 395), (725, 394), (725, 394), (725, 394), (725, 393), (723, 394), (718, 397), (704, 410), (693, 422), (679, 438), (665, 453), (628, 488), (603, 505), (573, 523), (536, 538)]",180.27026110649413,"[6, 7, 2, 3, 9, 4, 1, 5, 8]","(0, 0.25)",THI004A,THI,A,English,Tue Aug 07 11:19:52 2018,Mouse
1,2,1,0,44,7,7,1,399,19,380,139,0,500,200,8000,"[(960, 540), (960, 541), (960, 541), (959, 541), (958, 542), (958, 542), (958, 542), (958, 545), (958, 547), (958, 549), (958, 552), (959, 560), (960, 564), (960, 569), (963, 573), (967, 582), (968, 584), (969, 587), (970, 590), (972, 594), (972, 595), (973, 597), (975, 601), (978, 607), (982, 613), (985, 619), (989, 628), (999, 646), (1003, 654), (1011, 663), (1015, 675), (1026, 700), (1037, 717), (1048, 741), (1065, 766), (1102, 817), (1117, 837), (1129, 854), (1142, 871), (1171, 907)]",60.104031442471964,"[6, 7, 2, 3, 9, 4, 1, 5, 8]","(0, 0.25)",THI004A,THI,A,English,Tue Aug 07 11:19:52 2018,Mouse
1,2,1,0,45,8,8,1,570,340,230,139,0,500,200,8000,"[(960, 540), (960, 540), (960, 540), (960, 540), (960, 540), (960, 540), (960, 540), (960, 540), (960, 540), (960, 540), (960, 540), (960, 540), (960, 540), (960, 540), (960, 540), (960, 540), (960, 540), (960, 540), (960, 540), (960, 540), (960, 540), (960, 540), (960, 540), (960, 540), (960, 540), (960, 540), (960, 540), (960, 540), (960, 540), (960, 540), (960, 540), (960, 540), (960, 540), (960, 539), (963, 537), (963, 537), (963, 537), (963, 537), (963, 537), (963, 537), (963, 537), (963, 537), (963, 537), (963, 537), (966, 535), (967, 534), (972, 532), (978, 530), (990, 526), (1004, 520), (1058, 504), (1104, 492), (1144, 479), (1191, 465), (1280, 438), (1319, 425), (1346, 412)]",341.6541580718211,"[6, 7, 2, 3, 9, 4, 1, 5, 8]","(0, 0.25)",THI004A,THI,A,English,Tue Aug 07 11:19:52 2018,Mouse
1,2,1,0,46,7,7,1,331,11,320,138,0,500,200,8000,"[(960, 540), (965, 555), (968, 564), (974, 574), (983, 584), (1004, 612), (1013, 626), (1023, 640), (1033, 653), (1049, 674), (1058, 683), (1063, 690), (1069, 698), (1078, 711), (1080, 714), (1082, 718), (1084, 719), (1085, 721), (1085, 722), (1085, 722), (1085, 722), (1086, 725), (1087, 727), (1089, 733), (1093, 741), (1103, 761), (1109, 773), (1115, 784), (1120, 792), (1134, 816), (1142, 826), (1155, 846), (1170, 870), (1212, 927)]",56.92932217723833,"[6, 7, 2, 3, 9, 4, 1, 5, 8]","(0, 0.25)",THI004A,THI,A,English,Tue Aug 07 11:19:52 2018,Mouse
1,2,1,0,47,4,4,1,959,799,160,137,0,500,200,8000,"[(960, 540), (960, 540), (960, 540), (960, 540), (960, 540), (960, 540), (960, 540), (960, 540), (960, 540), (960, 540), (960, 540), (960, 540), (960, 540), (960, 540), (960, 540), (960, 540), (960, 540), (960, 540), (960, 540), (960, 540), (960, 540), (960, 540), (960, 540), (960, 540), (960, 540), (960, 540), (960, 540), (960, 540), (960, 540), (960, 540), (960, 540), (960, 540), (960, 540), (960, 540), (960, 540), (960, 540), (960, 540), (960, 540), (960, 540), (960, 540), (960, 540), (960, 540), (960, 540), (960, 540), (960, 540), (960, 540), (960, 540), (960, 540), (960, 540), (960, 540), (960, 540), (960, 540), (960, 540), (960, 540), (960, 540), (960, 540), (960, 540), (960, 540), (960, 540), (960, 540), (960, 540), (960, 540), (960, 540), (960, 540), (960, 540), (960, 540), (960, 540), (960, 540), (960, 540), (960, 540), (960, 540), (960, 540), (960, 540), (960, 540), (960, 540), (960, 540), (960, 540), (960, 540), (960, 540), (963, 537), (964, 535), (964, 531), (964, 528), (957, 515), (952, 507), (947, 500), (940, 491), (923, 468), (906, 449), (888, 435), (861, 417), (786, 370), (737, 341), (688, 319), (648, 302), (597, 272)]",216.43815570603354,"[6, 7, 2, 3, 9, 4, 1, 5, 8]","(0, 0.25)",THI004A,THI,A,English,Tue Aug 07 11:19:52 2018,Mouse
1,2,1,0,48,5,4,0,-301,151,150,136,0,500,200,8000,"[(960, 540), (960, 540), (960, 540), (960, 540), (960, 540), (960, 540), (960, 540), (960, 540), (960, 540), (960, 540), (960, 540), (960, 540), (960, 540), (960, 540), (960, 540), (957, 540), (956, 539), (952, 535), (936, 522), (926, 515), (913, 508), (898, 498), (873, 479), (802, 438), (766, 417), (736, 396), (703, 378), (658, 354), (644, 347), (633, 340), (608, 323)]",211.6528886273713,"[6, 7, 2, 3, 9, 4, 1, 5, 8]","(0, 0.25)",THI004A,THI,A,English,Tue Aug 07 11:19:52 2018,Mouse
1,2,1,0,49,1,1,1,451,151,300,137,0,500,200,8000,"[(960, 540), (960, 540), (960, 540), (960, 540), (960, 540), (960, 540), (960, 540), (960, 540), (960, 540), (960, 540), (960, 540), (960, 540), (960, 540), (960, 540), (960, 540), (959, 540), (959, 540), (959, 540), (959, 540), (958, 540), (958, 540), (956, 541), (956, 541), (955, 541), (954, 541), (953, 542), (953, 542), (953, 542), (953, 542), (953, 542), (953, 542), (952, 543), (952, 543), (951, 543), (950, 543), (945, 542), (941, 539), (935, 534), (928, 526), (913, 499), (901, 465), (885, 423), (873, 360), (843, 257), (826, 204), (814, 144)]",249.76173177443286,"[6, 7, 2, 3, 9, 4, 1, 5, 8]","(0, 0.25)",THI004A,THI,A,English,Tue Aug 07 11:19:52 2018,Mouse
1,2,1,0,50,2,2,1,450,120,330,137,0,500,200,8000,"[(960, 540), (960, 540), (960, 540), (960, 540), (960, 540), (960, 540), (960, 540), (960, 540), (960, 540), (960, 540), (960, 540), (960, 541), (957, 542), (957, 542), (956, 543), (955, 544), (953, 549), (952, 554), (952, 559), (952, 565), (952, 577), (952, 584), (952, 590), (952, 599), (950, 615), (950, 622), (949, 631), (949, 642), (947, 663), (944, 672), (942, 683), (941, 691), (938, 706), (937, 715), (936, 723), (933, 736), (921, 767), (914, 790), (907, 810), (901, 832), (893, 864), (889, 880), (889, 891), (886, 903), (884, 933)]",100.94499613828957,"[6, 7, 2, 3, 9, 4, 1, 5, 8]","(0, 0.25)",THI004A,THI,A,English,Tue Aug 07 11:19:52 2018,Mouse
1,2,1,0,51,6,6,1,1509,1419,90,136,0,500,200,8000,"[(960, 540), (960, 540), (960, 540), (960, 540), (960, 540), (960, 540), (960, 540), (960, 540), (960, 540), (960, 540), (960, 540), (960, 540), (960, 540), (960, 540), (960, 540), (960, 540), (960, 540), (960, 540), (960, 540), (960, 540), (960, 540), (960, 540), (960, 540), (960, 540), (960, 540), (960, 540), (960, 540), (960, 540), (960, 540), (960, 540), (960, 540), (960, 540), (960, 540), (960, 540), (960, 540), (960, 540), (960, 540), (960, 540), (960, 540), (960, 540), (960, 540), (960, 540), (960, 540), (960, 540), (960, 540), (960, 540), (960, 540), (960, 540), (960, 540), (960, 540), (960, 540), (960, 540), (960, 540), (960, 540), (960, 540), (960, 540), (960, 540), (960, 540), (960, 540), (960, 540), (960, 540), (960, 540), (960, 540), (960, 540), (960, 540), (960, 540), (960, 540), (960, 540), (960, 540), (960, 540), (960, 540), (960, 540), (960, 540), (960, 540), (960, 540), (960, 540), (960, 540), (960, 540), (960, 540), (960, 540), (960, 540), (960, 540), (960, 540), (960, 540), (960, 540), (960, 540), (960, 540), (960, 540), (960, 540), (960, 540), (960, 540), (960, 540), (960, 540), (960, 540), (960, 540), (960, 540), (960, 540), (960, 540), (960, 540), (960, 540), (960, 540), (960, 540), (960, 540), (960, 540), (960, 540), (960, 540), (960, 540), (960, 540), (960, 540), (960, 540), (960, 540), (960, 540), (960, 540), (960, 540), (960, 540), (960, 540), (960, 540), (960, 540), (960, 540), (960, 540), (960, 540), (960, 540), (960, 540), (960, 540), (960, 540), (960, 540), (960, 540), (960, 540), (960, 540), (960, 540), (960, 540), (960, 540), (960, 540), (960, 540), (960, 540), (960, 540), (960, 540), (960, 540), (960, 540), (960, 540), (960, 540), (961, 540), (978, 549), (999, 560), (1028, 571), (1073, 587), (1169, 611), (1221, 621), (1270, 628), (1322, 638), (1413, 648)]",13.409595867094065,"[6, 7, 2, 3, 9, 4, 1, 5, 8]","(0, 0.25)",THI004A,THI,A,English,Tue Aug 07 11:19:52 2018,Mouse
1,2,1,0,52,4,7,0,-1270,60,1210,135,0,500,200,8000,"[(960, 540), (960, 540), (960, 540), (960, 540), (960, 540), (959, 541), (959, 541), (959, 541), (959, 541), (959, 541), (959, 541), (959, 541), (959, 541), (959, 541), (959, 541), (959, 541), (959, 541), (959, 541), (959, 541), (959, 541), (959, 541), (959, 541), (959, 541), (959, 541), (959, 541), (959, 541), (959, 541), (959, 541), (959, 541), (959, 541), (959, 541), (959, 541), (959, 541), (959, 541), (959, 541), (959, 541), (959, 541), (959, 541), (959, 541), (959, 541), (959, 541), (959, 541), (959, 541), (959, 541), (959, 541), (959, 541), (959, 541), (959, 541), (959, 541), (959, 541), (959, 541), (959, 541), (959, 541), (959, 541), (959, 541), (959, 541), (959, 541), (959, 541), (959, 541), (959, 541), (959, 541), (959, 541), (959, 541), (959, 541), (959, 541), (959, 541), (959, 541), (959, 541), (959, 541), (959, 541), (959, 541), (959, 541), (959, 541), (959, 541), (959, 541), (959, 541), (959, 541), (959, 541), (959, 541), (959, 541), (959, 541), (959, 541), (959, 541), (959, 541), (959, 541), (959, 541), (959, 541), (959, 541), (959, 541), (959, 541), (959, 541), (959, 541), (959, 541), (959, 541), (959, 541), (959, 541), (959, 541), (959, 541), (959, 541), (959, 541), (959, 541), (959, 541), (959, 541), (959, 541), (959, 541), (959, 541), (959, 544), (959, 547), (959, 550), (961, 553), (967, 570), (972, 579), (976, 593), (980, 606), (989, 632), (995, 647), (999, 660), (1002, 671), (1011, 693), (1017, 706), (1023, 720), (1031, 739), (1049, 795), (1064, 829), (1079, 866), (1094, 896), (1131, 964)]",68.03568662418378,"[6, 7, 2, 3, 9, 4, 1, 5, 8]","(0, 0.25)",THI004A,THI,A,English,Tue Aug 07 11:19:52 2018,Mouse
1,2,1,0,53,9,8,0,-769,689,80,136,0,500,200,8000,"[(960, 540), (960, 540), (960, 540), (960, 540), (960, 540), (960, 540), (960, 540), (960, 540), (960, 540), (960, 540), (960, 540), (960, 540), (960, 540), (960, 540), (960, 540), (960, 540), (960, 540), (960, 540), (960, 540), (960, 540), (960, 540), (960, 540), (960, 540), (960, 540), (960, 540), (960, 540), (960, 540), (960, 540), (960, 540), (960, 540), (960, 540), (960, 540), (960, 540), (960, 540), (960, 540), (960, 540), (960, 540), (960, 540), (960, 540), (960, 540), (960, 540), (960, 540), (960, 540), (960, 540), (960, 540), (960, 540), (960, 540), (960, 540), (960, 540), (960, 540), (960, 540), (960, 540), (960, 540), (960, 540), (960, 540), (960, 540), (960, 540), (960, 540), (960, 540), (960, 540), (960, 540), (960, 540), (960, 540), (960, 540), (960, 540), (960, 540), (960, 540), (960, 540), (960, 537), (965, 530), (982, 520), (1051, 489), (1097, 469), (1148, 449), (1204, 423), (1313, 384), (1361, 364)]",336.30319787373816,"[6, 7, 2, 3, 9, 4, 1, 5, 8]","(0, 0.25)",THI004A,THI,A,English,Tue Aug 07 11:19:52 2018,Mouse
1,2,1,0,54,7,7,1,310,80,230,137,0,500,200,8000,"[(960, 540), (960, 540), (960, 540), (960, 540), (960, 540), (960, 540), (960, 540), (959, 541), (960, 549), (962, 553), (966, 561), (970, 567), (976, 578), (979, 582), (982, 588), (984, 592), (986, 597), (994, 609), (999, 619), (1006, 629), (1020, 657), (1029, 671), (1039, 687), (1047, 703), (1063, 731), (1073, 748), (1083, 763), (1097, 785), (1134, 843), (1154, 876), (1181, 912)]",59.28604512518766,"[6, 7, 2, 3, 9, 4, 1, 5, 8]","(0, 0.25)",THI004A,THI,A,English,Tue Aug 07 11:19:52 2018,Mouse
1,2,1,0,55,4,4,1,721,621,100,137,0,500,200,8000,"[(960, 540), (960, 540), (960, 540), (960, 540), (960, 540), (960, 540), (960, 540), (960, 540), (960, 540), (960, 540), (960, 540), (960, 540), (960, 540), (960, 540), (960, 540), (960, 540), (960, 540), (960, 540), (960, 540), (960, 540), (960, 540), (960, 540), (960, 540), (960, 540), (960, 540), (960, 540), (960, 540), (960, 540), (960, 540), (960, 540), (960, 540), (960, 540), (960, 540), (960, 540), (960, 540), (960, 540), (960, 540), (960, 540), (960, 540), (960, 540), (960, 540), (960, 540), (960, 540), (960, 540), (960, 540), (960, 540), (960, 540), (960, 540), (960, 540), (960, 540), (960, 540), (960, 540), (960, 540), (960, 540), (960, 540), (960, 540), (960, 540), (960, 540), (960, 540), (960, 540), (960, 540), (960, 540), (960, 539), (960, 538), (956, 529), (941, 504), (921, 473), (897, 437), (867, 398), (795, 305), (759, 265), (727, 223), (697, 184)]",233.54434388116397,"[6, 7, 2, 3, 9, 4, 1, 5, 8]","(0, 0.25)",THI004A,THI,A,English,Tue Aug 07 11:19:52 2018,Mouse
1,2,1,0,56,7,7,1,439,309,130,136,0,500,200,8000,"[(960, 540), (960, 540), (960, 540), (960, 540), (960, 540), (960, 540), (960, 540), (960, 540), (960, 540), (960, 540), (960, 540), (960, 540), (960, 540), (960, 540), (960, 540), (960, 540), (960, 540), (960, 540), (960, 540), (960, 540), (960, 540), (960, 540), (960, 540), (960, 540), (960, 540), (960, 540), (960, 540), (960, 540), (960, 540), (960, 540), (960, 543), (960, 561), (960, 571), (962, 585), (963, 602), (974, 649), (984, 680), (1003, 720), (1021, 762), (1058, 833), (1071, 857), (1088, 884), (1102, 907), (1123, 932)]",67.42166124835805,"[6, 7, 2, 3, 9, 4, 1, 5, 8]","(0, 0.25)",THI004A,THI,A,English,Tue Aug 07 11:19:52 2018,Mouse
1,2,1,0,57,1,1,1,591,490,101,135,0,500,200,8000,"[(960, 540), (960, 540), (960, 540), (960, 540), (960, 540), (960, 540), (960, 540), (960, 540), (960, 540), (960, 540), (960, 540), (960, 540), (960, 540), (960, 540), (960, 540), (960, 540), (960, 540), (960, 540), (960, 540), (960, 540), (960, 540), (960, 540), (960, 540), (960, 540), (960, 540), (960, 540), (960, 540), (960, 540), (960, 540), (960, 540), (960, 540), (960, 540), (960, 540), (960, 540), (960, 540), (960, 540), (960, 540), (960, 540), (960, 540), (960, 540), (960, 540), (960, 540), (960, 540), (960, 540), (960, 540), (960, 540), (960, 540), (960, 540), (959, 535), (956, 528), (950, 504), (945, 482), (942, 451), (934, 410), (922, 310), (917, 265), (915, 220), (915, 181), (915, 125)]",263.8113840367584,"[6, 7, 2, 3, 9, 4, 1, 5, 8]","(0, 0.25)",THI004A,THI,A,English,Tue Aug 07 11:19:52 2018,Mouse
1,2,1,0,58,8,1,0,-271,121,150,134,0,500,200,8000,"[(960, 540), (960, 540), (960, 540), (960, 540), (960, 540), (960, 540), (960, 540), (960, 540), (960, 540), (960, 540), (960, 540), (960, 540), (960, 539), (960, 539), (960, 539), (959, 538), (958, 536), (958, 534), (956, 529), (949, 512), (946, 502), (942, 486), (939, 465), (927, 395), (915, 343), (905, 283), (896, 218), (873, 79)]",259.3128232131861,"[6, 7, 2, 3, 9, 4, 1, 5, 8]","(0, 0.25)",THI004A,THI,A,English,Tue Aug 07 11:19:52 2018,Mouse
1,2,1,0,59,6,6,1,779,159,620,135,0,500,200,8000,"[(960, 540), (960, 540), (960, 540), (960, 540), (960, 540), (960, 540), (960, 540), (960, 540), (960, 540), (960, 540), (960, 540), (960, 540), (960, 540), (960, 540), (960, 540), (960, 539), (960, 539), (960, 539), (960, 539), (960, 539), (960, 539), (960, 539), (960, 539), (960, 539), (960, 539), (960, 539), (960, 539), (960, 539), (960, 539), (960, 539), (960, 539), (960, 539), (960, 539), (960, 539), (960, 539), (960, 539), (960, 538), (960, 538), (960, 538), (960, 538), (960, 538), (960, 538), (960, 538), (959, 536), (963, 535), (968, 533), (976, 529), (999, 524), (1014, 522), (1033, 519), (1058, 517), (1109, 517), (1137, 517), (1159, 517), (1181, 517), (1215, 517), (1227, 517), (1240, 517), (1246, 517), (1252, 517), (1252, 517), (1252, 517), (1252, 517), (1253, 518), (1253, 518), (1253, 519), (1251, 522), (1251, 527), (1251, 531), (1251, 541), (1251, 552), (1262, 584), (1270, 600), (1280, 619), (1297, 641), (1316, 669), (1326, 681), (1334, 688)]",21.589791687713987,"[6, 7, 2, 3, 9, 4, 1, 5, 8]","(0, 0.25)",THI004A,THI,A,English,Tue Aug 07 11:19:52 2018,Mouse
1,2,1,0,60,3,7,0,-590,240,350,135,0,500,200,8000,"[(960, 540), (960, 540), (960, 540), (960, 540), (960, 540), (960, 540), (960, 540), (960, 540), (960, 540), (960, 540), (960, 540), (960, 540), (960, 540), (960, 540), (960, 540), (960, 540), (960, 540), (960, 540), (960, 540), (960, 540), (960, 540), (960, 540), (960, 540), (959, 541), (958, 542), (957, 543), (956, 545), (956, 546), (956, 548), (956, 549), (956, 550), (956, 551), (955, 553), (955, 554), (954, 556), (954, 556), (954, 556), (954, 556), (954, 557), (954, 558), (954, 558), (954, 559), (954, 559), (954, 559), (954, 559), (954, 559), (954, 561), (954, 562), (954, 570), (959, 578), (967, 590), (977, 605), (1008, 646), (1032, 677), (1053, 705), (1103, 765), (1134, 805), (1169, 847), (1206, 895)]",55.279676264126714,"[6, 7, 2, 3, 9, 4, 1, 5, 8]","(0, 0.25)",THI004A,THI,A,English,Tue Aug 07 11:19:52 2018,Mouse
1,2,1,0,61,5,2,0,-400,20,380,136,0,500,200,8000,"[(960, 539), (960, 537), (960, 536), (959, 534), (957, 530), (955, 528), (953, 525), (952, 522), (952, 522), (950, 520), (950, 519), (950, 519), (950, 519), (950, 519), (950, 519), (949, 519), (949, 519), (949, 519), (949, 519), (949, 519), (949, 519), (949, 519), (949, 519), (949, 519), (949, 519), (948, 518), (946, 518), (941, 536), (940, 548), (936, 562), (930, 582), (913, 636), (912, 661), (905, 691), (902, 726), (892, 814), (885, 850), (876, 888), (866, 922), (849, 983)]",104.06667138833363,"[6, 7, 2, 3, 9, 4, 1, 5, 8]","(0, 0.25)",THI004A,THI,A,English,Tue Aug 07 11:19:52 2018,Mouse
1,2,1,0,62,4,4,1,950,290,660,137,0,500,200,8000,"[(960, 540), (960, 540), (960, 540), (960, 540), (960, 540), (960, 540), (960, 540), (960, 540), (960, 540), (960, 540), (960, 540), (960, 540), (960, 540), (960, 540), (960, 540), (960, 540), (960, 540), (960, 540), (960, 540), (960, 540), (960, 540), (960, 540), (960, 540), (960, 540), (960, 540), (960, 540), (960, 540), (960, 540), (958, 537), (955, 532), (952, 523), (950, 520), (947, 516), (946, 513), (943, 508), (941, 504), (940, 502), (939, 501), (936, 497), (935, 496), (933, 491), (931, 489), (927, 482), (926, 481), (925, 479), (924, 475), (922, 471), (921, 468), (920, 465), (919, 464), (918, 459), (916, 458), (915, 456), (915, 455), (914, 453), (914, 453), (914, 453), (914, 453), (914, 453), (914, 453), (914, 453), (914, 453), (914, 453), (912, 452), (912, 452), (912, 452), (912, 452), (912, 452), (912, 452), (912, 452), (912, 451), (912, 451), (912, 451), (912, 451), (912, 451), (912, 451), (912, 451), (912, 451), (910, 451), (910, 451), (910, 451), (910, 451), (910, 451), (910, 451), (910, 451), (910, 451), (909, 451), (906, 450), (901, 448), (888, 442), (828, 417), (774, 394), (714, 364), (657, 332), (539, 262)]",213.43808111541946,"[6, 7, 2, 3, 9, 4, 1, 5, 8]","(0, 0.25)",THI004A,THI,A,English,Tue Aug 07 11:19:52 2018,Mouse
1,2,1,0,63,2,2,1,591,201,390,137,0,500,200,8000,"[(960, 540), (960, 540), (960, 540), (960, 540), (960, 540), (960, 540), (960, 540), (960, 540), (960, 540), (960, 540), (960, 540), (960, 540), (960, 540), (960, 540), (960, 540), (960, 540), (960, 540), (960, 540), (960, 540), (960, 540), (960, 543), (960, 547), (961, 549), (962, 556), (963, 556), (963, 560), (963, 564), (964, 575), (965, 581), (965, 585), (967, 590), (967, 597), (967, 601), (967, 607), (967, 611), (967, 622), (967, 629), (967, 635), (967, 640), (963, 651), (963, 654), (962, 657), (961, 659), (959, 664), (957, 667), (955, 669), (952, 674), (943, 685), (938, 694), (933, 704), (930, 714), (926, 741), (923, 755), (922, 770), (917, 786), (907, 824), (898, 860), (892, 888), (882, 926), (872, 988)]",101.1130405359483,"[6, 7, 2, 3, 9, 4, 1, 5, 8]","(0, 0.25)",THI004A,THI,A,English,Tue Aug 07 11:19:52 2018,Mouse
1,2,1,0,64,4,4,1,661,501,160,136,0,500,200,8000,"[(960, 540), (960, 540), (960, 540), (960, 540), (960, 540), (960, 540), (960, 540), (960, 540), (960, 540), (960, 540), (960, 540), (960, 540), (960, 540), (960, 540), (960, 540), (960, 540), (960, 540), (960, 540), (960, 540), (960, 540), (960, 540), (960, 540), (960, 540), (960, 540), (960, 540), (960, 540), (960, 540), (960, 540), (960, 540), (960, 540), (960, 540), (960, 540), (960, 540), (960, 540), (960, 540), (960, 540), (960, 540), (960, 540), (960, 540), (960, 540), (960, 540), (960, 540), (960, 540), (960, 540), (960, 540), (960, 540), (960, 540), (960, 540), (960, 540), (960, 540), (958, 540), (956, 537), (954, 536), (952, 534), (947, 532), (935, 526), (928, 520), (919, 516), (912, 511), (895, 497), (883, 487), (852, 465), (819, 441), (741, 392), (705, 368), (662, 344), (618, 320)]",212.75215764853942,"[6, 7, 2, 3, 9, 4, 1, 5, 8]","(0, 0.25)",THI004A,THI,A,English,Tue Aug 07 11:19:52 2018,Mouse
1,2,1,0,65,3,7,0,-2290,30,2260,135,0,500,200,8000,"[(960, 540), (960, 540), (959, 540), (959, 540), (959, 540), (959, 540), (959, 540), (959, 540), (959, 540), (959, 540), (959, 540), (959, 540), (959, 540), (959, 539), (959, 539), (959, 539), (959, 539), (959, 539), (959, 539), (959, 539), (959, 539), (959, 539), (959, 539), (959, 539), (959, 539), (959, 539), (959, 539), (959, 539), (958, 539), (958, 539), (958, 539), (958, 539), (958, 539), (958, 539), (958, 539), (958, 539), (957, 539), (957, 539), (957, 539), (956, 539), (955, 540), (955, 540), (955, 540), (955, 540), (955, 540), (955, 540), (955, 540), (955, 540), (955, 540), (955, 540), (954, 541), (954, 541), (954, 542), (954, 542), (954, 542), (954, 542), (954, 542), (954, 542), (953, 544), (953, 544), (952, 544), (952, 545), (952, 545), (952, 546), (951, 548), (951, 549), (951, 550), (950, 551), (950, 556), (950, 562), (950, 567), (950, 577), (950, 597), (950, 608), (948, 620), (948, 631), (948, 650), (948, 657), (948, 666), (948, 672), (948, 684), (948, 686), (949, 688), (949, 689), (949, 691), (949, 691), (949, 691), (949, 691), (949, 691), (949, 691), (949, 691), (949, 691), (949, 691), (949, 691), (949, 691), (949, 691), (949, 691), (949, 691), (949, 691), (949, 691), (949, 691), (949, 691), (949, 691), (949, 691), (949, 691), (949, 691), (949, 691), (949, 691), (949, 691), (949, 691), (949, 691), (949, 691), (949, 691), (949, 691), (949, 691), (949, 691), (949, 691), (949, 691), (949, 691), (949, 691), (949, 691), (949, 691), (949, 691), (949, 691), (949, 691), (949, 691), (949, 691), (950, 692), (953, 693), (956, 696), (959, 696), (965, 699), (978, 707), (987, 710), (997, 717), (1008, 721), (1028, 729), (1038, 733), (1051, 739), (1062, 745), (1085, 757), (1093, 762), (1102, 765), (1106, 768), (1111, 770), (1111, 770), (1111, 770), (1111, 770), (1111, 770), (1111, 770), (1111, 770), (1111, 770), (1111, 770), (1111, 770), (1111, 770), (1111, 770), (1111, 770), (1111, 770), (1111, 770), (1111, 770), (1111, 770), (1111, 770), (1111, 770), (1111, 770), (1111, 770), (1111, 770), (1111, 771), (1111, 771), (1109, 769), (1107, 767), (1105, 765), (1103, 762), (1095, 756), (1088, 750), (1083, 746), (1077, 742), (1069, 736), (1064, 732), (1061, 728), (1055, 723), (1048, 717), (1045, 713), (1041, 711), (1041, 710), (1040, 709), (1040, 709), (1040, 709), (1040, 709), (1039, 709), (1039, 709), (1039, 709), (1039, 709), (1038, 711), (1038, 715), (1038, 719), (1039, 728), (1045, 749), (1048, 760), (1053, 770), (1057, 780), (1065, 797), (1067, 803), (1070, 811), (1072, 818), (1072, 829), (1072, 834), (1072, 840), (1070, 847), (1065, 859), (1064, 861), (1064, 862), (1064, 863), (1064, 866), (1064, 868), (1064, 869), (1065, 872), (1066, 875), (1067, 877), (1068, 880), (1069, 881), (1069, 883), (1070, 884), (1072, 886), (1073, 887), (1077, 892), (1080, 896), (1082, 899), (1087, 904), (1099, 918)]",69.81026979773051,"[6, 7, 2, 3, 9, 4, 1, 5, 8]","(0, 0.25)",THI004A,THI,A,English,Tue Aug 07 11:19:52 2018,Mouse
1,2,1,0,66,4,8,0,-540,50,490,136,0,500,200,8000,"[(960, 540), (960, 540), (960, 540), (960, 540), (960, 539), (960, 537), (960, 536), (959, 535), (959, 534), (959, 534), (959, 533), (958, 532), (958, 532), (958, 531), (958, 531), (958, 531), (958, 530), (957, 530), (957, 530), (957, 528), (957, 528), (957, 528), (957, 528), (957, 528), (957, 528), (957, 528), (957, 528), (957, 528), (957, 527), (957, 527), (957, 527), (957, 527), (957, 527), (957, 525), (958, 524), (959, 523), (961, 523), (969, 521), (972, 520), (978, 517), (983, 515), (996, 508), (1005, 503), (1015, 497), (1026, 489), (1063, 468), (1092, 456), (1119, 443), (1146, 429), (1204, 404), (1233, 390), (1258, 382), (1280, 371), (1327, 351)]",332.7521495393336,"[6, 7, 2, 3, 9, 4, 1, 5, 8]","(0, 0.25)",THI004A,THI,A,English,Tue Aug 07 11:19:52 2018,Mouse
1,2,1,0,67,5,8,0,-570,400,170,137,0,500,200,8000,"[(960, 540), (960, 540), (960, 540), (960, 540), (960, 540), (960, 540), (960, 540), (960, 540), (960, 540), (960, 540), (960, 540), (960, 540), (960, 540), (960, 540), (960, 540), (960, 540), (960, 540), (960, 540), (960, 540), (960, 540), (960, 540), (960, 540), (960, 540), (960, 540), (960, 540), (960, 540), (960, 540), (960, 540), (960, 540), (960, 540), (960, 540), (960, 540), (960, 540), (960, 540), (960, 540), (960, 540), (960, 540), (960, 540), (960, 540), (961, 539), (962, 538), (966, 536), (971, 533), (976, 531), (980, 530), (988, 526), (1007, 516), (1021, 510), (1039, 502), (1065, 492), (1114, 462), (1142, 447), (1166, 434), (1190, 419), (1264, 390), (1315, 372), (1381, 352)]",335.93657163720377,"[6, 7, 2, 3, 9, 4, 1, 5, 8]","(0, 0.25)",THI004A,THI,A,English,Tue Aug 07 11:19:52 2018,Mouse
1,2,1,0,68,4,4,1,520,420,100,138,0,500,200,8000,"[(960, 540), (960, 540), (960, 540), (960, 540), (960, 540), (960, 540), (960, 540), (960, 540), (960, 540), (960, 540), (960, 540), (960, 540), (960, 540), (960, 540), (960, 540), (960, 540), (960, 540), (960, 540), (960, 540), (960, 540), (960, 540), (960, 540), (960, 540), (960, 540), (960, 540), (960, 540), (960, 540), (960, 540), (960, 540), (960, 540), (960, 540), (960, 540), (960, 540), (960, 540), (960, 540), (960, 540), (960, 540), (960, 540), (960, 540), (960, 540), (960, 540), (959, 540), (959, 540), (957, 539), (944, 518), (928, 495), (910, 470), (887, 444), (821, 374), (776, 335), (731, 300), (672, 259)]",224.29516656426887,"[6, 7, 2, 3, 9, 4, 1, 5, 8]","(0, 0.25)",THI004A,THI,A,English,Tue Aug 07 11:19:52 2018,Mouse
1,2,1,0,69,7,7,1,572,132,440,138,0,500,200,8000,"[(960, 540), (960, 540), (960, 540), (960, 540), (960, 540), (960, 540), (960, 540), (960, 540), (960, 540), (960, 540), (960, 540), (960, 540), (960, 540), (959, 540), (958, 541), (956, 542), (956, 548), (956, 553), (958, 559), (963, 566), (975, 589), (983, 600), (990, 613), (996, 624), (1007, 641), (1011, 650), (1014, 656), (1017, 661), (1023, 672), (1026, 680), (1028, 687), (1034, 697), (1044, 720), (1050, 731), (1058, 743), (1063, 754), (1078, 773), (1082, 780), (1087, 786), (1089, 792), (1093, 801), (1094, 805), (1098, 810), (1100, 815), (1104, 825), (1107, 834), (1110, 841), (1114, 849), (1125, 863), (1129, 868), (1133, 874), (1135, 876), (1141, 882), (1142, 884), (1143, 885), (1145, 888), (1147, 892), (1148, 894)]",62.02841541861858,"[6, 7, 2, 3, 9, 4, 1, 5, 8]","(0, 0.25)",THI004A,THI,A,English,Tue Aug 07 11:19:52 2018,Mouse
1,2,1,0,70,5,5,1,691,11,680,137,0,500,200,8000,"[(960, 540), (959, 540), (958, 539), (958, 538), (958, 537), (958, 537), (958, 535), (958, 535), (957, 533), (957, 533), (957, 533), (957, 532), (957, 532), (957, 532), (957, 532), (957, 530), (957, 530), (957, 530), (957, 530), (957, 530), (957, 530), (957, 530), (957, 530), (957, 530), (957, 530), (957, 530), (957, 530), (957, 530), (957, 530), (957, 529), (957, 529), (957, 528), (957, 528), (957, 527), (958, 526), (958, 526), (959, 525), (959, 525), (959, 524), (959, 524), (960, 523), (960, 523), (960, 522), (960, 522), (960, 522), (960, 522), (960, 522), (960, 522), (960, 522), (960, 522), (960, 522), (960, 522), (960, 522), (960, 522), (960, 522), (960, 522), (961, 522), (961, 522), (961, 521), (963, 520), (964, 519), (968, 516), (982, 492), (999, 464), (1019, 434), (1038, 391), (1076, 295), (1096, 247), (1119, 193), (1147, 128)]",294.4125138948694,"[6, 7, 2, 3, 9, 4, 1, 5, 8]","(0, 0.25)",THI004A,THI,A,English,Tue Aug 07 11:19:52 2018,Mouse
1,2,1,0,71,6,1,0,-419,289,130,136,0,500,200,8000,"[(960, 540), (960, 540), (960, 540), (960, 540), (960, 540), (960, 540), (960, 540), (960, 540), (960, 540), (960, 540), (960, 540), (960, 540), (960, 540), (960, 540), (960, 540), (960, 540), (960, 540), (960, 540), (960, 540), (960, 540), (960, 540), (960, 540), (960, 540), (960, 540), (960, 540), (960, 540), (960, 540), (960, 540), (960, 541), (960, 541), (961, 541), (962, 534), (965, 510), (967, 499), (971, 483), (979, 461), (979, 386), (979, 352), (979, 308), (978, 257), (964, 158), (958, 101)]",269.73897319763455,"[6, 7, 2, 3, 9, 4, 1, 5, 8]","(0, 0.25)",THI004A,THI,A,English,Tue Aug 07 11:19:52 2018,Mouse
1,2,1,0,72,8,8,1,430,260,170,137,0,500,200,8000,"[(960, 540), (960, 540), (960, 540), (960, 540), (960, 540), (960, 540), (960, 540), (960, 540), (960, 540), (960, 540), (960, 540), (960, 540), (960, 540), (960, 540), (960, 540), (960, 540), (960, 540), (960, 540), (960, 540), (960, 540), (960, 540), (960, 540), (960, 540), (960, 540), (960, 540), (961, 540), (964, 538), (969, 535), (971, 534), (984, 523), (993, 518), (1003, 512), (1028, 501), (1047, 490), (1068, 481), (1091, 472), (1141, 449), (1169, 439), (1201, 425), (1233, 413), (1296, 396), (1329, 387), (1368, 378)]",338.3440109615775,"[6, 7, 2, 3, 9, 4, 1, 5, 8]","(0, 0.25)",THI004A,THI,A,English,Tue Aug 07 11:19:52 2018,Mouse
1,2,1,0,73,1,1,1,448,138,310,137,0,500,200,8000,"[(960, 540), (960, 540), (960, 540), (960, 540), (960, 540), (960, 540), (960, 540), (960, 540), (960, 540), (960, 540), (960, 540), (960, 540), (960, 540), (958, 540), (958, 540), (958, 540), (958, 540), (958, 540), (958, 540), (958, 540), (958, 540), (958, 540), (958, 540), (958, 540), (958, 540), (957, 540), (957, 535), (957, 524), (957, 498), (957, 482), (957, 465), (957, 443), (956, 400), (950, 378), (942, 357), (937, 335), (921, 297), (912, 276), (903, 255), (891, 236), (877, 203), (872, 192), (867, 177), (865, 168), (862, 147)]",255.9980653779807,"[6, 7, 2, 3, 9, 4, 1, 5, 8]","(0, 0.25)",THI004A,THI,A,English,Tue Aug 07 11:19:52 2018,Mouse
1,2,1,0,74,6,9,0,-7540,1020,6520,136,0,500,200,8000,"[(960, 540), (960, 540), (960, 540), (960, 540), (960, 540), (960, 540), (960, 540), (960, 540), (960, 540), (960, 540), (960, 540), (960, 540), (960, 540), (960, 540), (960, 540), (960, 540), (960, 540), (960, 540), (960, 540), (960, 540), (960, 540), (960, 540), (960, 540), (960, 540), (960, 540), (960, 540), (960, 540), (960, 540), (960, 540), (960, 540), (960, 540), (960, 540), (960, 540), (960, 540), (960, 540), (960, 540), (960, 540), (960, 540), (960, 540), (960, 540), (960, 540), (960, 540), (960, 540), (960, 540), (960, 540), (960, 540), (960, 540), (960, 540), (960, 540), (960, 540), (960, 540), (960, 540), (960, 540), (960, 540), (960, 540), (960, 540), (960, 540), (960, 540), (960, 540), (960, 540), (960, 540), (960, 540), (960, 540), (960, 540), (960, 540), (960, 540), (960, 540), (960, 540), (960, 540), (960, 540), (960, 540), (960, 540), (960, 540), (960, 540), (960, 540), (960, 540), (960, 540), (960, 540), (960, 540), (960, 540), (960, 540), (960, 540), (960, 540), (960, 540), (960, 540), (960, 540), (960, 540), (960, 540), (960, 540), (960, 540), (960, 540), (960, 540), (960, 540), (960, 540), (960, 540), (960, 540), (960, 540), (960, 540), (960, 540), (960, 540), (960, 540), (959, 540), (958, 540), (957, 540), (957, 540), (957, 540), (957, 540), (957, 540), (957, 540), (957, 540), (956, 540), (955, 540), (954, 540), (954, 540), (954, 540), (954, 540), (954, 540), (954, 540), (954, 540), (954, 540), (954, 540), (954, 540), (954, 540), (954, 540), (954, 540), (954, 540), (954, 540), (954, 540), (954, 540), (954, 540), (954, 540), (954, 540), (954, 540), (954, 540), (954, 540), (954, 540), (954, 540), (954, 540), (954, 540), (954, 540), (954, 540), (954, 540), (954, 540), (954, 540), (954, 540), (954, 540), (954, 540), (954, 540), (954, 540), (954, 540), (954, 540), (954, 540), (954, 540), (954, 540), (954, 540), (954, 540), (954, 540), (954, 540), (954, 540), (954, 540), (954, 540), (954, 540), (954, 540), (954, 540), (954, 540), (954, 540), (954, 540), (954, 540), (954, 540), (954, 540), (954, 540), (954, 540), (954, 540), (954, 540), (954, 540), (954, 540), (954, 540), (954, 540), (954, 540), (954, 540), (954, 540), (954, 540), (954, 540), (954, 540), (954, 540), (954, 540), (954, 540), (954, 540), (954, 540), (954, 540), (954, 540), (954, 540), (954, 540), (954, 540), (954, 540), (954, 540), (954, 540), (954, 540), (954, 540), (954, 540), (954, 540), (954, 540), (954, 540), (954, 540), (954, 540), (954, 540), (954, 540), (954, 540), (954, 540), (954, 540), (954, 540), (954, 540), (954, 540), (954, 540), (954, 540), (954, 540), (954, 540), (954, 540), (954, 540), (954, 540), (954, 540), (954, 540), (954, 540), (954, 540), (954, 540), (954, 540), (954, 540), (954, 540), (954, 540), (954, 540), (954, 540), (954, 540), (954, 540), (954, 540), (954, 540), (954, 540), (954, 540), (954, 540), (954, 540), (954, 540), (954, 540), (954, 540), (954, 540), (954, 540), (954, 540), (954, 540), (954, 540), (954, 540), (954, 540), (954, 540), (954, 540), (954, 540), (954, 540), (954, 540), (954, 540), (954, 540), (954, 540), (954, 540), (954, 540), (954, 540), (954, 540), (954, 540), (954, 540), (954, 540), (954, 540), (954, 540), (954, 540), (954, 540), (954, 540), (954, 540), (954, 540), (954, 540), (954, 540), (954, 540), (954, 540), (954, 540), (954, 540), (954, 540), (954, 540), (954, 540), (954, 540), (954, 540), (954, 540), (954, 540), (954, 540), (954, 540), (954, 540), (954, 540), (954, 540), (954, 540), (954, 540), (954, 540), (954, 540), (954, 540), (954, 540), (954, 540), (954, 540), (954, 540), (954, 540), (954, 540), (954, 540), (954, 540), (954, 540), (953, 540), (953, 540), (953, 539), (953, 538), (953, 537), (953, 537), (953, 537), (953, 537), (953, 537), (953, 537), (953, 537), (953, 536), (954, 536), (954, 536), (954, 536), (954, 536), (954, 536), (954, 536), (954, 536), (954, 536), (954, 536), (954, 536), (954, 536), (954, 536), (954, 536), (954, 536), (954, 536), (954, 536), (954, 536), (954, 536), (954, 536), (954, 536), (954, 536), (954, 536), (954, 536), (954, 536), (954, 536), (954, 536), (954, 536), (954, 536), (954, 536), (954, 536), (954, 536), (954, 536), (954, 536), (954, 536), (954, 536), (954, 536), (954, 536), (954, 536), (954, 536), (954, 536), (954, 536), (954, 536), (954, 536), (954, 536), (954, 536), (954, 536), (954, 536), (954, 536), (954, 536), (954, 536), (954, 536), (954, 536), (954, 536), (954, 536), (954, 536), (954, 536), (954, 536), (954, 536), (954, 536), (954, 536), (954, 536), (954, 536), (954, 536), (954, 536), (954, 536), (954, 536), (954, 536), (954, 536), (954, 536), (954, 536), (954, 536), (954, 536), (954, 536), (954, 536), (954, 536), (954, 536), (954, 536), (954, 536), (954, 536), (954, 536), (954, 536), (954, 536), (954, 536), (954, 536), (954, 536), (954, 536), (954, 536), (954, 536), (954, 536), (954, 536), (954, 536), (954, 536), (954, 536), (954, 536), (954, 536), (954, 536), (954, 536), (954, 536), (954, 536), (954, 536), (954, 536), (954, 536), (954, 536), (954, 536), (954, 536), (954, 536), (954, 536), (954, 536), (954, 536), (954, 536), (954, 536), (954, 536), (954, 536), (954, 536), (954, 536), (954, 536), (954, 536), (954, 536), (954, 536), (954, 536), (954, 536), (954, 536), (954, 536), (954, 536), (954, 536), (954, 536), (954, 536), (954, 536), (954, 536), (954, 536), (954, 536), (954, 536), (954, 536), (954, 536), (954, 536), (954, 536), (954, 536), (954, 536), (954, 536), (954, 536), (954, 536), (954, 536), (954, 536), (954, 536), (954, 536), (954, 536), (954, 536), (954, 536), (954, 536), (954, 536), (954, 536), (954, 536), (954, 536), (954, 536), (954, 536), (954, 536), (954, 536), (954, 536), (954, 536), (954, 536), (954, 536), (954, 536), (953, 536), (951, 537), (951, 537), (951, 538), (950, 538), (949, 539), (948, 539), (948, 539), (948, 539), (948, 539), (948, 539), (948, 539), (948, 539), (948, 539), (948, 539), (948, 539), (948, 539), (948, 539), (948, 539), (948, 539), (948, 539), (948, 539), (948, 539), (948, 539), (948, 539), (948, 539), (948, 539), (948, 539), (948, 539), (948, 539), (948, 539), (948, 539), (948, 539), (948, 539), (948, 539), (948, 539), (948, 539), (948, 539), (948, 539), (948, 539), (948, 539), (948, 539), (948, 539), (948, 539), (948, 539), (948, 539), (948, 539), (948, 539), (948, 539), (948, 539), (948, 539), (948, 539), (948, 539), (948, 539), (948, 539), (948, 539), (948, 539), (948, 539), (948, 539), (948, 539), (948, 539), (948, 539), (948, 539), (948, 539), (948, 539), (948, 539), (948, 539), (948, 539), (948, 539), (948, 539), (948, 539), (948, 539), (948, 539), (948, 539), (948, 539), (948, 539), (948, 539), (948, 539), (948, 539), (948, 539), (948, 539), (948, 539), (948, 539), (948, 539), (948, 539), (948, 539), (948, 539), (948, 539), (948, 539), (948, 539), (948, 539), (948, 539), (948, 539), (948, 539), (948, 539), (948, 539), (948, 539), (948, 539), (948, 539), (948, 539), (948, 539), (948, 539), (948, 539), (948, 539), (948, 539), (948, 539), (948, 539), (948, 539), (948, 539), (948, 539), (948, 539), (948, 539), (948, 539), (948, 539), (948, 539), (948, 539), (948, 539), (948, 539), (948, 539), (948, 539), (948, 539), (948, 539), (948, 539), (948, 539), (948, 539), (948, 539), (948, 539), (948, 539), (948, 539), (948, 539), (948, 539), (948, 539), (948, 539), (948, 539), (948, 539), (948, 539), (948, 539), (948, 539), (948, 539), (948, 539), (948, 539), (948, 539), (948, 539), (948, 539), (948, 539), (948, 539), (948, 539), (948, 539), (948, 539), (948, 539), (948, 539), (948, 539), (948, 539), (948, 539), (948, 539), (948, 539), (948, 539), (948, 539), (948, 539), (948, 539), (948, 539), (948, 539), (948, 539), (948, 539), (948, 539), (948, 539), (948, 539), (948, 539), (948, 539), (948, 539), (948, 539), (948, 539), (948, 539), (948, 539), (948, 539), (948, 539), (948, 539), (948, 539), (948, 539), (948, 539), (948, 539), (948, 539), (948, 539), (948, 539), (948, 539), (948, 539), (948, 539), (948, 539), (948, 539), (948, 539), (948, 539), (948, 539), (948, 539), (948, 539), (948, 539), (948, 539), (948, 539), (948, 539), (948, 539), (948, 539), (948, 539), (948, 539), (948, 539), (948, 539), (948, 539), (948, 539), (948, 539), (948, 539), (948, 539), (948, 539), (948, 539), (948, 539), (948, 539), (948, 539), (948, 539), (948, 539), (948, 539), (948, 539), (948, 539), (948, 539), (948, 539), (948, 539), (948, 539), (948, 539), (948, 539), (948, 539), (948, 539), (948, 539), (948, 539), (948, 539), (948, 539), (948, 539), (948, 539), (948, 539), (948, 539), (948, 539), (948, 539), (948, 539), (948, 539), (948, 539), (948, 539), (948, 539), (948, 539), (948, 539), (948, 539), (948, 539), (948, 539), (948, 539), (948, 539), (948, 539), (948, 539), (948, 539), (948, 539), (948, 539), (948, 539), (948, 539), (948, 539), (948, 539), (948, 539), (948, 539), (948, 539), (948, 539), (948, 539), (948, 539), (948, 539), (948, 539), (948, 539), (948, 539), (948, 539), (948, 539), (948, 539), (948, 539), (940, 539), (894, 546), (715, 571), (616, 594), (511, 617)]",170.2688796436012,"[6, 7, 2, 3, 9, 4, 1, 5, 8]","(0, 0.25)",THI004A,THI,A,English,Tue Aug 07 11:19:52 2018,Mouse
1,2,1,0,75,1,1,1,750,490,260,137,0,500,200,8000,"[(960, 540), (960, 540), (960, 540), (960, 540), (960, 540), (960, 540), (960, 540), (960, 540), (960, 540), (960, 540), (960, 540), (960, 540), (960, 540), (960, 540), (960, 540), (960, 540), (960, 540), (960, 540), (960, 540), (960, 540), (960, 540), (960, 540), (960, 540), (960, 540), (960, 540), (960, 540), (960, 540), (960, 540), (960, 540), (960, 540), (960, 540), (960, 540), (960, 540), (960, 540), (960, 540), (960, 540), (960, 540), (960, 540), (960, 540), (960, 540), (960, 540), (960, 540), (960, 540), (960, 540), (960, 540), (960, 540), (960, 540), (960, 540), (960, 539), (960, 539), (960, 539), (960, 539), (960, 539), (960, 539), (960, 539), (960, 539), (960, 539), (960, 539), (960, 538), (960, 537), (960, 533), (960, 528), (960, 518), (958, 506), (955, 475), (950, 451), (947, 427), (941, 400), (926, 347), (918, 319), (912, 291), (902, 268), (873, 199), (865, 166), (859, 144)]",255.69173113617754,"[6, 7, 2, 3, 9, 4, 1, 5, 8]","(0, 0.25)",THI004A,THI,A,English,Tue Aug 07 11:19:52 2018,Mouse
1,2,1,0,76,2,2,1,610,330,280,137,0,500,200,8000,"[(960, 540), (960, 540), (960, 540), (960, 540), (960, 540), (960, 540), (960, 540), (960, 540), (960, 540), (960, 540), (960, 540), (960, 540), (960, 540), (960, 540), (960, 540), (960, 540), (960, 540), (960, 540), (960, 540), (960, 540), (960, 540), (960, 540), (960, 540), (960, 540), (960, 540), (960, 540), (960, 540), (960, 540), (960, 540), (960, 540), (960, 540), (960, 540), (959, 541), (958, 542), (956, 544), (952, 558), (952, 565), (952, 576), (952, 589), (952, 614), (952, 625), (952, 637), (952, 648), (952, 670), (952, 680), (952, 694), (952, 709), (952, 747), (952, 764), (952, 784), (952, 806), (952, 840), (952, 851), (952, 860), (951, 869), (950, 877), (948, 892), (947, 902), (945, 914), (940, 937), (936, 948)]",93.3664606634298,"[6, 7, 2, 3, 9, 4, 1, 5, 8]","(0, 0.25)",THI004A,THI,A,English,Tue Aug 07 11:19:52 2018,Mouse
1,2,1,0,77,6,1,0,-430,130,300,136,0,500,200,8000,"[(960, 540), (960, 540), (960, 540), (960, 540), (960, 540), (960, 540), (960, 540), (960, 540), (960, 540), (960, 540), (960, 540), (960, 540), (963, 537), (975, 532), (981, 529), (983, 528), (986, 528), (990, 527), (992, 525), (994, 524), (996, 524), (998, 522), (998, 522), (998, 521), (998, 521), (999, 519), (999, 517), (999, 513), (999, 506), (999, 490), (999, 478), (996, 466), (991, 454), (983, 419), (977, 397), (973, 383), (968, 361), (953, 313), (940, 276), (927, 237), (913, 208), (899, 152), (896, 129)]",261.1491115160844,"[6, 7, 2, 3, 9, 4, 1, 5, 8]","(0, 0.25)",THI004A,THI,A,English,Tue Aug 07 11:19:52 2018,Mouse
1,2,1,0,78,7,7,1,419,359,60,137,0,500,200,8000,"[(960, 540), (960, 540), (960, 540), (960, 540), (960, 540), (960, 540), (960, 540), (960, 540), (960, 540), (960, 540), (960, 540), (960, 540), (960, 540), (960, 540), (960, 540), (960, 540), (960, 540), (960, 540), (960, 540), (960, 540), (960, 540), (960, 540), (960, 540), (960, 540), (960, 540), (960, 540), (960, 540), (960, 540), (960, 540), (960, 540), (960, 540), (960, 540), (960, 540), (960, 540), (960, 540), (961, 547), (972, 566), (1008, 619), (1028, 655), (1054, 696), (1089, 746), (1214, 887)]",53.79630232433912,"[6, 7, 2, 3, 9, 4, 1, 5, 8]","(0, 0.25)",THI004A,THI,A,English,Tue Aug 07 11:19:52 2018,Mouse
1,2,1,0,79,2,4,0,-862,792,70,137,0,500,200,8000,"[(960, 540), (960, 540), (960, 540), (960, 540), (960, 540), (960, 540), (960, 540), (960, 540), (960, 540), (960, 540), (960, 540), (960, 540), (960, 540), (960, 540), (960, 540), (960, 540), (960, 540), (960, 540), (960, 540), (960, 540), (960, 540), (960, 540), (960, 540), (960, 540), (960, 540), (960, 540), (960, 540), (960, 540), (960, 540), (960, 540), (960, 540), (960, 540), (960, 540), (960, 540), (960, 540), (960, 540), (960, 540), (960, 540), (960, 540), (960, 540), (960, 540), (960, 540), (960, 540), (960, 540), (960, 540), (960, 540), (960, 540), (960, 540), (960, 540), (960, 540), (960, 540), (960, 540), (960, 540), (960, 540), (960, 540), (960, 540), (960, 540), (960, 540), (960, 540), (960, 540), (960, 540), (960, 540), (960, 540), (960, 540), (960, 540), (960, 540), (960, 540), (960, 540), (960, 540), (960, 540), (960, 540), (960, 540), (960, 540), (960, 540), (960, 540), (960, 540), (960, 540), (960, 540), (960, 540), (959, 538), (950, 535), (931, 526), (899, 510), (774, 443), (700, 409), (625, 381), (551, 340)]",206.05852015411,"[6, 7, 2, 3, 9, 4, 1, 5, 8]","(0, 0.25)",THI004A,THI,A,English,Tue Aug 07 11:19:52 2018,Mouse
1,2,1,0,80,1,1,1,421,311,110,138,0,500,200,8000,"[(960, 540), (960, 540), (960, 540), (960, 540), (960, 540), (960, 540), (960, 540), (960, 540), (960, 540), (960, 540), (960, 540), (960, 540), (960, 540), (960, 540), (960, 540), (960, 540), (960, 540), (960, 540), (960, 540), (960, 540), (960, 540), (960, 540), (960, 540), (960, 540), (960, 540), (960, 540), (960, 540), (960, 540), (960, 540), (960, 540), (960, 540), (958, 540), (953, 530), (949, 521), (946, 512), (940, 499), (916, 442), (896, 396), (878, 348), (858, 303), (829, 216), (818, 172), (808, 128)]",249.74936649071753,"[6, 7, 2, 3, 9, 4, 1, 5, 8]","(0, 0.25)",THI004A,THI,A,English,Tue Aug 07 11:19:52 2018,Mouse
