NativeLangNumber,LanuageNumber,SessionNumber,Block,TrialNum,ConditionNumber,Response,Accuracy,RT,MovementOnsetTime,TimeInMotion,SignalContrast,SignalContrastNumber,StimDisplayTime,MaskTime,MaxResponseTime,MousePositionXY,MouseAngle,WheelOrder,NoiseMuSigma,ParticipantID,LanuageTested,SessionTested,NativeLanuage,Date,ResponseDevice
1,2,2,0,1,3,3,1,2615,315,2300,153,0,500,200,8000,"[(960, 540), (960, 540), (960, 540), (960, 540), (960, 540), (960, 540), (960, 540), (960, 540), (960, 540), (960, 540), (960, 540), (960, 540), (960, 540), (960, 540), (960, 540), (960, 540), (960, 540), (960, 540), (960, 540), (960, 540), (960, 540), (960, 540), (960, 540), (960, 540), (960, 540), (960, 540), (960, 540), (960, 540), (960, 540), (960, 540), (960, 540), (956, 542), (953, 550), (952, 556), (951, 561), (951, 563), (951, 563), (951, 563), (951, 563), (951, 563), (951, 563), (951, 563), (951, 563), (951, 563), (951, 563), (951, 563), (951, 563), (951, 563), (951, 563), (951, 563), (951, 563), (951, 563), (951, 563), (951, 563), (951, 563), (951, 563), (951, 563), (951, 563), (951, 563), (951, 563), (951, 563), (951, 563), (951, 563), (951, 563), (951, 563), (951, 563), (951, 563), (951, 563), (951, 563), (951, 563), (951, 563), (951, 563), (951, 563), (951, 563), (951, 563), (951, 563), (951, 563), (951, 563), (951, 563), (951, 563), (951, 563), (951, 563), (951, 563), (951, 563), (951, 563), (951, 563), (951, 563), (951, 563), (951, 563), (951, 563), (951, 563), (951, 563), (951, 563), (951, 563), (951, 563), (951, 563), (951, 563), (951, 563), (951, 563), (951, 563), (951, 563), (951, 563), (951, 563), (951, 563), (951, 563), (951, 563), (951, 563), (951, 563), (951, 563), (951, 563), (951, 563), (951, 563), (951, 563), (951, 563), (951, 563), (951, 563), (951, 563), (951, 563), (951, 563), (951, 563), (951, 563), (951, 563), (951, 563), (951, 563), (951, 563), (951, 563), (951, 563), (951, 563), (951, 563), (951, 563), (951, 563), (951, 563), (951, 563), (951, 563), (951, 563), (951, 563), (951, 563), (951, 563), (951, 563), (951, 563), (951, 563), (951, 563), (951, 563), (951, 563), (951, 563), (951, 563), (951, 563), (951, 563), (951, 563), (951, 563), (951, 563), (951, 563), (951, 563), (951, 563), (951, 563), (951, 563), (951, 563), (951, 563), (951, 563), (951, 563), (951, 563), (951, 563), (951, 563), (951, 563), (951, 563), (951, 563), (951, 563), (951, 563), (951, 563), (951, 563), (951, 563), (951, 563), (951, 563), (951, 563), (951, 563), (951, 563), (951, 563), (951, 563), (951, 563), (951, 563), (951, 563), (951, 563), (951, 563), (951, 563), (951, 563), (951, 563), (951, 563), (951, 563), (951, 563), (951, 563), (951, 563), (951, 563), (951, 563), (951, 563), (951, 563), (951, 563), (951, 563), (951, 563), (951, 563), (951, 563), (951, 563), (951, 563), (951, 563), (951, 563), (951, 563), (951, 563), (951, 563), (951, 563), (951, 563), (951, 563), (951, 563), (951, 563), (951, 563), (951, 563), (951, 563), (951, 563), (951, 563), (951, 563), (951, 563), (951, 563), (951, 563), (951, 563), (951, 563), (951, 563), (951, 563), (951, 563), (951, 563), (951, 563), (951, 563), (951, 563), (951, 564), (951, 564), (951, 564), (951, 564), (951, 564), (951, 564), (951, 564), (951, 564), (951, 564), (949, 565), (945, 569), (936, 576), (924, 584), (895, 608), (880, 620), (865, 632), (850, 644), (833, 659), (827, 664), (820, 669), (812, 675), (797, 687), (788, 696), (778, 706), (767, 718), (731, 748), (719, 759), (703, 773), (691, 783), (673, 799), (664, 808), (655, 817)]",137.75437423060734,"[4, 9, 7, 3, 8, 2, 1, 5, 6]","(0, 0.25)",THI001B,THI,B,English,Wed Aug 15 12:45:09 2018,Mouse
1,2,2,0,2,2,2,1,1580,1210,370,153,0,500,200,8000,"[(960, 540), (960, 540), (960, 540), (960, 540), (960, 540), (960, 540), (960, 540), (960, 540), (960, 540), (960, 540), (960, 540), (960, 540), (960, 540), (960, 540), (960, 540), (960, 540), (960, 540), (960, 540), (960, 540), (960, 540), (960, 540), (960, 540), (960, 540), (960, 540), (960, 540), (960, 540), (960, 540), (960, 540), (960, 540), (960, 540), (960, 540), (960, 540), (960, 540), (960, 540), (960, 540), (960, 540), (960, 540), (960, 540), (960, 540), (960, 540), (960, 540), (960, 540), (960, 540), (960, 540), (960, 540), (960, 540), (960, 540), (960, 540), (960, 540), (960, 540), (960, 540), (960, 540), (960, 540), (960, 540), (960, 540), (960, 540), (960, 540), (960, 540), (960, 540), (960, 540), (960, 540), (960, 540), (960, 540), (960, 540), (960, 540), (960, 540), (960, 540), (960, 540), (960, 540), (960, 540), (960, 540), (960, 540), (960, 540), (960, 540), (960, 540), (960, 540), (960, 540), (960, 540), (960, 540), (960, 540), (960, 540), (960, 540), (960, 540), (960, 540), (960, 540), (960, 540), (960, 540), (960, 540), (960, 540), (960, 540), (960, 540), (960, 540), (960, 540), (960, 540), (960, 540), (960, 540), (960, 540), (960, 540), (960, 540), (960, 540), (960, 540), (960, 540), (960, 540), (960, 540), (960, 540), (960, 540), (960, 540), (960, 540), (960, 540), (960, 540), (960, 540), (960, 540), (960, 540), (960, 540), (960, 540), (960, 540), (960, 540), (960, 540), (960, 540), (960, 540), (957, 539), (952, 539), (948, 538), (940, 535), (928, 525), (923, 521), (918, 515), (913, 506), (904, 480), (896, 464), (886, 448), (878, 434), (857, 411), (848, 402), (838, 392), (828, 384), (808, 368), (800, 363), (792, 358), (785, 353), (778, 347), (774, 343), (767, 338), (762, 334), (749, 323), (740, 319), (730, 316), (723, 311), (704, 302), (695, 300), (690, 299), (684, 296), (673, 292), (672, 292), (669, 291), (665, 288), (657, 283), (651, 280)]",220.07806006282027,"[4, 9, 7, 3, 8, 2, 1, 5, 6]","(0, 0.25)",THI001B,THI,B,English,Wed Aug 15 12:45:09 2018,Mouse
1,2,2,0,3,6,6,1,651,371,280,152,0,500,200,8000,"[(960, 540), (960, 540), (960, 540), (960, 540), (960, 540), (960, 540), (960, 540), (960, 540), (960, 540), (960, 540), (960, 540), (960, 540), (960, 540), (960, 540), (960, 540), (960, 540), (960, 540), (960, 540), (960, 540), (960, 540), (960, 540), (960, 540), (960, 540), (960, 540), (960, 540), (960, 540), (960, 540), (960, 540), (960, 540), (960, 540), (960, 540), (960, 540), (960, 540), (960, 540), (960, 540), (960, 540), (960, 540), (961, 540), (975, 536), (985, 533), (998, 530), (1009, 526), (1031, 524), (1043, 522), (1057, 520), (1070, 519), (1098, 514), (1112, 513), (1128, 508), (1150, 503), (1191, 492), (1209, 485), (1224, 479), (1236, 473), (1256, 458), (1262, 453), (1267, 448), (1272, 442), (1284, 425), (1291, 418), (1295, 410), (1302, 403), (1313, 392), (1318, 389), (1324, 384), (1329, 383)]",336.95149631925744,"[4, 9, 7, 3, 8, 2, 1, 5, 6]","(0, 0.25)",THI001B,THI,B,English,Wed Aug 15 12:45:09 2018,Mouse
1,2,2,0,4,6,6,1,450,220,230,151,0,500,200,8000,"[(960, 540), (960, 540), (960, 540), (960, 540), (960, 540), (960, 540), (960, 540), (960, 540), (960, 540), (960, 540), (960, 540), (960, 540), (960, 540), (960, 540), (960, 540), (960, 540), (960, 540), (960, 540), (960, 540), (960, 540), (960, 540), (962, 539), (969, 537), (988, 532), (997, 527), (1007, 523), (1020, 517), (1040, 512), (1052, 509), (1065, 505), (1078, 501), (1111, 491), (1123, 487), (1141, 482), (1158, 478), (1194, 467), (1213, 464), (1227, 460), (1246, 455), (1277, 447), (1294, 442), (1308, 437), (1321, 433), (1342, 423), (1350, 419)]",342.7631616010914,"[4, 9, 7, 3, 8, 2, 1, 5, 6]","(0, 0.25)",THI001B,THI,B,English,Wed Aug 15 12:45:09 2018,Mouse
1,2,2,0,5,9,9,1,1780,1460,320,150,0,500,200,8000,"[(960, 540), (960, 540), (960, 540), (960, 540), (960, 540), (960, 540), (960, 540), (960, 540), (960, 540), (960, 540), (960, 540), (960, 540), (960, 540), (960, 540), (960, 540), (960, 540), (960, 540), (960, 540), (960, 540), (960, 540), (960, 540), (960, 540), (960, 540), (960, 540), (960, 540), (960, 540), (960, 540), (960, 540), (960, 540), (960, 540), (960, 540), (960, 540), (960, 540), (960, 540), (960, 540), (960, 540), (960, 540), (960, 540), (960, 540), (960, 540), (960, 540), (960, 540), (960, 540), (960, 540), (960, 540), (960, 540), (960, 540), (960, 540), (960, 540), (960, 540), (960, 540), (960, 540), (960, 540), (960, 540), (960, 540), (960, 540), (960, 540), (960, 540), (960, 540), (960, 540), (960, 540), (960, 540), (960, 540), (960, 540), (960, 540), (960, 540), (960, 540), (960, 540), (960, 540), (960, 540), (960, 540), (960, 540), (960, 540), (960, 540), (960, 540), (960, 540), (960, 540), (960, 540), (960, 540), (960, 540), (960, 540), (960, 540), (960, 540), (960, 540), (960, 540), (960, 540), (960, 540), (960, 540), (960, 540), (960, 540), (960, 540), (960, 540), (960, 540), (960, 540), (960, 540), (960, 540), (960, 540), (960, 540), (960, 540), (960, 540), (960, 540), (960, 540), (960, 540), (960, 540), (960, 540), (960, 540), (960, 540), (960, 540), (960, 540), (960, 540), (960, 540), (960, 540), (960, 540), (960, 540), (960, 540), (960, 540), (960, 540), (960, 540), (960, 540), (960, 540), (960, 540), (960, 540), (960, 540), (960, 540), (960, 540), (960, 540), (960, 540), (960, 540), (960, 540), (960, 540), (960, 540), (960, 540), (960, 540), (960, 540), (960, 540), (960, 540), (960, 540), (960, 540), (960, 540), (960, 540), (960, 540), (960, 540), (960, 540), (960, 540), (960, 540), (961, 540), (961, 540), (962, 540), (963, 540), (965, 541), (966, 542), (968, 545), (972, 546), (984, 557), (992, 562), (998, 568), (1008, 576), (1029, 593), (1038, 604), (1047, 616), (1055, 631), (1067, 659), (1074, 676), (1080, 691), (1085, 706), (1093, 731), (1097, 742), (1102, 751), (1105, 758), (1110, 775), (1114, 785), (1119, 801), (1122, 814), (1131, 844), (1134, 861), (1139, 874), (1145, 892), (1159, 925)]",62.66632090628684,"[4, 9, 7, 3, 8, 2, 1, 5, 6]","(0, 0.25)",THI001B,THI,B,English,Wed Aug 15 12:45:09 2018,Mouse
1,2,2,0,6,2,2,1,2170,2010,160,149,0,500,200,8000,"[(960, 540), (960, 540), (960, 540), (960, 540), (960, 540), (960, 540), (960, 540), (960, 540), (960, 540), (960, 540), (960, 540), (960, 540), (960, 540), (960, 540), (960, 540), (960, 540), (960, 540), (960, 540), (960, 540), (960, 540), (960, 540), (960, 540), (960, 540), (960, 540), (960, 540), (960, 540), (960, 540), (960, 540), (960, 540), (960, 540), (960, 540), (960, 540), (960, 540), (960, 540), (960, 540), (960, 540), (960, 540), (960, 540), (960, 540), (960, 540), (960, 540), (960, 540), (960, 540), (960, 540), (960, 540), (960, 540), (960, 540), (960, 540), (960, 540), (960, 540), (960, 540), (960, 540), (960, 540), (960, 540), (960, 540), (960, 540), (960, 540), (960, 540), (960, 540), (960, 540), (960, 540), (960, 540), (960, 540), (960, 540), (960, 540), (960, 540), (960, 540), (960, 540), (960, 540), (960, 540), (960, 540), (960, 540), (960, 540), (960, 540), (960, 540), (960, 540), (960, 540), (960, 540), (960, 540), (960, 540), (960, 540), (960, 540), (960, 540), (960, 540), (960, 540), (960, 540), (960, 540), (960, 540), (960, 540), (960, 540), (960, 540), (960, 540), (960, 540), (960, 540), (960, 540), (960, 540), (960, 540), (960, 540), (960, 540), (960, 540), (960, 540), (960, 540), (960, 540), (960, 540), (960, 540), (960, 540), (960, 540), (960, 540), (960, 540), (960, 540), (960, 540), (960, 540), (960, 540), (960, 540), (960, 540), (960, 540), (960, 540), (960, 540), (960, 540), (960, 540), (960, 540), (960, 540), (960, 540), (960, 540), (960, 540), (960, 540), (960, 540), (960, 540), (960, 540), (960, 540), (960, 540), (960, 540), (960, 540), (960, 540), (960, 540), (960, 540), (960, 540), (960, 540), (960, 540), (960, 540), (960, 540), (960, 540), (960, 540), (960, 540), (960, 540), (960, 540), (960, 540), (960, 540), (960, 540), (960, 540), (960, 540), (960, 540), (960, 540), (960, 540), (960, 540), (960, 540), (960, 540), (960, 540), (960, 540), (960, 540), (960, 540), (960, 540), (960, 540), (960, 540), (960, 540), (960, 540), (960, 540), (960, 540), (960, 540), (960, 540), (960, 540), (960, 540), (960, 540), (960, 540), (960, 540), (960, 540), (960, 540), (960, 540), (960, 540), (960, 540), (960, 540), (960, 540), (960, 540), (960, 540), (960, 540), (960, 540), (960, 540), (960, 540), (960, 540), (960, 540), (960, 540), (960, 540), (960, 540), (960, 540), (960, 540), (960, 540), (960, 540), (960, 540), (960, 540), (960, 540), (960, 539), (957, 536), (946, 525), (935, 513), (926, 499), (909, 478), (869, 432), (846, 403), (821, 376), (798, 350), (758, 308), (740, 293), (725, 283), (711, 272), (692, 256), (684, 251), (677, 246)]",226.0921615909713,"[4, 9, 7, 3, 8, 2, 1, 5, 6]","(0, 0.25)",THI001B,THI,B,English,Wed Aug 15 12:45:09 2018,Mouse
1,2,2,0,7,7,7,1,1930,1100,830,148,0,500,200,8000,"[(960, 540), (960, 540), (960, 540), (960, 540), (960, 540), (960, 540), (960, 540), (960, 540), (960, 540), (960, 540), (960, 540), (960, 540), (960, 540), (960, 540), (960, 540), (960, 540), (960, 540), (960, 540), (960, 540), (960, 540), (960, 540), (960, 540), (960, 540), (960, 540), (960, 540), (960, 540), (960, 540), (960, 540), (960, 540), (960, 540), (960, 540), (960, 540), (960, 540), (960, 540), (960, 540), (960, 540), (960, 540), (960, 540), (960, 540), (960, 540), (960, 540), (960, 540), (960, 540), (960, 540), (960, 540), (960, 540), (960, 540), (960, 540), (960, 540), (960, 540), (960, 540), (960, 540), (960, 540), (960, 540), (960, 540), (960, 540), (960, 540), (960, 540), (960, 540), (960, 540), (960, 540), (960, 540), (960, 540), (960, 540), (960, 540), (960, 540), (960, 540), (960, 540), (960, 540), (960, 540), (960, 540), (960, 540), (960, 540), (960, 540), (960, 540), (960, 540), (960, 540), (960, 540), (960, 540), (960, 540), (960, 540), (960, 540), (960, 540), (960, 540), (960, 540), (960, 540), (960, 540), (960, 540), (960, 540), (960, 540), (960, 540), (960, 540), (960, 540), (960, 540), (960, 540), (960, 540), (960, 540), (960, 540), (960, 540), (960, 540), (960, 540), (960, 540), (960, 540), (960, 540), (960, 540), (960, 540), (960, 540), (960, 540), (960, 540), (960, 541), (958, 544), (954, 548), (951, 552), (948, 554), (948, 554), (947, 555), (947, 555), (947, 555), (947, 555), (947, 555), (947, 555), (947, 555), (947, 555), (947, 555), (947, 555), (947, 555), (947, 555), (947, 555), (947, 555), (947, 555), (947, 555), (947, 555), (947, 555), (947, 555), (947, 555), (946, 556), (946, 562), (945, 563), (944, 565), (944, 567), (944, 569), (944, 569), (944, 569), (944, 570), (944, 571), (944, 572), (944, 573), (944, 575), (944, 580), (943, 583), (941, 586), (941, 587), (941, 591), (941, 592), (941, 593), (941, 593), (941, 595), (941, 596), (941, 596), (941, 598), (940, 603), (940, 606), (939, 609), (939, 611), (936, 615), (936, 617), (936, 619), (936, 619), (935, 623), (932, 626), (932, 630), (930, 636), (927, 647), (925, 653), (923, 657), (922, 663), (919, 672), (917, 679), (916, 685), (913, 694), (908, 713), (905, 727), (902, 741), (899, 756), (891, 787), (887, 800), (882, 816), (878, 830), (872, 859), (867, 872), (864, 888), (860, 901), (852, 929)]",105.51651410214046,"[4, 9, 7, 3, 8, 2, 1, 5, 6]","(0, 0.25)",THI001B,THI,B,English,Wed Aug 15 12:45:09 2018,Mouse
1,2,2,0,8,9,9,1,1480,1180,300,147,0,500,200,8000,"[(960, 540), (960, 540), (960, 540), (960, 540), (960, 540), (960, 540), (960, 540), (960, 540), (960, 540), (960, 540), (960, 540), (960, 540), (960, 540), (960, 540), (960, 540), (960, 540), (960, 540), (960, 540), (960, 540), (960, 540), (960, 540), (960, 540), (960, 540), (960, 540), (960, 540), (960, 540), (960, 540), (960, 540), (960, 540), (960, 540), (960, 540), (960, 540), (960, 540), (960, 540), (960, 540), (960, 540), (960, 540), (960, 540), (960, 540), (960, 540), (960, 540), (960, 540), (960, 540), (960, 540), (960, 540), (960, 540), (960, 540), (960, 540), (960, 540), (960, 540), (960, 540), (960, 540), (960, 540), (960, 540), (960, 540), (960, 540), (960, 540), (960, 540), (960, 540), (960, 540), (960, 540), (960, 540), (960, 540), (960, 540), (960, 540), (960, 540), (960, 540), (960, 540), (960, 540), (960, 540), (960, 540), (960, 540), (960, 540), (960, 540), (960, 540), (960, 540), (960, 540), (960, 540), (960, 540), (960, 540), (960, 540), (960, 540), (960, 540), (960, 540), (960, 540), (960, 540), (960, 540), (960, 540), (960, 540), (960, 540), (960, 540), (960, 540), (960, 540), (960, 540), (960, 540), (960, 540), (960, 540), (960, 540), (960, 540), (960, 540), (960, 540), (960, 540), (960, 540), (960, 540), (960, 540), (960, 540), (960, 540), (960, 540), (960, 540), (960, 540), (960, 540), (960, 540), (960, 540), (960, 540), (960, 540), (960, 540), (960, 540), (961, 539), (980, 546), (1000, 555), (1027, 567), (1050, 576), (1076, 588), (1084, 595), (1091, 604), (1094, 611), (1102, 632), (1105, 643), (1107, 652), (1108, 660), (1112, 676), (1117, 686), (1118, 697), (1119, 706), (1122, 727), (1122, 739), (1123, 752), (1124, 763), (1128, 782), (1130, 793), (1134, 802), (1135, 810), (1140, 834), (1142, 846), (1145, 857), (1150, 867), (1157, 885), (1161, 892)]",60.27265107078262,"[4, 9, 7, 3, 8, 2, 1, 5, 6]","(0, 0.25)",THI001B,THI,B,English,Wed Aug 15 12:45:09 2018,Mouse
1,2,2,0,9,6,6,1,469,319,150,146,0,500,200,8000,"[(960, 540), (960, 540), (960, 540), (960, 540), (960, 540), (960, 540), (960, 540), (960, 540), (960, 540), (960, 540), (960, 540), (960, 540), (960, 540), (960, 540), (960, 540), (960, 540), (960, 540), (960, 540), (960, 540), (960, 540), (960, 540), (960, 540), (960, 540), (960, 540), (960, 540), (960, 540), (960, 540), (960, 540), (960, 540), (960, 540), (960, 540), (964, 534), (980, 522), (1032, 492), (1056, 477), (1085, 465), (1116, 455), (1169, 441), (1194, 434), (1218, 431), (1242, 427), (1284, 421), (1297, 420), (1310, 419), (1320, 417), (1336, 414), (1345, 412)]",341.6097088293856,"[4, 9, 7, 3, 8, 2, 1, 5, 6]","(0, 0.25)",THI001B,THI,B,English,Wed Aug 15 12:45:09 2018,Mouse
1,2,2,0,10,6,6,1,420,240,180,145,0,500,200,8000,"[(960, 540), (960, 540), (960, 540), (960, 540), (960, 540), (960, 540), (960, 540), (960, 540), (960, 540), (960, 540), (960, 540), (960, 540), (960, 540), (960, 540), (960, 540), (960, 540), (960, 540), (960, 540), (960, 540), (960, 540), (960, 540), (960, 540), (960, 540), (961, 541), (966, 537), (980, 529), (991, 523), (1003, 517), (1017, 511), (1067, 489), (1096, 479), (1124, 467), (1146, 462), (1193, 450), (1210, 445), (1235, 437), (1254, 433), (1297, 420), (1309, 417), (1325, 413), (1336, 410), (1361, 404)]",341.2655240650995,"[4, 9, 7, 3, 8, 2, 1, 5, 6]","(0, 0.25)",THI001B,THI,B,English,Wed Aug 15 12:45:09 2018,Mouse
1,2,2,0,11,9,9,1,1519,1349,170,144,0,500,200,8000,"[(960, 540), (960, 540), (960, 540), (960, 540), (960, 540), (960, 540), (960, 540), (960, 540), (960, 540), (960, 540), (960, 540), (960, 540), (960, 540), (960, 540), (960, 540), (960, 540), (960, 540), (960, 540), (960, 540), (960, 540), (960, 540), (960, 540), (960, 540), (960, 540), (960, 540), (960, 540), (960, 540), (960, 540), (960, 540), (960, 540), (960, 540), (960, 540), (960, 540), (960, 540), (960, 540), (960, 540), (960, 540), (960, 540), (960, 540), (960, 540), (960, 540), (960, 540), (960, 540), (960, 540), (960, 540), (960, 540), (960, 540), (960, 540), (960, 540), (960, 540), (960, 540), (960, 540), (960, 540), (960, 540), (960, 540), (960, 540), (960, 540), (960, 540), (960, 540), (960, 540), (960, 540), (960, 540), (960, 540), (960, 540), (960, 540), (960, 540), (960, 540), (960, 540), (960, 540), (960, 540), (960, 540), (960, 540), (960, 540), (960, 540), (960, 540), (960, 540), (960, 540), (960, 540), (960, 540), (960, 540), (960, 540), (960, 540), (960, 540), (960, 540), (960, 540), (960, 540), (960, 540), (960, 540), (960, 540), (960, 540), (960, 540), (960, 540), (960, 540), (960, 540), (960, 540), (960, 540), (960, 540), (960, 540), (960, 540), (960, 540), (960, 540), (960, 540), (960, 540), (960, 540), (960, 540), (960, 540), (960, 540), (960, 540), (960, 540), (960, 540), (960, 540), (960, 540), (960, 540), (960, 540), (960, 540), (960, 540), (960, 540), (960, 540), (960, 540), (960, 540), (960, 540), (960, 540), (960, 540), (960, 540), (960, 540), (960, 540), (960, 540), (960, 540), (960, 540), (960, 540), (960, 540), (960, 540), (960, 540), (960, 540), (963, 541), (965, 547), (968, 556), (971, 564), (977, 589), (981, 603), (987, 619), (993, 635), (1010, 671), (1019, 689), (1027, 707), (1037, 726), (1058, 769), (1067, 789), (1077, 813), (1088, 841), (1107, 888), (1117, 914)]",67.22801310461065,"[4, 9, 7, 3, 8, 2, 1, 5, 6]","(0, 0.25)",THI001B,THI,B,English,Wed Aug 15 12:45:09 2018,Mouse
1,2,2,0,12,7,7,1,381,221,160,143,0,500,200,8000,"[(960, 540), (960, 540), (960, 540), (960, 540), (960, 540), (960, 540), (960, 540), (960, 540), (960, 540), (960, 540), (960, 540), (960, 540), (960, 540), (960, 540), (960, 540), (960, 540), (960, 540), (960, 540), (960, 540), (960, 540), (960, 540), (960, 540), (959, 553), (958, 564), (956, 578), (952, 596), (948, 635), (944, 656), (942, 677), (938, 698), (934, 742), (930, 761), (927, 782), (920, 810), (904, 863), (897, 886), (889, 908), (884, 925), (878, 949)]",101.33686983899041,"[4, 9, 7, 3, 8, 2, 1, 5, 6]","(0, 0.25)",THI001B,THI,B,English,Wed Aug 15 12:45:09 2018,Mouse
1,2,2,0,13,6,6,1,1750,1580,170,142,0,500,200,8000,"[(960, 540), (960, 540), (960, 540), (960, 540), (960, 540), (960, 540), (960, 540), (960, 540), (960, 540), (960, 540), (960, 540), (960, 540), (960, 540), (960, 540), (960, 540), (960, 540), (960, 540), (960, 540), (960, 540), (960, 540), (960, 540), (960, 540), (960, 540), (960, 540), (960, 540), (960, 540), (960, 540), (960, 540), (960, 540), (960, 540), (960, 540), (960, 540), (960, 540), (960, 540), (960, 540), (960, 540), (960, 540), (960, 540), (960, 540), (960, 540), (960, 540), (960, 540), (960, 540), (960, 540), (960, 540), (960, 540), (960, 540), (960, 540), (960, 540), (960, 540), (960, 540), (960, 540), (960, 540), (960, 540), (960, 540), (960, 540), (960, 540), (960, 540), (960, 540), (960, 540), (960, 540), (960, 540), (960, 540), (960, 540), (960, 540), (960, 540), (960, 540), (960, 540), (960, 540), (960, 540), (960, 540), (960, 540), (960, 540), (960, 540), (960, 540), (960, 540), (960, 540), (960, 540), (960, 540), (960, 540), (960, 540), (960, 540), (960, 540), (960, 540), (960, 540), (960, 540), (960, 540), (960, 540), (960, 540), (960, 540), (960, 540), (960, 540), (960, 540), (960, 540), (960, 540), (960, 540), (960, 540), (960, 540), (960, 540), (960, 540), (960, 540), (960, 540), (960, 540), (960, 540), (960, 540), (960, 540), (960, 540), (960, 540), (960, 540), (960, 540), (960, 540), (960, 540), (960, 540), (960, 540), (960, 540), (960, 540), (960, 540), (960, 540), (960, 540), (960, 540), (960, 540), (960, 540), (960, 540), (960, 540), (960, 540), (960, 540), (960, 540), (960, 540), (960, 540), (960, 540), (960, 540), (960, 540), (960, 540), (960, 540), (960, 540), (960, 540), (960, 540), (960, 540), (960, 540), (960, 540), (960, 540), (960, 540), (960, 540), (960, 540), (960, 540), (960, 540), (960, 540), (960, 540), (960, 540), (960, 540), (960, 540), (960, 540), (960, 540), (960, 540), (960, 540), (960, 540), (960, 540), (960, 539), (969, 535), (979, 530), (990, 528), (1001, 524), (1031, 516), (1055, 503), (1074, 495), (1102, 485), (1158, 460), (1181, 450), (1202, 440), (1226, 429), (1268, 408), (1287, 398), (1304, 386), (1321, 373), (1346, 355)]",334.39278275278804,"[4, 9, 7, 3, 8, 2, 1, 5, 6]","(0, 0.25)",THI001B,THI,B,English,Wed Aug 15 12:45:09 2018,Mouse
1,2,2,0,14,2,2,1,830,600,230,141,0,500,200,8000,"[(960, 540), (960, 540), (960, 540), (960, 540), (960, 540), (960, 540), (960, 540), (960, 540), (960, 540), (960, 540), (960, 540), (960, 540), (960, 540), (960, 540), (960, 540), (960, 540), (960, 540), (960, 540), (960, 540), (960, 540), (960, 540), (960, 540), (960, 540), (960, 540), (960, 540), (960, 540), (960, 540), (960, 540), (960, 540), (960, 540), (960, 540), (960, 540), (960, 540), (960, 540), (960, 540), (960, 540), (960, 540), (960, 540), (960, 540), (960, 540), (960, 540), (960, 540), (960, 540), (960, 540), (960, 540), (960, 540), (960, 540), (960, 540), (960, 540), (960, 540), (960, 540), (960, 540), (960, 540), (960, 540), (960, 540), (960, 540), (960, 540), (960, 540), (960, 540), (955, 539), (946, 531), (937, 527), (904, 504), (893, 496), (877, 484), (860, 471), (821, 437), (806, 423), (791, 412), (776, 400), (753, 383), (743, 377), (733, 369), (725, 364), (711, 352), (706, 347), (700, 339), (696, 334), (684, 321), (676, 312), (668, 305), (658, 298), (641, 286)]",218.52814449615803,"[4, 9, 7, 3, 8, 2, 1, 5, 6]","(0, 0.25)",THI001B,THI,B,English,Wed Aug 15 12:45:09 2018,Mouse
1,2,2,0,15,1,1,1,561,351,210,140,0,500,200,8000,"[(960, 540), (960, 540), (960, 540), (960, 540), (960, 540), (960, 540), (960, 540), (960, 540), (960, 540), (960, 540), (960, 540), (960, 540), (960, 540), (960, 540), (960, 540), (960, 540), (960, 540), (960, 540), (960, 540), (960, 540), (960, 540), (960, 540), (960, 540), (960, 540), (960, 540), (960, 540), (960, 540), (960, 540), (960, 540), (960, 540), (960, 540), (960, 540), (960, 540), (960, 540), (960, 540), (956, 511), (953, 479), (948, 447), (945, 421), (937, 368), (937, 345), (937, 330), (937, 314), (937, 277), (937, 255), (937, 238), (937, 223), (936, 200), (932, 189), (930, 180), (927, 170), (921, 157), (918, 152), (916, 150), (913, 147), (912, 144), (912, 141)]",263.1402399944742,"[4, 9, 7, 3, 8, 2, 1, 5, 6]","(0, 0.25)",THI001B,THI,B,English,Wed Aug 15 12:45:09 2018,Mouse
1,2,2,0,16,5,5,1,779,549,230,139,0,500,200,8000,"[(960, 540), (960, 540), (960, 540), (960, 540), (960, 540), (960, 540), (960, 540), (960, 540), (960, 540), (960, 540), (960, 540), (960, 540), (960, 540), (960, 540), (960, 540), (960, 540), (960, 540), (960, 540), (960, 540), (960, 540), (960, 540), (960, 540), (960, 540), (960, 540), (960, 540), (960, 540), (960, 540), (960, 540), (960, 540), (960, 540), (960, 540), (960, 540), (960, 540), (960, 540), (960, 540), (960, 540), (960, 540), (960, 540), (960, 540), (960, 540), (960, 540), (960, 540), (960, 540), (960, 540), (960, 540), (960, 540), (960, 540), (960, 540), (960, 540), (960, 540), (960, 540), (960, 540), (960, 540), (960, 540), (961, 531), (964, 509), (967, 491), (971, 459), (974, 444), (979, 427), (985, 404), (998, 365), (1006, 349), (1012, 334), (1021, 313), (1036, 283), (1045, 270), (1053, 258), (1059, 248), (1074, 230), (1081, 221), (1086, 214), (1091, 206), (1102, 191), (1107, 184), (1112, 177), (1113, 175), (1116, 170)]",292.8613399836937,"[4, 9, 7, 3, 8, 2, 1, 5, 6]","(0, 0.25)",THI001B,THI,B,English,Wed Aug 15 12:45:09 2018,Mouse
1,2,2,0,17,9,9,1,1951,1681,270,138,0,500,200,8000,"[(960, 540), (960, 540), (960, 540), (960, 540), (960, 540), (960, 540), (960, 540), (960, 540), (960, 540), (960, 540), (960, 540), (960, 540), (960, 540), (960, 540), (960, 540), (960, 540), (960, 540), (960, 540), (960, 540), (960, 540), (960, 540), (960, 540), (960, 540), (960, 540), (960, 540), (960, 540), (960, 540), (960, 540), (960, 540), (960, 540), (960, 540), (960, 540), (960, 540), (960, 540), (960, 540), (960, 540), (960, 540), (960, 540), (960, 540), (960, 540), (960, 540), (960, 540), (960, 540), (960, 540), (960, 540), (960, 540), (960, 540), (960, 540), (960, 540), (960, 540), (960, 540), (960, 540), (960, 540), (960, 540), (960, 540), (960, 540), (960, 540), (960, 540), (960, 540), (960, 540), (960, 540), (960, 540), (960, 540), (960, 540), (960, 540), (960, 540), (960, 540), (960, 540), (960, 540), (960, 540), (960, 540), (960, 540), (960, 540), (960, 540), (960, 540), (960, 540), (960, 540), (960, 540), (960, 540), (960, 540), (960, 540), (960, 540), (960, 540), (960, 540), (960, 540), (960, 540), (960, 540), (960, 540), (960, 540), (960, 540), (960, 540), (960, 540), (960, 540), (960, 540), (960, 540), (960, 540), (960, 540), (960, 540), (960, 540), (960, 540), (960, 540), (960, 540), (960, 540), (960, 540), (960, 540), (960, 540), (960, 540), (960, 540), (960, 540), (960, 540), (960, 540), (960, 540), (960, 540), (960, 540), (960, 540), (960, 540), (960, 540), (960, 540), (960, 540), (960, 540), (960, 540), (960, 540), (960, 540), (960, 540), (960, 540), (960, 540), (960, 540), (960, 540), (960, 540), (960, 540), (960, 540), (960, 540), (960, 540), (960, 540), (960, 540), (960, 540), (960, 540), (960, 540), (960, 540), (960, 540), (960, 540), (960, 540), (960, 540), (960, 540), (960, 540), (960, 540), (960, 540), (960, 540), (960, 540), (960, 540), (960, 540), (960, 540), (960, 540), (960, 540), (960, 540), (960, 540), (960, 540), (960, 540), (960, 540), (960, 540), (960, 540), (960, 540), (960, 540), (960, 540), (960, 540), (960, 540), (960, 540), (960, 540), (960, 541), (960, 543), (960, 547), (963, 553), (965, 556), (966, 558), (968, 563), (975, 578), (977, 584), (983, 593), (988, 601), (1003, 625), (1011, 636), (1021, 648), (1035, 664), (1055, 688), (1068, 703), (1079, 715), (1088, 732), (1112, 763), (1119, 777), (1127, 788), (1135, 803), (1150, 830), (1156, 842), (1162, 857), (1167, 869), (1176, 906)]",59.45242825109298,"[4, 9, 7, 3, 8, 2, 1, 5, 6]","(0, 0.25)",THI001B,THI,B,English,Wed Aug 15 12:45:09 2018,Mouse
1,2,2,0,18,9,9,1,300,160,140,137,0,500,200,8000,"[(960, 540), (960, 540), (960, 540), (960, 540), (960, 540), (960, 540), (960, 540), (960, 540), (960, 540), (960, 540), (960, 540), (960, 540), (960, 540), (960, 540), (960, 540), (961, 542), (969, 546), (976, 554), (997, 572), (1007, 582), (1019, 596), (1033, 614), (1069, 667), (1088, 702), (1108, 735), (1122, 764), (1152, 826), (1161, 849), (1172, 873), (1181, 896)]",58.16854728576434,"[4, 9, 7, 3, 8, 2, 1, 5, 6]","(0, 0.25)",THI001B,THI,B,English,Wed Aug 15 12:45:09 2018,Mouse
1,2,2,0,19,6,5,0,-5370,4230,1140,136,0,500,200,8000,"[(960, 540), (960, 540), (960, 540), (960, 540), (960, 540), (960, 540), (960, 540), (960, 540), (960, 540), (960, 540), (960, 540), (960, 540), (960, 540), (960, 540), (960, 540), (960, 540), (960, 540), (960, 540), (960, 540), (960, 540), (960, 540), (960, 540), (960, 540), (960, 540), (960, 540), (960, 540), (960, 540), (960, 540), (960, 540), (960, 540), (960, 540), (960, 540), (960, 540), (960, 540), (960, 540), (960, 540), (960, 540), (960, 540), (960, 540), (960, 540), (960, 540), (960, 540), (960, 540), (960, 540), (960, 540), (960, 540), (960, 540), (960, 540), (960, 540), (960, 540), (960, 540), (960, 540), (960, 540), (960, 540), (960, 540), (960, 540), (960, 540), (960, 540), (960, 540), (960, 540), (960, 540), (960, 540), (960, 540), (960, 540), (960, 540), (960, 540), (960, 540), (960, 540), (960, 540), (960, 540), (960, 540), (960, 540), (960, 540), (960, 540), (960, 540), (960, 540), (960, 540), (960, 540), (960, 540), (960, 540), (960, 540), (960, 540), (960, 540), (960, 540), (960, 540), (960, 540), (960, 540), (960, 540), (960, 540), (960, 540), (960, 540), (960, 540), (960, 540), (960, 540), (960, 540), (960, 540), (960, 540), (960, 540), (960, 540), (960, 540), (960, 540), (960, 540), (960, 540), (960, 540), (960, 540), (960, 540), (960, 540), (960, 540), (960, 540), (960, 540), (960, 540), (960, 540), (960, 540), (960, 540), (960, 540), (960, 540), (960, 540), (960, 540), (960, 540), (960, 540), (960, 540), (960, 540), (960, 540), (960, 540), (960, 540), (960, 540), (960, 540), (960, 540), (960, 540), (960, 540), (960, 540), (960, 540), (960, 540), (960, 540), (960, 540), (960, 540), (960, 540), (960, 540), (960, 540), (960, 540), (960, 540), (960, 540), (960, 540), (960, 540), (960, 540), (960, 540), (960, 540), (960, 540), (960, 540), (960, 540), (960, 540), (960, 540), (960, 540), (960, 540), (960, 540), (960, 540), (960, 540), (960, 540), (960, 540), (960, 540), (960, 540), (960, 540), (960, 540), (960, 540), (960, 540), (960, 540), (960, 540), (960, 540), (960, 540), (960, 540), (960, 540), (960, 540), (960, 540), (960, 540), (960, 540), (960, 540), (960, 540), (960, 540), (960, 540), (960, 540), (960, 540), (960, 540), (960, 540), (960, 540), (960, 540), (960, 540), (960, 540), (960, 540), (960, 540), (960, 540), (960, 540), (960, 540), (960, 540), (960, 540), (960, 540), (960, 540), (960, 540), (960, 540), (960, 540), (960, 540), (960, 540), (960, 540), (960, 540), (960, 540), (960, 540), (960, 540), (960, 540), (960, 540), (960, 540), (960, 540), (960, 540), (960, 540), (960, 540), (960, 540), (960, 540), (960, 540), (960, 540), (960, 540), (960, 540), (960, 540), (960, 540), (960, 540), (960, 540), (960, 540), (960, 540), (960, 540), (960, 540), (960, 540), (960, 540), (960, 540), (960, 540), (960, 540), (960, 540), (960, 540), (960, 540), (960, 540), (960, 540), (960, 540), (960, 540), (960, 540), (960, 540), (960, 540), (960, 540), (960, 540), (960, 540), (960, 540), (960, 540), (960, 540), (960, 540), (960, 540), (960, 540), (960, 540), (960, 540), (960, 540), (960, 540), (960, 540), (960, 540), (960, 540), (960, 540), (960, 540), (960, 540), (960, 540), (960, 540), (960, 540), (960, 540), (960, 540), (960, 540), (960, 540), (960, 540), (960, 540), (960, 540), (960, 540), (960, 540), (960, 540), (960, 540), (960, 540), (960, 540), (960, 540), (960, 540), (960, 540), (960, 540), (960, 540), (960, 540), (960, 540), (960, 540), (960, 540), (960, 540), (960, 540), (960, 540), (960, 540), (960, 540), (960, 540), (960, 540), (960, 540), (960, 540), (960, 540), (960, 540), (960, 540), (960, 540), (960, 540), (960, 540), (960, 540), (960, 540), (960, 540), (960, 540), (960, 540), (960, 540), (960, 540), (960, 540), (960, 540), (960, 540), (960, 540), (960, 540), (960, 540), (960, 540), (960, 540), (960, 540), (960, 540), (960, 540), (960, 540), (960, 540), (960, 540), (960, 540), (960, 540), (960, 540), (960, 540), (960, 540), (960, 540), (960, 540), (960, 540), (960, 540), (960, 540), (960, 540), (960, 540), (960, 540), (960, 540), (960, 540), (960, 540), (960, 540), (960, 540), (960, 540), (960, 540), (960, 540), (960, 540), (960, 540), (960, 540), (960, 540), (960, 540), (960, 540), (960, 540), (960, 540), (960, 540), (960, 540), (960, 540), (960, 540), (960, 540), (960, 540), (960, 540), (960, 540), (960, 540), (960, 540), (960, 540), (960, 540), (960, 540), (960, 540), (960, 540), (960, 540), (960, 540), (960, 540), (960, 540), (960, 540), (960, 540), (960, 540), (960, 540), (960, 540), (960, 540), (960, 540), (960, 540), (960, 540), (960, 540), (960, 540), (960, 540), (960, 540), (960, 540), (960, 540), (960, 540), (960, 540), (960, 540), (960, 540), (960, 540), (960, 540), (960, 540), (960, 540), (960, 540), (960, 540), (960, 540), (960, 540), (960, 540), (960, 540), (960, 540), (960, 540), (960, 540), (960, 540), (960, 540), (960, 540), (960, 540), (960, 540), (960, 540), (960, 540), (960, 540), (960, 540), (960, 540), (960, 540), (960, 540), (960, 540), (960, 540), (960, 540), (960, 540), (960, 540), (960, 540), (960, 540), (960, 540), (960, 539), (960, 536), (960, 534), (960, 533), (960, 533), (960, 532), (960, 532), (960, 532), (960, 532), (960, 532), (960, 532), (960, 532), (960, 532), (960, 532), (960, 532), (960, 532), (960, 532), (960, 532), (960, 532), (960, 532), (960, 532), (960, 532), (960, 532), (960, 532), (960, 532), (960, 532), (960, 530), (959, 527), (959, 525), (959, 522), (958, 521), (958, 520), (958, 520), (958, 519), (958, 519), (958, 519), (958, 517), (958, 517), (958, 517), (958, 517), (958, 517), (958, 517), (958, 517), (958, 517), (958, 517), (958, 517), (958, 517), (958, 516), (958, 516), (958, 513), (958, 513), (958, 511), (958, 510), (958, 506), (958, 504), (958, 504), (958, 504), (958, 501), (958, 501), (958, 500), (958, 500), (958, 500), (958, 500), (958, 500), (958, 500), (958, 500), (958, 500), (958, 500), (958, 498), (959, 497), (960, 497), (960, 496), (961, 496), (963, 493), (966, 490), (968, 488), (971, 484), (975, 474), (977, 473), (978, 470), (979, 468), (981, 463), (983, 460), (984, 459), (985, 457), (987, 455), (988, 454), (990, 453), (992, 451), (994, 449), (996, 447), (997, 446), (999, 444), (1002, 440), (1004, 437), (1006, 434), (1007, 433), (1009, 429), (1011, 425), (1012, 422), (1014, 417), (1019, 406), (1021, 400), (1024, 396), (1029, 388), (1038, 373), (1045, 362), (1053, 348), (1069, 326), (1114, 284), (1135, 265), (1158, 247), (1170, 236), (1190, 215), (1194, 207)]",305.09581678702614,"[4, 9, 7, 3, 8, 2, 1, 5, 6]","(0, 0.25)",THI001B,THI,B,English,Wed Aug 15 12:45:09 2018,Mouse
1,2,2,0,20,4,4,1,2930,1299,1631,137,0,500,200,8000,"[(960, 540), (960, 540), (960, 540), (960, 540), (960, 540), (960, 540), (960, 540), (960, 540), (960, 540), (960, 540), (960, 540), (960, 540), (960, 540), (960, 540), (960, 540), (960, 540), (960, 540), (960, 540), (960, 540), (960, 540), (960, 540), (960, 540), (960, 540), (960, 540), (960, 540), (960, 540), (960, 540), (960, 540), (960, 540), (960, 540), (960, 540), (960, 540), (960, 540), (960, 540), (960, 540), (960, 540), (960, 540), (960, 540), (960, 540), (960, 540), (960, 540), (960, 540), (960, 540), (960, 540), (960, 540), (960, 540), (960, 540), (960, 540), (960, 540), (960, 540), (960, 540), (960, 540), (960, 540), (960, 540), (960, 540), (960, 540), (960, 540), (960, 540), (960, 540), (960, 540), (960, 540), (960, 540), (960, 540), (960, 540), (960, 540), (960, 540), (960, 540), (960, 540), (960, 540), (960, 540), (960, 540), (960, 540), (960, 540), (960, 540), (960, 540), (960, 540), (960, 540), (960, 540), (960, 540), (960, 540), (960, 540), (960, 540), (960, 540), (960, 540), (960, 540), (960, 540), (960, 540), (960, 540), (960, 540), (960, 540), (960, 540), (960, 540), (960, 540), (960, 540), (960, 540), (960, 540), (960, 540), (960, 540), (960, 540), (960, 540), (960, 540), (960, 540), (960, 540), (960, 540), (960, 540), (960, 540), (960, 540), (960, 540), (960, 540), (960, 540), (960, 540), (960, 540), (960, 540), (960, 540), (960, 540), (960, 540), (960, 540), (960, 540), (960, 540), (960, 540), (960, 540), (960, 540), (960, 540), (960, 540), (960, 540), (960, 540), (960, 540), (960, 540), (960, 540), (959, 540), (958, 540), (958, 540), (957, 540), (955, 540), (955, 540), (955, 540), (955, 540), (955, 540), (955, 540), (955, 540), (955, 540), (955, 540), (955, 540), (955, 540), (955, 540), (955, 540), (955, 540), (955, 540), (955, 540), (955, 540), (955, 540), (955, 540), (955, 540), (955, 540), (955, 540), (955, 540), (955, 540), (955, 540), (955, 540), (955, 540), (955, 540), (955, 540), (955, 540), (955, 540), (955, 540), (955, 540), (955, 540), (955, 540), (955, 540), (955, 540), (955, 540), (955, 540), (955, 540), (955, 540), (955, 540), (955, 540), (955, 540), (955, 540), (955, 540), (955, 540), (955, 540), (955, 540), (955, 540), (955, 540), (955, 540), (955, 540), (955, 540), (955, 540), (955, 540), (955, 540), (955, 540), (955, 540), (955, 540), (955, 540), (955, 540), (955, 540), (955, 540), (955, 540), (955, 540), (955, 540), (955, 540), (955, 540), (955, 540), (955, 540), (955, 540), (955, 540), (955, 540), (955, 540), (955, 540), (955, 540), (955, 540), (955, 540), (955, 540), (955, 540), (955, 540), (955, 540), (955, 540), (955, 540), (955, 540), (955, 540), (955, 540), (955, 540), (955, 540), (955, 540), (955, 540), (955, 540), (955, 540), (955, 540), (955, 540), (955, 540), (955, 540), (955, 540), (955, 540), (955, 540), (955, 540), (955, 540), (955, 540), (955, 540), (955, 540), (955, 540), (955, 540), (955, 540), (955, 540), (955, 540), (955, 540), (955, 540), (955, 540), (955, 540), (955, 540), (955, 540), (955, 540), (955, 540), (955, 540), (955, 540), (955, 540), (955, 540), (955, 540), (955, 540), (955, 540), (955, 540), (955, 540), (955, 540), (955, 540), (956, 541), (963, 545), (977, 555), (986, 560), (994, 564), (1007, 571), (1032, 581), (1042, 587), (1055, 593), (1066, 597), (1094, 609), (1108, 614), (1119, 618), (1132, 620), (1159, 631), (1173, 637), (1188, 642), (1200, 644), (1229, 655), (1246, 660), (1269, 668), (1280, 671), (1304, 680), (1313, 682), (1319, 684), (1323, 686), (1329, 687), (1331, 689), (1331, 689), (1332, 689)]",21.827959892010757,"[4, 9, 7, 3, 8, 2, 1, 5, 6]","(0, 0.25)",THI001B,THI,B,English,Wed Aug 15 12:45:09 2018,Mouse
1,2,2,0,21,5,5,1,740,580,160,137,0,500,200,8000,"[(960, 540), (960, 540), (960, 540), (960, 540), (960, 540), (960, 540), (960, 540), (960, 540), (960, 540), (960, 540), (960, 540), (960, 540), (960, 540), (960, 540), (960, 540), (960, 540), (960, 540), (960, 540), (960, 540), (960, 540), (960, 540), (960, 540), (960, 540), (960, 540), (960, 540), (960, 540), (960, 540), (960, 540), (960, 540), (960, 540), (960, 540), (960, 540), (960, 540), (960, 540), (960, 540), (960, 540), (960, 540), (960, 540), (960, 540), (960, 540), (960, 540), (960, 540), (960, 540), (960, 540), (960, 540), (960, 540), (960, 540), (960, 540), (960, 540), (960, 540), (960, 540), (960, 540), (960, 540), (960, 540), (960, 540), (960, 540), (960, 540), (959, 540), (963, 535), (985, 490), (995, 465), (1005, 439), (1014, 413), (1034, 371), (1043, 350), (1052, 327), (1064, 305), (1086, 270), (1096, 251), (1105, 235), (1114, 221), (1125, 198), (1131, 187), (1136, 174)]",295.681706069289,"[4, 9, 7, 3, 8, 2, 1, 5, 6]","(0, 0.25)",THI001B,THI,B,English,Wed Aug 15 12:45:09 2018,Mouse
1,2,2,0,22,3,3,1,729,569,160,136,0,500,200,8000,"[(960, 540), (960, 540), (960, 540), (960, 540), (960, 540), (960, 540), (960, 540), (960, 540), (960, 540), (960, 540), (960, 540), (960, 540), (960, 540), (960, 540), (960, 540), (960, 540), (960, 540), (960, 540), (960, 540), (960, 540), (960, 540), (960, 540), (960, 540), (960, 540), (960, 540), (960, 540), (960, 540), (960, 540), (960, 540), (960, 540), (960, 540), (960, 540), (960, 540), (960, 540), (960, 540), (960, 540), (960, 540), (960, 540), (960, 540), (960, 540), (960, 540), (960, 540), (960, 540), (960, 540), (960, 540), (960, 540), (960, 540), (960, 540), (960, 540), (960, 540), (960, 540), (960, 540), (960, 540), (960, 540), (960, 540), (960, 540), (954, 547), (945, 556), (938, 564), (931, 571), (920, 587), (911, 598), (902, 610), (890, 622), (852, 669), (833, 690), (811, 713), (790, 735), (745, 774), (720, 791), (702, 807), (680, 820), (643, 848)]",135.82500220398893,"[4, 9, 7, 3, 8, 2, 1, 5, 6]","(0, 0.25)",THI001B,THI,B,English,Wed Aug 15 12:45:09 2018,Mouse
1,2,2,0,23,4,4,1,911,751,160,135,0,500,200,8000,"[(960, 540), (960, 540), (960, 540), (960, 540), (960, 540), (960, 540), (960, 540), (960, 540), (960, 540), (960, 540), (960, 540), (960, 540), (960, 540), (960, 540), (960, 540), (960, 540), (960, 540), (960, 540), (960, 540), (960, 540), (960, 540), (960, 540), (960, 540), (960, 540), (960, 540), (960, 540), (960, 540), (960, 540), (960, 540), (960, 540), (960, 540), (960, 540), (960, 540), (960, 540), (960, 540), (960, 540), (960, 540), (960, 540), (960, 540), (960, 540), (960, 540), (960, 540), (960, 540), (960, 540), (960, 540), (960, 540), (960, 540), (960, 540), (960, 540), (960, 540), (960, 540), (960, 540), (960, 540), (960, 540), (960, 540), (960, 540), (960, 540), (960, 540), (960, 540), (960, 540), (960, 540), (960, 540), (960, 540), (960, 540), (960, 540), (960, 540), (960, 540), (960, 540), (960, 540), (960, 540), (960, 540), (960, 540), (960, 540), (960, 540), (960, 540), (970, 539), (987, 539), (1009, 539), (1040, 539), (1096, 554), (1121, 562), (1149, 571), (1182, 579), (1236, 597), (1260, 608), (1275, 615), (1288, 620), (1310, 631), (1320, 636), (1330, 642), (1338, 645), (1350, 652)]",16.022979847428463,"[4, 9, 7, 3, 8, 2, 1, 5, 6]","(0, 0.25)",THI001B,THI,B,English,Wed Aug 15 12:45:09 2018,Mouse
1,2,2,0,24,1,1,1,760,470,290,134,0,500,200,8000,"[(960, 540), (960, 540), (960, 540), (960, 540), (960, 540), (960, 540), (960, 540), (960, 540), (960, 540), (960, 540), (960, 540), (960, 540), (960, 540), (960, 540), (960, 540), (960, 540), (960, 540), (960, 540), (960, 540), (960, 540), (960, 540), (960, 540), (960, 540), (960, 540), (960, 540), (960, 540), (960, 540), (960, 540), (960, 540), (960, 540), (960, 540), (960, 540), (960, 540), (960, 540), (960, 540), (960, 540), (960, 540), (960, 540), (960, 540), (960, 540), (960, 540), (960, 540), (960, 540), (960, 540), (960, 540), (960, 540), (959, 539), (959, 536), (958, 536), (958, 535), (958, 533), (958, 533), (957, 532), (956, 532), (956, 531), (956, 530), (956, 527), (956, 521), (956, 501), (956, 490), (956, 478), (955, 464), (950, 430), (948, 412), (942, 390), (935, 362), (920, 304), (911, 281), (901, 255), (892, 232), (880, 195), (877, 184), (874, 173), (873, 166), (872, 152), (870, 146)]",257.1328958599809,"[4, 9, 7, 3, 8, 2, 1, 5, 6]","(0, 0.25)",THI001B,THI,B,English,Wed Aug 15 12:45:09 2018,Mouse
1,2,2,0,25,1,1,1,3521,3261,260,133,0,500,200,8000,"[(960, 540), (960, 540), (960, 540), (960, 540), (960, 540), (960, 540), (960, 540), (960, 540), (960, 540), (960, 540), (960, 540), (960, 540), (960, 540), (960, 540), (960, 540), (960, 540), (960, 540), (960, 540), (960, 540), (960, 540), (960, 540), (960, 540), (960, 540), (960, 540), (960, 540), (960, 540), (960, 540), (960, 540), (960, 540), (960, 540), (960, 540), (960, 540), (960, 540), (960, 540), (960, 540), (960, 540), (960, 540), (960, 540), (960, 540), (960, 540), (960, 540), (960, 540), (960, 540), (960, 540), (960, 540), (960, 540), (960, 540), (960, 540), (960, 540), (960, 540), (960, 540), (960, 540), (960, 540), (960, 540), (960, 540), (960, 540), (960, 540), (960, 540), (960, 540), (960, 540), (960, 540), (960, 540), (960, 540), (960, 540), (960, 540), (960, 540), (960, 540), (960, 540), (960, 540), (960, 540), (960, 540), (960, 540), (960, 540), (960, 540), (960, 540), (960, 540), (960, 540), (960, 540), (960, 540), (960, 540), (960, 540), (960, 540), (960, 540), (960, 540), (960, 540), (960, 540), (960, 540), (960, 540), (960, 540), (960, 540), (960, 540), (960, 540), (960, 540), (960, 540), (960, 540), (960, 540), (960, 540), (960, 540), (960, 540), (960, 540), (960, 540), (960, 540), (960, 540), (960, 540), (960, 540), (960, 540), (960, 540), (960, 540), (960, 540), (960, 540), (960, 540), (960, 540), (960, 540), (960, 540), (960, 540), (960, 540), (960, 540), (960, 540), (960, 540), (960, 540), (960, 540), (960, 540), (960, 540), (960, 540), (960, 540), (960, 540), (960, 540), (960, 540), (960, 540), (960, 540), (960, 540), (960, 540), (960, 540), (960, 540), (960, 540), (960, 540), (960, 540), (960, 540), (960, 540), (960, 540), (960, 540), (960, 540), (960, 540), (960, 540), (960, 540), (960, 540), (960, 540), (960, 540), (960, 540), (960, 540), (960, 540), (960, 540), (960, 540), (960, 540), (960, 540), (960, 540), (960, 540), (960, 540), (960, 540), (960, 540), (960, 540), (960, 540), (960, 540), (960, 540), (960, 540), (960, 540), (960, 540), (960, 540), (960, 540), (960, 540), (960, 540), (960, 540), (960, 540), (960, 540), (960, 540), (960, 540), (960, 540), (960, 540), (960, 540), (960, 540), (960, 540), (960, 540), (960, 540), (960, 540), (960, 540), (960, 540), (960, 540), (960, 540), (960, 540), (960, 540), (960, 540), (960, 540), (960, 540), (960, 540), (960, 540), (960, 540), (960, 540), (960, 540), (960, 540), (960, 540), (960, 540), (960, 540), (960, 540), (960, 540), (960, 540), (960, 540), (960, 540), (960, 540), (960, 540), (960, 540), (960, 540), (960, 540), (960, 540), (960, 540), (960, 540), (960, 540), (960, 540), (960, 540), (960, 540), (960, 540), (960, 540), (960, 540), (960, 540), (960, 540), (960, 540), (960, 540), (960, 540), (960, 540), (960, 540), (960, 540), (960, 540), (960, 540), (960, 540), (960, 540), (960, 540), (960, 540), (960, 540), (960, 540), (960, 540), (960, 540), (960, 540), (960, 540), (960, 540), (960, 540), (960, 540), (960, 540), (960, 540), (960, 540), (960, 540), (960, 540), (960, 540), (960, 540), (960, 540), (960, 540), (960, 540), (960, 540), (960, 540), (960, 540), (960, 540), (960, 540), (960, 540), (960, 540), (960, 540), (960, 540), (960, 540), (960, 540), (960, 540), (960, 540), (960, 540), (960, 540), (960, 540), (960, 540), (960, 540), (960, 540), (960, 540), (960, 540), (960, 540), (960, 540), (960, 540), (960, 540), (960, 540), (960, 540), (960, 540), (960, 540), (960, 540), (960, 540), (960, 540), (960, 540), (960, 540), (960, 540), (960, 540), (960, 540), (960, 540), (960, 540), (960, 540), (960, 540), (960, 540), (960, 540), (960, 540), (960, 540), (960, 540), (960, 540), (960, 540), (960, 540), (960, 540), (960, 540), (960, 540), (960, 540), (960, 540), (960, 540), (960, 540), (960, 540), (960, 540), (960, 540), (960, 540), (960, 540), (960, 540), (960, 540), (960, 540), (960, 540), (960, 540), (960, 540), (960, 540), (960, 540), (960, 540), (960, 538), (960, 533), (959, 526), (958, 518), (952, 498), (948, 489), (943, 479), (941, 469), (938, 450), (936, 439), (933, 429), (931, 418), (927, 396), (926, 385), (925, 374), (923, 361), (916, 324), (914, 304), (912, 290), (908, 273), (906, 241), (906, 224), (906, 207), (906, 187), (906, 159), (906, 147), (906, 133)]",262.44224430022996,"[4, 9, 7, 3, 8, 2, 1, 5, 6]","(0, 0.25)",THI001B,THI,B,English,Wed Aug 15 12:45:09 2018,Mouse
1,2,2,0,26,5,1,0,-1049,959,90,132,0,500,200,8000,"[(960, 540), (960, 540), (960, 540), (960, 540), (960, 540), (960, 540), (960, 540), (960, 540), (960, 540), (960, 540), (960, 540), (960, 540), (960, 540), (960, 540), (960, 540), (960, 540), (960, 540), (960, 540), (960, 540), (960, 540), (960, 540), (960, 540), (960, 540), (960, 540), (960, 540), (960, 540), (960, 540), (960, 540), (960, 540), (960, 540), (960, 540), (960, 540), (960, 540), (960, 540), (960, 540), (960, 540), (960, 540), (960, 540), (960, 540), (960, 540), (960, 540), (960, 540), (960, 540), (960, 540), (960, 540), (960, 540), (960, 540), (960, 540), (960, 540), (960, 540), (960, 540), (960, 540), (960, 540), (960, 540), (960, 540), (960, 540), (960, 540), (960, 540), (960, 540), (960, 540), (960, 540), (960, 540), (960, 540), (960, 540), (960, 540), (960, 540), (960, 540), (960, 540), (960, 540), (960, 540), (960, 540), (960, 540), (960, 540), (960, 540), (960, 540), (960, 540), (960, 540), (960, 540), (960, 540), (960, 540), (960, 540), (960, 540), (960, 540), (960, 540), (960, 540), (960, 540), (960, 540), (960, 540), (960, 540), (960, 540), (960, 540), (960, 540), (960, 540), (960, 540), (960, 540), (961, 538), (965, 510), (965, 483), (965, 445), (958, 401), (933, 310), (921, 266), (907, 216), (891, 168), (869, 83)]",258.738296285223,"[4, 9, 7, 3, 8, 2, 1, 5, 6]","(0, 0.25)",THI001B,THI,B,English,Wed Aug 15 12:45:09 2018,Mouse
1,2,2,0,27,7,2,0,-1901,1751,150,133,0,500,200,8000,"[(960, 540), (960, 540), (960, 540), (960, 540), (960, 540), (960, 540), (960, 540), (960, 540), (960, 540), (960, 540), (960, 540), (960, 540), (960, 540), (960, 540), (960, 540), (960, 540), (960, 540), (960, 540), (960, 540), (960, 540), (960, 540), (960, 540), (960, 540), (960, 540), (960, 540), (960, 540), (960, 540), (960, 540), (960, 540), (960, 540), (960, 540), (960, 540), (960, 540), (960, 540), (960, 540), (960, 540), (960, 540), (960, 540), (960, 540), (960, 540), (960, 540), (960, 540), (960, 540), (960, 540), (960, 540), (960, 540), (960, 540), (960, 540), (960, 540), (960, 540), (960, 540), (960, 540), (960, 540), (960, 540), (960, 540), (960, 540), (960, 540), (960, 540), (960, 540), (960, 540), (960, 540), (960, 540), (960, 540), (960, 540), (960, 540), (960, 540), (960, 540), (960, 540), (960, 540), (960, 540), (960, 540), (960, 540), (960, 540), (960, 540), (960, 540), (960, 540), (960, 540), (960, 540), (960, 540), (960, 540), (960, 540), (960, 540), (960, 540), (960, 540), (960, 540), (960, 540), (960, 540), (960, 540), (960, 540), (960, 540), (960, 540), (960, 540), (960, 540), (960, 540), (960, 540), (960, 540), (960, 540), (960, 540), (960, 540), (960, 540), (960, 540), (960, 540), (960, 540), (960, 540), (960, 540), (960, 540), (960, 540), (960, 540), (960, 540), (960, 540), (960, 540), (960, 540), (960, 540), (960, 540), (960, 540), (960, 540), (960, 540), (960, 540), (960, 540), (960, 540), (960, 540), (960, 540), (960, 540), (960, 540), (960, 540), (960, 540), (960, 540), (960, 540), (960, 540), (960, 540), (960, 540), (960, 540), (960, 540), (960, 540), (960, 540), (960, 540), (960, 540), (960, 540), (960, 540), (960, 540), (960, 540), (960, 540), (960, 540), (960, 540), (960, 540), (960, 540), (960, 540), (960, 540), (960, 540), (960, 540), (960, 540), (960, 540), (960, 540), (960, 540), (960, 540), (960, 540), (960, 540), (960, 540), (960, 540), (960, 540), (960, 540), (960, 540), (960, 540), (960, 540), (960, 540), (960, 540), (960, 540), (960, 540), (960, 540), (960, 540), (960, 540), (960, 540), (960, 540), (960, 540), (960, 540), (957, 538), (950, 527), (937, 507), (920, 487), (873, 437), (849, 415), (820, 389), (792, 366), (743, 327), (722, 310), (710, 300), (701, 291), (688, 275), (686, 270), (681, 261), (676, 255)]",225.1006954666492,"[4, 9, 7, 3, 8, 2, 1, 5, 6]","(0, 0.25)",THI001B,THI,B,English,Wed Aug 15 12:45:09 2018,Mouse
1,2,2,0,28,6,1,0,-481,371,110,134,0,500,200,8000,"[(960, 540), (960, 540), (960, 540), (960, 540), (960, 540), (960, 540), (960, 540), (960, 540), (960, 540), (960, 540), (960, 540), (960, 540), (960, 540), (960, 540), (960, 540), (960, 540), (960, 540), (960, 540), (960, 540), (960, 540), (960, 540), (960, 540), (960, 540), (960, 540), (960, 540), (960, 540), (960, 540), (960, 540), (960, 540), (960, 540), (960, 540), (960, 540), (960, 540), (960, 540), (960, 540), (960, 540), (960, 540), (961, 540), (961, 540), (962, 532), (962, 471), (956, 433), (944, 394), (935, 347), (918, 260), (909, 224), (905, 193), (901, 166), (897, 92)]",261.9952711427071,"[4, 9, 7, 3, 8, 2, 1, 5, 6]","(0, 0.25)",THI001B,THI,B,English,Wed Aug 15 12:45:09 2018,Mouse
1,2,2,0,29,2,2,1,1099,989,110,135,0,500,200,8000,"[(960, 540), (960, 540), (960, 540), (960, 540), (960, 540), (960, 540), (960, 540), (960, 540), (960, 540), (960, 540), (960, 540), (960, 540), (960, 540), (960, 540), (960, 540), (960, 540), (960, 540), (960, 540), (960, 540), (960, 540), (960, 540), (960, 540), (960, 540), (960, 540), (960, 540), (960, 540), (960, 540), (960, 540), (960, 540), (960, 540), (960, 540), (960, 540), (960, 540), (960, 540), (960, 540), (960, 540), (960, 540), (960, 540), (960, 540), (960, 540), (960, 540), (960, 540), (960, 540), (960, 540), (960, 540), (960, 540), (960, 540), (960, 540), (960, 540), (960, 540), (960, 540), (960, 540), (960, 540), (960, 540), (960, 540), (960, 540), (960, 540), (960, 540), (960, 540), (960, 540), (960, 540), (960, 540), (960, 540), (960, 540), (960, 540), (960, 540), (960, 540), (960, 540), (960, 540), (960, 540), (960, 540), (960, 540), (960, 540), (960, 540), (960, 540), (960, 540), (960, 540), (960, 540), (960, 540), (960, 540), (960, 540), (960, 540), (960, 540), (960, 540), (960, 540), (960, 540), (960, 540), (960, 540), (960, 540), (960, 540), (960, 540), (960, 540), (960, 540), (960, 540), (960, 540), (960, 540), (960, 540), (960, 540), (953, 532), (947, 523), (938, 513), (929, 505), (886, 470), (853, 447), (811, 420), (767, 394), (691, 350), (659, 334), (629, 316), (605, 305)]",213.5034369824142,"[4, 9, 7, 3, 8, 2, 1, 5, 6]","(0, 0.25)",THI001B,THI,B,English,Wed Aug 15 12:45:09 2018,Mouse
1,2,2,0,30,6,4,0,-2670,2560,110,135,0,500,200,8000,"[(960, 540), (960, 540), (960, 540), (960, 540), (960, 540), (960, 540), (960, 540), (960, 540), (960, 540), (960, 540), (960, 540), (960, 540), (960, 540), (960, 540), (960, 540), (960, 540), (960, 540), (960, 540), (960, 540), (960, 540), (960, 540), (960, 540), (960, 540), (960, 540), (960, 540), (960, 540), (960, 540), (960, 540), (960, 540), (960, 540), (960, 540), (960, 540), (960, 540), (960, 540), (960, 540), (960, 540), (960, 540), (960, 540), (960, 540), (960, 540), (960, 540), (960, 540), (960, 540), (960, 540), (960, 540), (960, 540), (960, 540), (960, 540), (960, 540), (960, 540), (960, 540), (960, 540), (960, 540), (960, 540), (960, 540), (960, 540), (960, 540), (960, 540), (960, 540), (960, 540), (960, 540), (960, 540), (960, 540), (960, 540), (960, 540), (960, 540), (960, 540), (960, 540), (960, 540), (960, 540), (960, 540), (960, 540), (960, 540), (960, 540), (960, 540), (960, 540), (960, 540), (960, 540), (960, 540), (960, 540), (960, 540), (960, 540), (960, 540), (960, 540), (960, 540), (960, 540), (960, 540), (960, 540), (960, 540), (960, 540), (960, 540), (960, 540), (960, 540), (960, 540), (960, 540), (960, 540), (960, 540), (960, 540), (960, 540), (960, 540), (960, 540), (960, 540), (960, 540), (960, 540), (960, 540), (960, 540), (960, 540), (960, 540), (960, 540), (960, 540), (960, 540), (960, 540), (960, 540), (960, 540), (960, 540), (960, 540), (960, 540), (960, 540), (960, 540), (960, 540), (960, 540), (960, 540), (960, 540), (960, 540), (960, 540), (960, 540), (960, 540), (960, 540), (960, 540), (960, 540), (960, 540), (960, 540), (960, 540), (960, 540), (960, 540), (960, 540), (960, 540), (960, 540), (960, 540), (960, 540), (960, 540), (960, 540), (960, 540), (960, 540), (960, 540), (960, 540), (960, 540), (960, 540), (960, 540), (960, 540), (960, 540), (960, 540), (960, 540), (960, 540), (960, 540), (960, 540), (960, 540), (960, 540), (960, 540), (960, 540), (960, 540), (960, 540), (960, 540), (960, 540), (960, 540), (960, 540), (960, 540), (960, 540), (960, 540), (960, 540), (960, 540), (960, 540), (960, 540), (960, 540), (960, 540), (960, 540), (960, 540), (960, 540), (960, 540), (960, 540), (960, 540), (960, 540), (960, 540), (960, 540), (960, 540), (960, 540), (960, 540), (960, 540), (960, 540), (960, 540), (960, 540), (960, 540), (960, 540), (960, 540), (960, 540), (960, 540), (960, 540), (960, 540), (960, 540), (960, 540), (960, 540), (960, 540), (960, 540), (960, 540), (960, 540), (960, 540), (960, 540), (960, 540), (960, 540), (960, 540), (960, 540), (960, 540), (960, 540), (960, 540), (960, 540), (960, 540), (960, 540), (960, 540), (960, 540), (960, 540), (960, 540), (960, 540), (960, 540), (960, 540), (960, 540), (960, 540), (960, 540), (960, 540), (960, 540), (960, 540), (960, 540), (960, 540), (960, 540), (960, 540), (960, 540), (960, 540), (960, 540), (960, 540), (960, 540), (960, 540), (960, 540), (960, 540), (960, 540), (960, 540), (960, 540), (960, 540), (960, 540), (960, 540), (960, 540), (960, 540), (960, 540), (960, 540), (960, 540), (960, 540), (960, 540), (960, 541), (963, 543), (969, 546), (977, 550), (1006, 563), (1033, 576), (1067, 589), (1110, 608), (1212, 651), (1268, 676), (1322, 699), (1376, 722)]",23.629377730656817,"[4, 9, 7, 3, 8, 2, 1, 5, 6]","(0, 0.25)",THI001B,THI,B,English,Wed Aug 15 12:45:09 2018,Mouse
1,2,2,0,31,1,1,1,800,560,240,136,0,500,200,8000,"[(960, 540), (960, 540), (960, 540), (960, 540), (960, 540), (960, 540), (960, 540), (960, 540), (960, 540), (960, 540), (960, 540), (960, 540), (960, 540), (960, 540), (960, 540), (960, 540), (960, 540), (960, 540), (960, 540), (960, 540), (960, 540), (960, 540), (960, 540), (960, 540), (960, 540), (960, 540), (960, 540), (960, 540), (960, 540), (960, 540), (960, 540), (960, 540), (960, 540), (960, 540), (960, 540), (960, 540), (960, 540), (960, 540), (960, 540), (960, 540), (960, 540), (960, 540), (960, 540), (960, 540), (960, 540), (960, 540), (960, 540), (960, 540), (960, 540), (960, 540), (960, 540), (960, 540), (960, 540), (960, 540), (960, 540), (958, 539), (956, 537), (953, 536), (951, 531), (946, 509), (945, 492), (941, 468), (937, 442), (930, 388), (925, 361), (918, 334), (910, 306), (904, 274), (902, 262), (901, 251), (898, 240), (898, 224), (898, 219), (898, 212), (898, 206), (898, 187), (898, 176), (898, 164), (898, 152), (893, 128)]",260.7633394038445,"[4, 9, 7, 3, 8, 2, 1, 5, 6]","(0, 0.25)",THI001B,THI,B,English,Wed Aug 15 12:45:09 2018,Mouse
1,2,2,0,32,8,4,0,-820,700,120,136,0,500,200,8000,"[(960, 540), (960, 540), (960, 540), (960, 540), (960, 540), (960, 540), (960, 540), (960, 540), (960, 540), (960, 540), (960, 540), (960, 540), (960, 540), (960, 540), (960, 540), (960, 540), (960, 540), (960, 540), (960, 540), (960, 540), (960, 540), (960, 540), (960, 540), (960, 540), (960, 540), (960, 540), (960, 540), (960, 540), (960, 540), (960, 540), (960, 540), (960, 540), (960, 540), (960, 540), (960, 540), (960, 540), (960, 540), (960, 540), (960, 540), (960, 540), (960, 540), (960, 540), (960, 540), (960, 540), (960, 540), (960, 540), (960, 540), (960, 540), (960, 540), (960, 540), (960, 540), (960, 540), (960, 540), (960, 540), (960, 540), (960, 540), (960, 540), (960, 540), (960, 540), (960, 540), (960, 540), (960, 540), (960, 540), (960, 540), (960, 540), (960, 540), (960, 540), (960, 540), (960, 540), (960, 541), (962, 542), (964, 543), (973, 546), (983, 550), (1015, 562), (1044, 574), (1078, 586), (1117, 601), (1202, 636), (1242, 651), (1295, 667), (1340, 687)]",21.148568784952307,"[4, 9, 7, 3, 8, 2, 1, 5, 6]","(0, 0.25)",THI001B,THI,B,English,Wed Aug 15 12:45:09 2018,Mouse
1,2,2,0,33,8,5,0,-4999,4809,190,137,0,500,200,8000,"[(960, 540), (960, 540), (960, 540), (960, 540), (960, 540), (960, 540), (960, 540), (960, 540), (960, 540), (960, 540), (960, 540), (960, 540), (960, 540), (960, 540), (960, 540), (960, 540), (960, 540), (960, 540), (960, 540), (960, 540), (960, 540), (960, 540), (960, 540), (960, 540), (960, 540), (960, 540), (960, 540), (960, 540), (960, 540), (960, 540), (960, 540), (960, 540), (960, 540), (960, 540), (960, 540), (960, 540), (960, 540), (960, 540), (960, 540), (960, 540), (960, 540), (960, 540), (960, 540), (960, 540), (960, 540), (960, 540), (960, 540), (960, 540), (960, 540), (960, 540), (960, 540), (960, 540), (960, 540), (960, 540), (960, 540), (960, 540), (960, 540), (960, 540), (960, 540), (960, 540), (960, 540), (960, 540), (960, 540), (960, 540), (960, 540), (960, 540), (960, 540), (960, 540), (960, 540), (960, 540), (960, 540), (960, 540), (960, 540), (960, 540), (960, 540), (960, 540), (960, 540), (960, 540), (960, 540), (960, 540), (960, 540), (960, 540), (960, 540), (960, 540), (960, 540), (960, 540), (960, 540), (960, 540), (960, 540), (960, 540), (960, 540), (960, 540), (960, 540), (960, 540), (960, 540), (960, 540), (960, 540), (960, 540), (960, 540), (960, 540), (960, 540), (960, 540), (960, 540), (960, 540), (960, 540), (960, 540), (960, 540), (960, 540), (960, 540), (960, 540), (960, 540), (960, 540), (960, 540), (960, 540), (960, 540), (960, 540), (960, 540), (960, 540), (960, 540), (960, 540), (960, 540), (960, 540), (960, 540), (960, 540), (960, 540), (960, 540), (960, 540), (960, 540), (960, 540), (960, 540), (960, 540), (960, 540), (960, 540), (960, 540), (960, 540), (960, 540), (960, 540), (960, 540), (960, 540), (960, 540), (960, 540), (960, 540), (960, 540), (960, 540), (960, 540), (960, 540), (960, 540), (960, 540), (960, 540), (960, 540), (960, 540), (960, 540), (960, 540), (960, 540), (960, 540), (960, 540), (960, 540), (960, 540), (960, 540), (960, 540), (960, 540), (960, 540), (960, 540), (960, 540), (960, 540), (960, 540), (960, 540), (960, 540), (960, 540), (960, 540), (960, 540), (960, 540), (960, 540), (960, 540), (960, 540), (960, 540), (960, 540), (960, 540), (960, 540), (960, 540), (960, 540), (960, 540), (960, 540), (960, 540), (960, 540), (960, 540), (960, 540), (960, 540), (960, 540), (960, 540), (960, 540), (960, 540), (960, 540), (960, 540), (960, 540), (960, 540), (960, 540), (960, 540), (960, 540), (960, 540), (960, 540), (960, 540), (960, 540), (960, 540), (960, 540), (960, 540), (960, 540), (960, 540), (960, 540), (960, 540), (960, 540), (960, 540), (960, 540), (960, 540), (960, 540), (960, 540), (960, 540), (960, 540), (960, 540), (960, 540), (960, 540), (960, 540), (960, 540), (960, 540), (960, 540), (960, 540), (960, 540), (960, 540), (960, 540), (960, 540), (960, 540), (960, 540), (960, 540), (960, 540), (960, 540), (960, 540), (960, 540), (960, 540), (960, 540), (960, 540), (960, 540), (960, 540), (960, 540), (960, 540), (960, 540), (960, 540), (960, 540), (960, 540), (960, 540), (960, 540), (960, 540), (960, 540), (960, 540), (960, 540), (960, 540), (960, 540), (960, 540), (960, 540), (960, 540), (960, 540), (960, 540), (960, 540), (960, 540), (960, 540), (960, 540), (960, 540), (960, 540), (960, 540), (960, 540), (960, 540), (960, 540), (960, 540), (960, 540), (960, 540), (960, 540), (960, 540), (960, 540), (960, 540), (960, 540), (960, 540), (960, 540), (960, 540), (960, 540), (960, 540), (960, 540), (960, 540), (960, 540), (960, 540), (960, 540), (960, 540), (960, 540), (960, 540), (960, 540), (960, 540), (960, 540), (960, 540), (960, 540), (960, 540), (960, 540), (960, 540), (960, 540), (960, 540), (960, 540), (960, 540), (960, 540), (960, 540), (960, 540), (960, 540), (960, 540), (960, 540), (960, 540), (960, 540), (960, 540), (960, 540), (960, 540), (960, 540), (960, 540), (960, 540), (960, 540), (960, 540), (960, 540), (960, 540), (960, 540), (960, 540), (960, 540), (960, 540), (960, 540), (960, 540), (960, 540), (960, 540), (960, 540), (960, 540), (960, 540), (960, 540), (960, 540), (960, 540), (960, 540), (960, 540), (960, 540), (960, 540), (960, 540), (960, 540), (960, 540), (960, 540), (960, 540), (960, 540), (960, 540), (960, 540), (960, 540), (960, 540), (960, 540), (960, 540), (960, 540), (960, 540), (960, 540), (960, 540), (960, 540), (960, 540), (960, 540), (960, 540), (960, 540), (960, 540), (960, 540), (960, 540), (960, 540), (960, 540), (960, 540), (960, 540), (960, 540), (960, 540), (960, 540), (960, 540), (960, 540), (960, 540), (960, 540), (960, 540), (960, 540), (960, 540), (960, 540), (960, 540), (960, 540), (960, 540), (960, 540), (960, 540), (960, 540), (960, 540), (960, 540), (960, 540), (960, 540), (960, 540), (960, 540), (960, 540), (960, 540), (960, 540), (960, 540), (960, 540), (960, 540), (960, 540), (960, 540), (960, 540), (960, 540), (960, 540), (960, 540), (960, 540), (960, 540), (960, 540), (960, 540), (960, 540), (960, 540), (960, 540), (960, 540), (960, 540), (960, 540), (960, 540), (960, 540), (960, 540), (960, 540), (960, 540), (960, 540), (960, 540), (960, 540), (960, 540), (960, 540), (960, 540), (960, 540), (960, 540), (960, 540), (960, 540), (960, 540), (960, 540), (960, 540), (960, 540), (960, 540), (960, 540), (960, 540), (960, 540), (960, 540), (960, 540), (960, 540), (960, 540), (960, 540), (960, 540), (960, 540), (960, 540), (960, 540), (960, 540), (960, 540), (960, 540), (960, 540), (960, 540), (960, 540), (960, 540), (960, 540), (960, 540), (960, 540), (960, 540), (960, 540), (960, 540), (960, 540), (960, 540), (960, 540), (960, 540), (960, 540), (960, 540), (960, 540), (960, 540), (960, 540), (960, 540), (960, 540), (960, 540), (960, 540), (960, 540), (960, 540), (960, 540), (960, 540), (960, 540), (960, 540), (960, 540), (960, 540), (960, 540), (960, 538), (960, 536), (960, 533), (962, 517), (968, 505), (975, 489), (984, 470), (999, 432), (1010, 411), (1018, 388), (1023, 368), (1037, 324), (1042, 304), (1048, 282), (1056, 259), (1064, 226), (1068, 208), (1071, 194), (1074, 180), (1080, 157)]",287.3966047261581,"[4, 9, 7, 3, 8, 2, 1, 5, 6]","(0, 0.25)",THI001B,THI,B,English,Wed Aug 15 12:45:09 2018,Mouse
1,2,2,0,34,4,4,1,670,550,120,138,0,500,200,8000,"[(960, 540), (960, 540), (960, 540), (960, 540), (960, 540), (960, 540), (960, 540), (960, 540), (960, 540), (960, 540), (960, 540), (960, 540), (960, 540), (960, 540), (960, 540), (960, 540), (960, 540), (960, 540), (960, 540), (960, 540), (960, 540), (960, 540), (960, 540), (960, 540), (960, 540), (960, 540), (960, 540), (960, 540), (960, 540), (960, 540), (960, 540), (960, 540), (960, 540), (960, 540), (960, 540), (960, 540), (960, 540), (960, 540), (960, 540), (960, 540), (960, 540), (960, 540), (960, 540), (960, 540), (960, 540), (960, 540), (960, 540), (960, 540), (960, 540), (960, 540), (960, 540), (960, 540), (960, 540), (960, 540), (960, 541), (964, 541), (978, 546), (995, 550), (1035, 557), (1057, 564), (1088, 571), (1118, 577), (1188, 603), (1231, 622), (1270, 635), (1313, 655), (1391, 689)]",19.070659539945183,"[4, 9, 7, 3, 8, 2, 1, 5, 6]","(0, 0.25)",THI001B,THI,B,English,Wed Aug 15 12:45:09 2018,Mouse
1,2,2,0,35,6,6,1,1369,1269,100,138,0,500,200,8000,"[(960, 540), (960, 540), (960, 540), (960, 540), (960, 540), (960, 540), (960, 540), (960, 540), (960, 540), (960, 540), (960, 540), (960, 540), (960, 540), (960, 540), (960, 540), (960, 540), (960, 540), (960, 540), (960, 540), (960, 540), (960, 540), (960, 540), (960, 540), (960, 540), (960, 540), (960, 540), (960, 540), (960, 540), (960, 540), (960, 540), (960, 540), (960, 540), (960, 540), (960, 540), (960, 540), (960, 540), (960, 540), (960, 540), (960, 540), (960, 540), (960, 540), (960, 540), (960, 540), (960, 540), (960, 540), (960, 540), (960, 540), (960, 540), (960, 540), (960, 540), (960, 540), (960, 540), (960, 540), (960, 540), (960, 540), (960, 540), (960, 540), (960, 540), (960, 540), (960, 540), (960, 540), (960, 540), (960, 540), (960, 540), (960, 540), (960, 540), (960, 540), (960, 540), (960, 540), (960, 540), (960, 540), (960, 540), (960, 540), (960, 540), (960, 540), (960, 540), (960, 540), (960, 540), (960, 540), (960, 540), (960, 540), (960, 540), (960, 540), (960, 540), (960, 540), (960, 540), (960, 540), (960, 540), (960, 540), (960, 540), (960, 540), (960, 540), (960, 540), (960, 540), (960, 540), (960, 540), (960, 540), (960, 540), (960, 540), (960, 540), (960, 540), (960, 540), (960, 540), (960, 540), (960, 540), (960, 540), (960, 540), (960, 540), (960, 540), (960, 540), (960, 540), (960, 540), (960, 540), (960, 540), (960, 540), (960, 540), (960, 540), (960, 540), (960, 540), (960, 540), (960, 540), (960, 540), (960, 540), (960, 540), (960, 540), (960, 540), (962, 540), (971, 537), (979, 533), (995, 528), (1052, 508), (1088, 499), (1132, 488), (1174, 474), (1268, 449), (1307, 436), (1346, 425)]",343.4097606846955,"[4, 9, 7, 3, 8, 2, 1, 5, 6]","(0, 0.25)",THI001B,THI,B,English,Wed Aug 15 12:45:09 2018,Mouse
1,2,2,0,36,9,9,1,1240,1120,120,137,0,500,200,8000,"[(960, 540), (960, 540), (960, 540), (960, 540), (960, 540), (960, 540), (960, 540), (960, 540), (960, 540), (960, 540), (960, 540), (960, 540), (960, 540), (960, 540), (960, 540), (960, 540), (960, 540), (960, 540), (960, 540), (960, 540), (960, 540), (960, 540), (960, 540), (960, 540), (960, 540), (960, 540), (960, 540), (960, 540), (960, 540), (960, 540), (960, 540), (960, 540), (960, 540), (960, 540), (960, 540), (960, 540), (960, 540), (960, 540), (960, 540), (960, 540), (960, 540), (960, 540), (960, 540), (960, 540), (960, 540), (960, 540), (960, 540), (960, 540), (960, 540), (960, 540), (960, 540), (960, 540), (960, 540), (960, 540), (960, 540), (960, 540), (960, 540), (960, 540), (960, 540), (960, 540), (960, 540), (960, 540), (960, 540), (960, 540), (960, 540), (960, 540), (960, 540), (960, 540), (960, 540), (960, 540), (960, 540), (960, 540), (960, 540), (960, 540), (960, 540), (960, 540), (960, 540), (960, 540), (960, 540), (960, 540), (960, 540), (960, 540), (960, 540), (960, 540), (960, 540), (960, 540), (960, 540), (960, 540), (960, 540), (960, 540), (960, 540), (960, 540), (960, 540), (960, 540), (960, 540), (960, 540), (960, 540), (960, 540), (960, 540), (960, 540), (960, 540), (960, 540), (960, 540), (960, 540), (960, 540), (960, 540), (960, 540), (960, 540), (960, 540), (960, 540), (960, 540), (960, 543), (962, 560), (966, 570), (969, 583), (977, 600), (996, 633), (1011, 657), (1025, 680), (1043, 705), (1092, 775), (1120, 814), (1143, 852), (1166, 891)]",59.59155811833035,"[4, 9, 7, 3, 8, 2, 1, 5, 6]","(0, 0.25)",THI001B,THI,B,English,Wed Aug 15 12:45:09 2018,Mouse
1,2,2,0,37,5,5,1,650,450,200,136,0,500,200,8000,"[(960, 540), (960, 540), (960, 540), (960, 540), (960, 540), (960, 540), (960, 540), (960, 540), (960, 540), (960, 540), (960, 540), (960, 540), (960, 540), (960, 540), (960, 540), (960, 540), (960, 540), (960, 540), (960, 540), (960, 540), (960, 540), (960, 540), (960, 540), (960, 540), (960, 540), (960, 540), (960, 540), (960, 540), (960, 540), (960, 540), (960, 540), (960, 540), (960, 540), (960, 540), (960, 540), (960, 540), (960, 540), (960, 540), (960, 540), (960, 540), (960, 540), (960, 540), (960, 540), (960, 540), (961, 540), (961, 543), (961, 549), (963, 558), (965, 560), (965, 562), (965, 562), (966, 562), (968, 562), (969, 562), (973, 555), (987, 524), (995, 496), (1003, 473), (1009, 451), (1034, 395), (1050, 360), (1071, 325), (1094, 284), (1140, 207), (1159, 172)]",298.4027879674658,"[4, 9, 7, 3, 8, 2, 1, 5, 6]","(0, 0.25)",THI001B,THI,B,English,Wed Aug 15 12:45:09 2018,Mouse
1,2,2,0,38,6,6,1,1100,1000,100,135,0,500,200,8000,"[(960, 540), (960, 540), (960, 540), (960, 540), (960, 540), (960, 540), (960, 540), (960, 540), (960, 540), (960, 540), (960, 540), (960, 540), (960, 540), (960, 540), (960, 540), (960, 540), (960, 540), (960, 540), (960, 540), (960, 540), (960, 540), (960, 540), (960, 540), (960, 540), (960, 540), (960, 540), (960, 540), (960, 540), (960, 540), (960, 540), (960, 540), (960, 540), (960, 540), (960, 540), (960, 540), (960, 540), (960, 540), (960, 540), (960, 540), (960, 540), (960, 540), (960, 540), (960, 540), (960, 540), (960, 540), (960, 540), (960, 540), (960, 540), (960, 540), (960, 540), (960, 540), (960, 540), (960, 540), (960, 540), (960, 540), (960, 540), (960, 540), (960, 540), (960, 540), (960, 540), (960, 540), (960, 540), (960, 540), (960, 540), (960, 540), (960, 540), (960, 540), (960, 540), (960, 540), (960, 540), (960, 540), (960, 540), (960, 540), (960, 540), (960, 540), (960, 540), (960, 540), (960, 540), (960, 540), (960, 540), (960, 540), (960, 540), (960, 540), (960, 540), (960, 540), (960, 540), (960, 540), (960, 540), (960, 540), (960, 540), (960, 540), (960, 540), (960, 540), (960, 540), (960, 540), (960, 540), (960, 540), (960, 540), (960, 540), (961, 540), (967, 537), (995, 526), (1016, 522), (1050, 511), (1094, 500), (1190, 476), (1233, 461), (1277, 449), (1324, 437), (1413, 406)]",343.5214805075758,"[4, 9, 7, 3, 8, 2, 1, 5, 6]","(0, 0.25)",THI001B,THI,B,English,Wed Aug 15 12:45:09 2018,Mouse
1,2,2,0,39,9,9,1,4590,989,3601,134,0,500,200,8000,"[(960, 540), (960, 540), (960, 540), (960, 540), (960, 540), (960, 540), (960, 540), (960, 540), (960, 540), (960, 540), (960, 540), (960, 540), (960, 540), (960, 540), (960, 540), (960, 540), (960, 540), (960, 540), (960, 540), (960, 540), (960, 540), (960, 540), (960, 540), (960, 540), (960, 540), (960, 540), (960, 540), (960, 540), (960, 540), (960, 540), (960, 540), (960, 540), (960, 540), (960, 540), (960, 540), (960, 540), (960, 540), (960, 540), (960, 540), (960, 540), (960, 540), (960, 540), (960, 540), (960, 540), (960, 540), (960, 540), (960, 540), (960, 540), (960, 540), (960, 540), (960, 540), (960, 540), (960, 540), (960, 540), (960, 540), (960, 540), (960, 540), (960, 540), (960, 540), (960, 540), (960, 540), (960, 540), (960, 540), (960, 540), (960, 540), (960, 540), (960, 540), (960, 540), (960, 540), (960, 540), (960, 540), (960, 540), (960, 540), (960, 540), (960, 540), (960, 540), (960, 540), (960, 540), (960, 540), (960, 540), (960, 540), (960, 540), (960, 540), (960, 540), (960, 540), (960, 540), (960, 540), (960, 540), (960, 540), (960, 540), (960, 540), (960, 540), (960, 540), (960, 540), (960, 540), (960, 540), (960, 540), (960, 540), (955, 542), (953, 545), (951, 549), (949, 551), (947, 552), (946, 554), (946, 554), (946, 554), (946, 554), (946, 554), (946, 554), (946, 554), (946, 554), (946, 554), (946, 554), (946, 554), (946, 554), (946, 554), (946, 554), (946, 554), (946, 554), (946, 554), (946, 554), (946, 554), (946, 554), (946, 554), (946, 554), (946, 554), (946, 554), (946, 554), (946, 554), (946, 554), (946, 554), (946, 554), (946, 554), (946, 554), (946, 554), (946, 554), (946, 554), (946, 554), (946, 554), (946, 554), (946, 554), (946, 554), (946, 554), (946, 554), (946, 554), (946, 554), (946, 554), (946, 554), (946, 554), (946, 554), (946, 554), (946, 554), (946, 554), (946, 554), (946, 554), (946, 554), (946, 554), (946, 554), (946, 554), (946, 554), (946, 554), (946, 554), (946, 554), (946, 554), (946, 554), (946, 554), (946, 554), (946, 554), (946, 554), (946, 554), (946, 554), (944, 556), (944, 557), (943, 558), (942, 560), (942, 560), (942, 560), (941, 561), (941, 561), (941, 561), (941, 561), (941, 561), (941, 561), (941, 561), (941, 561), (941, 561), (941, 561), (941, 561), (941, 561), (941, 561), (941, 561), (941, 561), (941, 561), (941, 561), (941, 561), (941, 561), (941, 561), (941, 561), (941, 561), (941, 561), (941, 561), (941, 561), (941, 561), (941, 561), (941, 561), (941, 561), (941, 561), (941, 561), (941, 561), (941, 561), (941, 561), (941, 561), (941, 561), (941, 561), (941, 561), (941, 561), (941, 561), (941, 561), (941, 561), (941, 561), (941, 561), (941, 561), (941, 561), (941, 561), (941, 561), (941, 561), (941, 561), (941, 561), (941, 561), (941, 561), (941, 561), (941, 561), (941, 561), (941, 561), (941, 561), (941, 561), (941, 561), (941, 561), (941, 561), (941, 561), (941, 561), (941, 561), (941, 561), (941, 561), (941, 561), (941, 561), (941, 561), (941, 561), (941, 561), (941, 561), (941, 561), (941, 561), (941, 561), (941, 561), (941, 561), (941, 561), (941, 561), (941, 561), (941, 561), (941, 561), (941, 561), (941, 561), (941, 561), (941, 561), (941, 561), (941, 561), (941, 561), (941, 561), (941, 561), (941, 561), (941, 561), (941, 561), (941, 561), (941, 561), (941, 561), (941, 561), (941, 561), (941, 561), (941, 561), (941, 561), (941, 561), (941, 561), (941, 561), (941, 561), (941, 561), (941, 561), (941, 561), (941, 561), (941, 561), (941, 561), (941, 561), (941, 561), (941, 561), (941, 561), (941, 561), (939, 563), (939, 563), (939, 563), (939, 563), (939, 563), (939, 563), (939, 563), (939, 563), (939, 563), (939, 563), (939, 563), (939, 563), (939, 563), (939, 563), (939, 563), (939, 563), (939, 563), (939, 563), (939, 563), (939, 563), (939, 563), (939, 563), (939, 563), (939, 563), (939, 563), (939, 563), (938, 564), (938, 564), (938, 564), (938, 564), (938, 564), (938, 564), (938, 564), (938, 564), (938, 564), (938, 564), (938, 564), (938, 564), (938, 564), (938, 564), (938, 564), (938, 564), (938, 564), (938, 564), (938, 564), (938, 564), (938, 564), (938, 564), (938, 564), (938, 564), (938, 564), (938, 564), (938, 564), (938, 564), (938, 564), (938, 564), (938, 564), (938, 564), (938, 564), (938, 564), (938, 564), (938, 564), (938, 564), (938, 564), (938, 564), (938, 564), (938, 564), (938, 564), (938, 564), (938, 564), (938, 564), (938, 564), (938, 564), (938, 564), (938, 564), (938, 564), (938, 564), (938, 564), (938, 564), (938, 564), (938, 564), (938, 564), (938, 564), (938, 564), (938, 564), (938, 564), (938, 564), (938, 564), (938, 564), (938, 564), (938, 564), (938, 564), (938, 564), (938, 564), (938, 564), (938, 564), (938, 564), (938, 564), (938, 564), (938, 564), (938, 564), (938, 564), (938, 564), (938, 564), (938, 564), (938, 564), (938, 564), (938, 564), (938, 564), (938, 564), (938, 564), (938, 564), (938, 564), (938, 564), (938, 564), (938, 564), (938, 564), (938, 564), (938, 564), (938, 564), (938, 564), (938, 564), (938, 564), (938, 564), (938, 564), (938, 564), (938, 564), (938, 564), (938, 564), (938, 566), (938, 566), (938, 570), (938, 573), (939, 576), (943, 580), (951, 591), (958, 599), (962, 604), (966, 608), (975, 623), (978, 631), (984, 641), (987, 649), (989, 666), (991, 676), (994, 683), (997, 692), (1003, 711), (1008, 723), (1013, 733), (1020, 744), (1033, 765), (1038, 773), (1045, 786), (1052, 801), (1062, 827), (1068, 843), (1075, 856), (1081, 869), (1090, 889), (1094, 896), (1096, 904), (1101, 911), (1106, 922)]",69.08319619665728,"[4, 9, 7, 3, 8, 2, 1, 5, 6]","(0, 0.25)",THI001B,THI,B,English,Wed Aug 15 12:45:09 2018,Mouse
1,2,2,0,40,7,3,0,-579,129,450,133,0,500,200,8000,"[(960, 540), (960, 540), (960, 540), (960, 540), (960, 540), (960, 540), (960, 540), (960, 540), (960, 540), (960, 540), (960, 540), (960, 540), (959, 540), (959, 540), (959, 540), (959, 540), (959, 540), (959, 540), (959, 540), (959, 540), (959, 540), (959, 540), (959, 540), (959, 540), (959, 540), (959, 540), (959, 540), (959, 540), (959, 540), (959, 540), (959, 540), (959, 540), (959, 540), (959, 540), (959, 540), (959, 540), (959, 540), (959, 540), (959, 540), (959, 540), (952, 543), (934, 553), (891, 578), (866, 593), (841, 612), (816, 628), (773, 660), (756, 671), (739, 682), (724, 695), (696, 714), (683, 724), (672, 732), (665, 737), (647, 749), (637, 757), (629, 763), (622, 769)]",145.88177904789276,"[4, 9, 7, 3, 8, 2, 1, 5, 6]","(0, 0.25)",THI001B,THI,B,English,Wed Aug 15 12:45:09 2018,Mouse
1,2,2,0,41,7,2,0,-2599,2359,240,134,0,500,200,8000,"[(960, 540), (960, 540), (960, 540), (960, 540), (960, 540), (960, 540), (960, 540), (960, 540), (960, 540), (960, 540), (960, 540), (960, 540), (960, 540), (960, 540), (960, 540), (960, 540), (960, 540), (960, 540), (960, 540), (960, 540), (960, 540), (960, 540), (960, 540), (960, 540), (960, 540), (960, 540), (960, 540), (960, 540), (960, 540), (960, 540), (960, 540), (960, 540), (960, 540), (960, 540), (960, 540), (960, 540), (960, 540), (960, 540), (960, 540), (960, 540), (960, 540), (960, 540), (960, 540), (960, 540), (960, 540), (960, 540), (960, 540), (960, 540), (960, 540), (960, 540), (960, 540), (960, 540), (960, 540), (960, 540), (960, 540), (960, 540), (960, 540), (960, 540), (960, 540), (960, 540), (960, 540), (960, 540), (960, 540), (960, 540), (960, 540), (960, 540), (960, 540), (960, 540), (960, 540), (960, 540), (960, 540), (960, 540), (960, 540), (960, 540), (960, 540), (960, 540), (960, 540), (960, 540), (960, 540), (960, 540), (960, 540), (960, 540), (960, 540), (960, 540), (960, 540), (960, 540), (960, 540), (960, 540), (960, 540), (960, 540), (960, 540), (960, 540), (960, 540), (960, 540), (960, 540), (960, 540), (960, 540), (960, 540), (960, 540), (960, 540), (960, 540), (960, 540), (960, 540), (960, 540), (960, 540), (960, 540), (960, 540), (960, 540), (960, 540), (960, 540), (960, 540), (960, 540), (960, 540), (960, 540), (960, 540), (960, 540), (960, 540), (960, 540), (960, 540), (960, 540), (960, 540), (960, 540), (960, 540), (960, 540), (960, 540), (960, 540), (960, 540), (960, 540), (960, 540), (960, 540), (960, 540), (960, 540), (960, 540), (960, 540), (960, 540), (960, 540), (960, 540), (960, 540), (960, 540), (960, 540), (960, 540), (960, 540), (960, 540), (960, 540), (960, 540), (960, 540), (960, 540), (960, 540), (960, 540), (960, 540), (960, 540), (960, 540), (960, 540), (960, 540), (960, 540), (960, 540), (960, 540), (960, 540), (960, 540), (960, 540), (960, 540), (960, 540), (960, 540), (960, 540), (960, 540), (960, 540), (960, 540), (960, 540), (960, 540), (960, 540), (960, 540), (960, 540), (960, 540), (960, 540), (960, 540), (960, 540), (960, 540), (960, 540), (960, 540), (960, 540), (960, 540), (960, 540), (960, 540), (960, 540), (960, 540), (960, 540), (960, 540), (960, 540), (960, 540), (960, 540), (960, 540), (960, 540), (960, 540), (960, 540), (960, 540), (960, 540), (960, 540), (960, 540), (960, 540), (960, 540), (960, 540), (960, 540), (960, 540), (960, 540), (960, 540), (960, 540), (960, 540), (960, 540), (960, 540), (960, 540), (960, 540), (960, 540), (960, 540), (960, 540), (960, 540), (960, 540), (960, 540), (960, 540), (960, 540), (960, 540), (960, 540), (960, 540), (960, 540), (960, 540), (960, 540), (960, 540), (960, 540), (960, 540), (960, 540), (960, 540), (960, 540), (960, 540), (960, 540), (960, 540), (960, 540), (960, 538), (959, 536), (954, 534), (949, 532), (938, 528), (931, 527), (924, 525), (920, 525), (904, 517), (898, 512), (889, 505), (880, 498), (862, 483), (853, 475), (843, 468), (831, 459), (802, 436), (782, 421), (764, 406), (741, 388), (698, 356), (684, 346), (667, 335), (655, 327), (633, 302)]",216.04820442563752,"[4, 9, 7, 3, 8, 2, 1, 5, 6]","(0, 0.25)",THI001B,THI,B,English,Wed Aug 15 12:45:09 2018,Mouse
1,2,2,0,42,8,4,0,-859,549,310,135,0,500,200,8000,"[(960, 540), (960, 540), (960, 540), (960, 540), (960, 540), (960, 540), (960, 540), (960, 540), (960, 540), (960, 540), (960, 540), (960, 540), (960, 540), (960, 540), (960, 540), (960, 540), (960, 540), (960, 540), (960, 540), (960, 540), (960, 540), (960, 540), (960, 540), (960, 540), (960, 540), (960, 540), (960, 540), (960, 540), (960, 540), (960, 540), (960, 540), (960, 540), (960, 540), (960, 540), (960, 540), (960, 540), (960, 540), (960, 540), (960, 540), (960, 540), (960, 540), (960, 540), (960, 540), (960, 540), (960, 540), (960, 540), (960, 540), (960, 540), (960, 540), (960, 540), (960, 540), (960, 540), (960, 540), (960, 540), (962, 540), (964, 540), (967, 540), (970, 540), (975, 540), (979, 541), (981, 542), (982, 542), (984, 543), (984, 543), (985, 543), (985, 543), (989, 545), (994, 546), (1001, 549), (1009, 552), (1026, 557), (1039, 562), (1051, 564), (1066, 569), (1108, 582), (1127, 586), (1147, 591), (1169, 597), (1214, 611), (1239, 619), (1259, 624), (1277, 633), (1301, 643), (1315, 649), (1330, 655), (1347, 665)]",17.90032254012768,"[4, 9, 7, 3, 8, 2, 1, 5, 6]","(0, 0.25)",THI001B,THI,B,English,Wed Aug 15 12:45:09 2018,Mouse
1,2,2,0,43,6,6,1,1078,958,120,136,0,500,200,8000,"[(960, 540), (960, 540), (960, 540), (960, 540), (960, 540), (960, 540), (960, 540), (960, 540), (960, 540), (960, 540), (960, 540), (960, 540), (960, 540), (960, 540), (960, 540), (960, 540), (960, 540), (960, 540), (960, 540), (960, 540), (960, 540), (960, 540), (960, 540), (960, 540), (960, 540), (960, 540), (960, 540), (960, 540), (960, 540), (960, 540), (960, 540), (960, 540), (960, 540), (960, 540), (960, 540), (960, 540), (960, 540), (960, 540), (960, 540), (960, 540), (960, 540), (960, 540), (960, 540), (960, 540), (960, 540), (960, 540), (960, 540), (960, 540), (960, 540), (960, 540), (960, 540), (960, 540), (960, 540), (960, 540), (960, 540), (960, 540), (960, 540), (960, 540), (960, 540), (960, 540), (960, 540), (960, 540), (960, 540), (960, 540), (960, 540), (960, 540), (960, 540), (960, 540), (960, 540), (960, 540), (960, 540), (960, 540), (960, 540), (960, 540), (960, 540), (960, 540), (960, 540), (960, 540), (960, 540), (960, 540), (960, 540), (960, 540), (960, 540), (960, 540), (960, 540), (960, 540), (960, 540), (960, 540), (960, 540), (960, 540), (960, 540), (960, 540), (960, 540), (960, 540), (960, 540), (965, 534), (993, 520), (1033, 501), (1067, 487), (1123, 470), (1138, 469), (1156, 464), (1181, 456), (1221, 445), (1246, 437), (1274, 429), (1301, 422), (1349, 409)]",341.3884853892771,"[4, 9, 7, 3, 8, 2, 1, 5, 6]","(0, 0.25)",THI001B,THI,B,English,Wed Aug 15 12:45:09 2018,Mouse
1,2,2,0,44,3,3,1,791,461,330,136,0,500,200,8000,"[(960, 540), (960, 540), (960, 540), (960, 540), (960, 540), (960, 540), (960, 540), (960, 540), (960, 540), (960, 540), (960, 540), (960, 540), (960, 540), (960, 540), (960, 540), (960, 540), (960, 540), (960, 540), (960, 540), (960, 540), (960, 540), (960, 540), (960, 540), (960, 540), (960, 540), (960, 540), (960, 540), (960, 540), (960, 540), (960, 540), (960, 540), (960, 540), (960, 540), (960, 540), (960, 540), (960, 540), (960, 540), (960, 540), (960, 540), (960, 540), (960, 540), (960, 540), (960, 540), (960, 540), (960, 540), (960, 540), (955, 542), (943, 551), (934, 558), (925, 566), (916, 573), (888, 596), (879, 605), (870, 613), (861, 621), (852, 631), (850, 632), (848, 636), (845, 639), (841, 645), (837, 651), (833, 660), (827, 667), (807, 697), (794, 712), (783, 725), (773, 739), (757, 757), (751, 765), (744, 771), (739, 775), (725, 786), (719, 792), (710, 799), (702, 803), (689, 812), (685, 816), (682, 819), (677, 821), (673, 823)]",135.4020690457056,"[4, 9, 7, 3, 8, 2, 1, 5, 6]","(0, 0.25)",THI001B,THI,B,English,Wed Aug 15 12:45:09 2018,Mouse
1,2,2,0,45,2,2,1,590,360,230,135,0,500,200,8000,"[(960, 540), (960, 540), (960, 540), (960, 540), (960, 540), (960, 540), (960, 540), (960, 540), (960, 540), (960, 540), (960, 540), (960, 540), (960, 540), (960, 540), (960, 540), (960, 540), (960, 540), (960, 540), (960, 540), (960, 540), (960, 540), (960, 540), (960, 540), (960, 540), (960, 540), (960, 540), (960, 540), (960, 540), (960, 540), (960, 540), (960, 540), (960, 540), (960, 540), (960, 540), (960, 540), (960, 539), (960, 537), (955, 534), (939, 522), (928, 509), (917, 497), (906, 482), (883, 455), (870, 438), (856, 422), (840, 406), (807, 379), (795, 368), (780, 356), (771, 347), (753, 329), (744, 321), (734, 310), (728, 303), (710, 286), (698, 276), (689, 272), (679, 266), (652, 253)]",222.97863505964398,"[4, 9, 7, 3, 8, 2, 1, 5, 6]","(0, 0.25)",THI001B,THI,B,English,Wed Aug 15 12:45:09 2018,Mouse
1,2,2,0,46,3,3,1,489,329,160,134,0,500,200,8000,"[(960, 540), (960, 540), (960, 540), (960, 540), (960, 540), (960, 540), (960, 540), (960, 540), (960, 540), (960, 540), (960, 540), (960, 540), (960, 540), (960, 540), (960, 540), (960, 540), (960, 540), (960, 540), (960, 540), (960, 540), (960, 540), (960, 540), (960, 540), (960, 540), (960, 540), (960, 540), (960, 540), (960, 540), (960, 540), (960, 540), (960, 540), (960, 540), (959, 543), (948, 551), (909, 572), (893, 582), (876, 591), (860, 602), (817, 632), (795, 648), (772, 666), (749, 684), (720, 712), (709, 728), (697, 743), (688, 757), (668, 784), (658, 800), (643, 820)]",138.54645859320553,"[4, 9, 7, 3, 8, 2, 1, 5, 6]","(0, 0.25)",THI001B,THI,B,English,Wed Aug 15 12:45:09 2018,Mouse
1,2,2,0,47,3,3,1,359,209,150,133,0,500,200,8000,"[(960, 540), (960, 540), (960, 540), (960, 540), (960, 540), (960, 540), (960, 540), (960, 540), (960, 540), (960, 540), (960, 540), (960, 540), (960, 540), (960, 540), (960, 540), (960, 540), (960, 540), (960, 540), (960, 540), (960, 540), (955, 540), (944, 548), (936, 557), (927, 567), (911, 586), (904, 595), (897, 604), (886, 618), (863, 643), (842, 664), (816, 687), (787, 712), (727, 763), (704, 781), (677, 804), (660, 819)]",137.07717476516282,"[4, 9, 7, 3, 8, 2, 1, 5, 6]","(0, 0.25)",THI001B,THI,B,English,Wed Aug 15 12:45:09 2018,Mouse
1,2,2,0,48,4,7,0,-451,321,130,132,0,500,200,8000,"[(960, 540), (960, 540), (960, 540), (960, 540), (960, 540), (960, 540), (960, 540), (960, 540), (960, 540), (960, 540), (960, 540), (960, 540), (960, 540), (960, 540), (960, 540), (960, 540), (960, 540), (960, 540), (960, 540), (960, 540), (960, 540), (960, 540), (960, 540), (960, 540), (960, 540), (960, 540), (960, 540), (960, 540), (960, 540), (960, 540), (960, 540), (960, 540), (959, 540), (958, 544), (958, 546), (957, 549), (957, 553), (957, 556), (957, 559), (954, 564), (947, 587), (931, 617), (918, 654), (891, 713), (834, 851), (810, 923)]",111.387541979309,"[4, 9, 7, 3, 8, 2, 1, 5, 6]","(0, 0.25)",THI001B,THI,B,English,Wed Aug 15 12:45:09 2018,Mouse
1,2,2,0,49,1,2,0,-1429,1029,400,133,0,500,200,8000,"[(960, 540), (960, 540), (960, 540), (960, 540), (960, 540), (960, 540), (960, 540), (960, 540), (960, 540), (960, 540), (960, 540), (960, 540), (960, 540), (960, 540), (960, 540), (960, 540), (960, 540), (960, 540), (960, 540), (960, 540), (960, 540), (960, 540), (960, 540), (960, 540), (960, 540), (960, 540), (960, 540), (960, 540), (960, 540), (960, 540), (960, 540), (960, 540), (960, 540), (960, 540), (960, 540), (960, 540), (960, 540), (960, 540), (960, 540), (960, 540), (960, 540), (960, 540), (960, 540), (960, 540), (960, 540), (960, 540), (960, 540), (960, 540), (960, 540), (960, 540), (960, 540), (960, 540), (960, 540), (960, 540), (960, 540), (960, 540), (960, 540), (960, 540), (960, 540), (960, 540), (960, 540), (960, 540), (960, 540), (960, 540), (960, 540), (960, 540), (960, 540), (960, 540), (960, 540), (960, 540), (960, 540), (960, 540), (960, 540), (960, 540), (960, 540), (960, 540), (960, 540), (960, 540), (960, 540), (960, 540), (960, 540), (960, 540), (960, 540), (960, 540), (960, 540), (960, 540), (960, 540), (960, 540), (960, 540), (960, 540), (960, 540), (960, 540), (960, 540), (960, 540), (960, 540), (960, 540), (960, 540), (960, 540), (960, 540), (960, 540), (960, 540), (960, 540), (960, 539), (960, 539), (960, 539), (959, 539), (959, 539), (958, 539), (958, 539), (957, 538), (957, 538), (956, 538), (956, 538), (955, 538), (955, 538), (955, 538), (955, 538), (955, 538), (955, 538), (955, 538), (955, 538), (955, 538), (955, 538), (955, 538), (955, 538), (955, 538), (955, 538), (955, 538), (955, 538), (951, 535), (947, 532), (942, 529), (934, 524), (917, 513), (900, 505), (879, 496), (857, 484), (803, 451), (769, 427), (736, 407), (708, 386), (644, 342), (618, 321)]",212.63350284678518,"[4, 9, 7, 3, 8, 2, 1, 5, 6]","(0, 0.25)",THI001B,THI,B,English,Wed Aug 15 12:45:09 2018,Mouse
1,2,2,0,50,5,2,0,-871,771,100,134,0,500,200,8000,"[(960, 540), (960, 540), (960, 540), (960, 540), (960, 540), (960, 540), (960, 540), (960, 540), (960, 540), (960, 540), (960, 540), (960, 540), (960, 540), (960, 540), (960, 540), (960, 540), (960, 540), (960, 540), (960, 540), (960, 540), (960, 540), (960, 540), (960, 540), (960, 540), (960, 540), (960, 540), (960, 540), (960, 540), (960, 540), (960, 540), (960, 540), (960, 540), (960, 540), (960, 540), (960, 540), (960, 540), (960, 540), (960, 540), (960, 540), (960, 540), (960, 540), (960, 540), (960, 540), (960, 540), (960, 540), (960, 540), (960, 540), (960, 540), (960, 540), (960, 540), (960, 540), (960, 540), (960, 540), (960, 540), (960, 540), (960, 540), (960, 540), (960, 540), (960, 540), (960, 540), (960, 540), (960, 540), (960, 540), (960, 540), (960, 540), (960, 540), (960, 540), (960, 540), (960, 540), (960, 540), (960, 540), (960, 540), (960, 540), (960, 540), (960, 540), (960, 540), (960, 540), (960, 539), (944, 505), (931, 483), (910, 455), (885, 428), (831, 376), (807, 350), (775, 324), (749, 299), (691, 248), (665, 230)]",226.42026554639904,"[4, 9, 7, 3, 8, 2, 1, 5, 6]","(0, 0.25)",THI001B,THI,B,English,Wed Aug 15 12:45:09 2018,Mouse
1,2,2,0,51,5,5,1,560,360,200,135,0,500,200,8000,"[(960, 540), (960, 540), (960, 540), (960, 540), (960, 540), (960, 540), (960, 540), (960, 540), (960, 540), (960, 540), (960, 540), (960, 540), (960, 540), (960, 540), (960, 540), (960, 540), (960, 540), (960, 540), (960, 540), (960, 540), (960, 540), (960, 540), (960, 540), (960, 540), (960, 540), (960, 540), (960, 540), (960, 540), (960, 540), (960, 540), (960, 540), (960, 540), (960, 540), (960, 540), (960, 540), (960, 541), (960, 541), (960, 541), (960, 541), (960, 541), (958, 541), (958, 541), (958, 537), (958, 530), (965, 520), (983, 488), (998, 464), (1010, 442), (1027, 414), (1059, 355), (1072, 328), (1089, 294), (1101, 262), (1124, 212), (1129, 193), (1133, 179)]",295.6048766104116,"[4, 9, 7, 3, 8, 2, 1, 5, 6]","(0, 0.25)",THI001B,THI,B,English,Wed Aug 15 12:45:09 2018,Mouse
1,2,2,0,52,3,3,1,470,270,200,135,0,500,200,8000,"[(960, 540), (960, 540), (960, 540), (960, 540), (960, 540), (960, 540), (960, 540), (960, 540), (960, 540), (960, 540), (960, 540), (960, 540), (960, 540), (960, 540), (960, 540), (960, 540), (960, 540), (960, 540), (960, 540), (960, 540), (960, 540), (960, 540), (960, 540), (960, 540), (960, 540), (960, 540), (959, 540), (957, 540), (932, 559), (914, 576), (896, 591), (883, 602), (859, 628), (847, 643), (838, 653), (828, 665), (808, 692), (796, 707), (781, 725), (767, 740), (737, 765), (725, 776), (714, 785), (704, 793), (686, 811), (681, 817), (676, 824)]",135.0,"[4, 9, 7, 3, 8, 2, 1, 5, 6]","(0, 0.25)",THI001B,THI,B,English,Wed Aug 15 12:45:09 2018,Mouse
1,2,2,0,53,8,7,0,-370,160,210,134,0,500,200,8000,"[(960, 540), (960, 540), (960, 540), (960, 540), (960, 540), (960, 540), (960, 540), (960, 540), (960, 540), (960, 540), (960, 540), (960, 540), (960, 540), (960, 540), (960, 540), (959, 544), (955, 555), (953, 558), (951, 564), (950, 567), (949, 574), (948, 576), (947, 580), (944, 585), (937, 609), (932, 629), (923, 659), (913, 693), (889, 766), (880, 796), (872, 824), (868, 846), (858, 873), (856, 885), (851, 900), (845, 917), (834, 951)]",107.04393393631568,"[4, 9, 7, 3, 8, 2, 1, 5, 6]","(0, 0.25)",THI001B,THI,B,English,Wed Aug 15 12:45:09 2018,Mouse
1,2,2,0,54,7,3,0,-429,289,140,135,0,500,200,8000,"[(960, 540), (960, 540), (960, 540), (960, 540), (960, 540), (960, 540), (960, 540), (960, 540), (960, 540), (960, 540), (960, 540), (960, 540), (960, 540), (960, 540), (960, 540), (960, 540), (960, 540), (960, 540), (960, 540), (960, 540), (960, 540), (960, 540), (960, 540), (960, 540), (960, 540), (960, 540), (960, 540), (960, 540), (955, 542), (929, 561), (865, 607), (839, 625), (818, 645), (800, 659), (775, 682), (765, 691), (756, 703), (748, 713), (727, 743), (711, 766), (698, 783), (684, 803), (652, 846)]",135.18663054356557,"[4, 9, 7, 3, 8, 2, 1, 5, 6]","(0, 0.25)",THI001B,THI,B,English,Wed Aug 15 12:45:09 2018,Mouse
1,2,2,0,55,8,4,0,-789,659,130,136,0,500,200,8000,"[(960, 540), (960, 540), (960, 540), (960, 540), (960, 540), (960, 540), (960, 540), (960, 540), (960, 540), (960, 540), (960, 540), (960, 540), (960, 540), (960, 540), (960, 540), (960, 540), (960, 540), (960, 540), (960, 540), (960, 540), (960, 540), (960, 540), (960, 540), (960, 540), (960, 540), (960, 540), (960, 540), (960, 540), (960, 540), (960, 540), (960, 540), (960, 540), (960, 540), (960, 540), (960, 540), (960, 540), (960, 540), (960, 540), (960, 540), (960, 540), (960, 540), (960, 540), (960, 540), (960, 540), (960, 540), (960, 540), (960, 540), (960, 540), (960, 540), (960, 540), (960, 540), (960, 540), (960, 540), (960, 540), (960, 540), (960, 540), (960, 540), (960, 540), (960, 540), (960, 540), (960, 540), (960, 540), (960, 540), (960, 540), (960, 540), (962, 540), (969, 543), (977, 547), (986, 552), (997, 558), (1031, 577), (1055, 588), (1078, 598), (1110, 612), (1176, 640), (1211, 657), (1250, 670), (1284, 683), (1362, 703)]",22.071207823825393,"[4, 9, 7, 3, 8, 2, 1, 5, 6]","(0, 0.25)",THI001B,THI,B,English,Wed Aug 15 12:45:09 2018,Mouse
1,2,2,0,56,2,2,1,530,350,180,137,0,500,200,8000,"[(960, 540), (960, 540), (960, 540), (960, 540), (960, 540), (960, 540), (960, 540), (960, 540), (960, 540), (960, 540), (960, 540), (960, 540), (960, 540), (960, 540), (960, 540), (960, 540), (960, 540), (960, 540), (960, 540), (960, 540), (960, 540), (960, 540), (960, 540), (960, 540), (960, 540), (960, 540), (960, 540), (960, 540), (960, 540), (960, 540), (960, 540), (960, 540), (960, 540), (960, 540), (958, 538), (958, 535), (956, 531), (953, 528), (945, 516), (939, 512), (933, 508), (927, 502), (906, 485), (891, 472), (873, 456), (856, 445), (815, 418), (782, 402), (759, 391), (724, 375), (660, 348), (626, 336), (599, 321)]",211.24301888365616,"[4, 9, 7, 3, 8, 2, 1, 5, 6]","(0, 0.25)",THI001B,THI,B,English,Wed Aug 15 12:45:09 2018,Mouse
1,2,2,0,57,1,1,1,329,189,140,137,0,500,200,8000,"[(960, 540), (960, 540), (960, 540), (960, 540), (960, 540), (960, 540), (960, 540), (960, 540), (960, 540), (960, 540), (960, 540), (960, 540), (960, 540), (960, 540), (960, 540), (960, 540), (960, 540), (960, 540), (959, 540), (959, 538), (959, 516), (959, 493), (959, 462), (956, 428), (945, 353), (942, 326), (937, 299), (935, 268), (934, 215), (934, 195), (934, 175), (934, 162), (934, 136)]",266.3177259376947,"[4, 9, 7, 3, 8, 2, 1, 5, 6]","(0, 0.25)",THI001B,THI,B,English,Wed Aug 15 12:45:09 2018,Mouse
1,2,2,0,58,1,1,1,290,110,180,136,0,500,200,8000,"[(960, 540), (960, 540), (960, 540), (960, 540), (960, 540), (960, 540), (960, 540), (960, 540), (960, 540), (960, 540), (960, 526), (960, 501), (953, 468), (938, 433), (916, 374), (905, 352), (898, 337), (891, 325), (884, 304), (882, 293), (882, 281), (882, 269), (882, 244), (882, 232), (883, 218), (888, 202), (897, 169), (902, 152), (907, 140)]",262.4522742261569,"[4, 9, 7, 3, 8, 2, 1, 5, 6]","(0, 0.25)",THI001B,THI,B,English,Wed Aug 15 12:45:09 2018,Mouse
1,2,2,0,59,2,2,1,469,299,170,135,0,500,200,8000,"[(960, 540), (960, 540), (960, 540), (960, 540), (960, 540), (960, 540), (960, 540), (960, 540), (960, 540), (960, 540), (960, 540), (960, 540), (960, 540), (960, 540), (960, 540), (960, 540), (960, 540), (960, 540), (960, 540), (960, 540), (960, 540), (960, 540), (960, 540), (960, 540), (960, 540), (960, 540), (960, 540), (960, 540), (960, 540), (958, 540), (956, 540), (952, 539), (944, 536), (939, 534), (935, 532), (930, 529), (908, 518), (895, 510), (876, 499), (857, 489), (811, 461), (781, 442), (750, 420), (724, 397), (669, 351), (645, 331), (623, 305)]",214.88919637761543,"[4, 9, 7, 3, 8, 2, 1, 5, 6]","(0, 0.25)",THI001B,THI,B,English,Wed Aug 15 12:45:09 2018,Mouse
