NativeLangNumber,LanuageNumber,SessionNumber,Block,TrialNum,ConditionNumber,Response,Accuracy,RT,MovementOnsetTime,TimeInMotion,SignalContrast,SignalContrastNumber,StimDisplayTime,MaskTime,MaxResponseTime,MousePositionXY,MouseAngle,WheelOrder,NoiseMuSigma,ParticipantID,LanuageTested,SessionTested,NativeLanuage,Date,ResponseDevice
1,2,1,0,1,4,4,1,2411,1171,1240,153,0,500,200,8000,"[(960, 540), (960, 540), (960, 540), (960, 540), (960, 540), (960, 540), (960, 540), (960, 540), (960, 540), (960, 540), (960, 540), (960, 540), (960, 540), (960, 540), (960, 540), (960, 540), (960, 540), (960, 540), (960, 540), (960, 540), (960, 540), (960, 540), (960, 540), (960, 540), (960, 540), (960, 540), (960, 540), (960, 540), (960, 540), (960, 540), (960, 540), (960, 540), (960, 540), (960, 540), (960, 540), (960, 540), (960, 540), (960, 540), (960, 540), (960, 540), (960, 540), (960, 540), (960, 540), (960, 540), (960, 540), (960, 540), (960, 540), (960, 540), (960, 540), (960, 540), (960, 540), (960, 540), (960, 540), (960, 540), (960, 540), (960, 540), (960, 540), (960, 540), (960, 540), (960, 540), (960, 540), (960, 540), (960, 540), (960, 540), (960, 540), (960, 540), (960, 540), (960, 540), (960, 540), (960, 540), (960, 540), (960, 540), (960, 540), (960, 540), (960, 540), (960, 540), (960, 540), (960, 540), (960, 540), (960, 540), (960, 540), (960, 540), (960, 540), (960, 540), (960, 540), (960, 540), (960, 540), (960, 540), (960, 540), (960, 540), (960, 540), (960, 540), (960, 540), (960, 540), (960, 540), (960, 540), (960, 540), (960, 540), (960, 540), (960, 540), (960, 540), (960, 540), (960, 540), (960, 540), (960, 540), (960, 540), (960, 540), (960, 540), (960, 540), (960, 540), (960, 540), (960, 540), (960, 540), (960, 540), (960, 540), (960, 540), (960, 540), (962, 540), (963, 540), (964, 540), (965, 540), (967, 540), (967, 540), (967, 540), (967, 540), (967, 540), (967, 540), (967, 540), (967, 540), (967, 540), (967, 540), (967, 540), (967, 540), (967, 540), (967, 540), (967, 540), (967, 540), (967, 540), (967, 540), (967, 540), (967, 540), (967, 540), (967, 540), (967, 540), (967, 540), (967, 540), (967, 540), (967, 540), (967, 540), (967, 540), (967, 540), (967, 540), (967, 540), (967, 540), (967, 540), (967, 540), (967, 540), (967, 540), (967, 540), (967, 540), (967, 542), (967, 543), (966, 544), (966, 544), (964, 544), (963, 544), (962, 544), (962, 544), (960, 545), (960, 545), (960, 545), (960, 545), (960, 545), (960, 545), (960, 545), (960, 545), (960, 545), (960, 545), (960, 545), (960, 545), (960, 545), (960, 545), (960, 545), (960, 545), (960, 545), (960, 545), (960, 545), (960, 545), (960, 545), (960, 545), (960, 545), (960, 545), (960, 545), (960, 545), (960, 545), (960, 545), (960, 545), (960, 545), (960, 545), (960, 545), (960, 545), (960, 545), (960, 545), (960, 545), (960, 545), (960, 545), (960, 545), (960, 545), (960, 545), (961, 542), (961, 542), (963, 539), (963, 538), (963, 536), (964, 533), (964, 528), (965, 521), (969, 507), (971, 499), (974, 491), (976, 485), (982, 472), (987, 459), (996, 442), (1004, 427), (1016, 404), (1024, 392), (1030, 385), (1034, 379), (1037, 372), (1038, 368), (1041, 362), (1043, 354), (1051, 330), (1057, 317), (1065, 303), (1071, 292), (1082, 274), (1089, 263), (1101, 248), (1117, 225), (1147, 173)]",297.0005156005671,"[2, 9, 7, 8, 1, 6, 5, 4, 3]","(0, 0.25)",THI009A,THI,A,English,Fri Aug 24 10:18:36 2018,Mouse
1,2,1,0,2,2,2,1,1829,439,1390,153,0,500,200,8000,"[(960, 540), (960, 540), (960, 540), (960, 540), (960, 540), (960, 540), (960, 540), (960, 540), (960, 540), (960, 540), (960, 540), (960, 540), (960, 540), (960, 540), (960, 540), (960, 540), (960, 540), (960, 540), (960, 540), (960, 540), (960, 540), (960, 540), (960, 540), (960, 540), (960, 540), (960, 540), (960, 540), (960, 540), (960, 540), (960, 540), (960, 540), (960, 540), (960, 540), (960, 540), (960, 540), (960, 540), (960, 540), (960, 540), (960, 540), (960, 540), (960, 540), (960, 540), (960, 540), (960, 542), (960, 542), (959, 544), (958, 544), (957, 545), (957, 545), (957, 545), (956, 547), (956, 547), (956, 547), (956, 547), (956, 547), (956, 547), (956, 547), (955, 548), (955, 548), (955, 549), (955, 549), (955, 551), (954, 552), (954, 552), (954, 553), (954, 554), (954, 556), (954, 558), (954, 559), (954, 562), (955, 564), (956, 566), (956, 566), (957, 569), (957, 569), (957, 569), (957, 570), (957, 570), (957, 570), (957, 570), (957, 570), (957, 570), (957, 570), (957, 570), (957, 570), (957, 570), (957, 570), (957, 570), (957, 570), (957, 570), (957, 570), (957, 570), (957, 570), (957, 570), (957, 570), (957, 570), (957, 570), (957, 570), (957, 570), (957, 570), (957, 570), (957, 570), (957, 570), (957, 570), (957, 570), (957, 570), (957, 570), (957, 570), (957, 570), (957, 570), (957, 570), (957, 570), (957, 570), (957, 570), (957, 570), (957, 570), (957, 570), (957, 570), (957, 570), (957, 570), (957, 570), (957, 570), (957, 570), (957, 570), (957, 570), (957, 570), (957, 570), (957, 570), (957, 570), (957, 570), (957, 570), (957, 570), (957, 570), (957, 570), (957, 570), (957, 570), (957, 570), (957, 570), (957, 570), (957, 570), (957, 570), (957, 570), (957, 570), (957, 570), (957, 570), (957, 570), (957, 570), (957, 570), (957, 570), (957, 570), (957, 570), (957, 570), (957, 570), (957, 570), (957, 570), (957, 570), (960, 570), (967, 570), (979, 572), (988, 573), (995, 576), (1006, 579), (1034, 586), (1047, 591), (1067, 598), (1083, 600), (1109, 608), (1120, 611), (1133, 616), (1143, 619), (1165, 626), (1175, 628), (1185, 632), (1195, 636), (1215, 644), (1224, 648), (1234, 654), (1246, 658), (1268, 671), (1279, 675), (1294, 681), (1317, 691), (1367, 713)]",23.0284729033546,"[2, 9, 7, 8, 1, 6, 5, 4, 3]","(0, 0.25)",THI009A,THI,A,English,Fri Aug 24 10:18:36 2018,Mouse
1,2,1,0,3,5,5,1,919,699,220,152,0,500,200,8000,"[(960, 540), (960, 540), (960, 540), (960, 540), (960, 540), (960, 540), (960, 540), (960, 540), (960, 540), (960, 540), (960, 540), (960, 540), (960, 540), (960, 540), (960, 540), (960, 540), (960, 540), (960, 540), (960, 540), (960, 540), (960, 540), (960, 540), (960, 540), (960, 540), (960, 540), (960, 540), (960, 540), (960, 540), (960, 540), (960, 540), (960, 540), (960, 540), (960, 540), (960, 540), (960, 540), (960, 540), (960, 540), (960, 540), (960, 540), (960, 540), (960, 540), (960, 540), (960, 540), (960, 540), (960, 540), (960, 540), (960, 540), (960, 540), (960, 540), (960, 540), (960, 540), (960, 540), (960, 540), (960, 540), (960, 540), (960, 540), (960, 540), (960, 540), (960, 540), (960, 540), (960, 540), (960, 540), (960, 540), (960, 540), (960, 540), (960, 540), (960, 540), (960, 540), (960, 540), (960, 538), (958, 527), (956, 517), (953, 504), (952, 492), (947, 467), (944, 455), (940, 427), (934, 384), (918, 305), (910, 282), (908, 267), (903, 252), (896, 228), (895, 219), (893, 209), (892, 202), (891, 187), (891, 178), (891, 173), (890, 167), (886, 154), (883, 147)]",258.91453564107985,"[2, 9, 7, 8, 1, 6, 5, 4, 3]","(0, 0.25)",THI009A,THI,A,English,Fri Aug 24 10:18:36 2018,Mouse
1,2,1,0,4,6,6,1,620,170,450,151,0,500,200,8000,"[(960, 540), (960, 540), (960, 540), (960, 540), (960, 540), (960, 540), (960, 540), (960, 540), (960, 540), (960, 540), (960, 540), (960, 540), (960, 540), (960, 540), (960, 540), (960, 540), (960, 541), (960, 541), (960, 541), (960, 541), (960, 541), (960, 541), (960, 541), (960, 541), (960, 541), (960, 542), (960, 542), (960, 544), (960, 545), (961, 550), (962, 553), (962, 556), (962, 559), (965, 567), (966, 573), (966, 577), (966, 583), (966, 591), (966, 594), (966, 596), (966, 598), (966, 599), (966, 600), (966, 601), (966, 602), (965, 602), (963, 602), (959, 602), (954, 602), (933, 602), (914, 594), (891, 586), (864, 571), (790, 527), (759, 507), (723, 483), (692, 461), (634, 422), (614, 407), (604, 399), (596, 390), (585, 377)]",203.49297856924008,"[2, 9, 7, 8, 1, 6, 5, 4, 3]","(0, 0.25)",THI009A,THI,A,English,Fri Aug 24 10:18:36 2018,Mouse
1,2,1,0,5,8,8,1,861,551,310,150,0,500,200,8000,"[(960, 540), (960, 540), (960, 540), (960, 540), (960, 540), (960, 540), (960, 540), (960, 540), (960, 540), (960, 540), (960, 540), (960, 540), (960, 540), (960, 540), (960, 540), (960, 540), (960, 540), (960, 540), (960, 540), (960, 540), (960, 540), (960, 540), (960, 540), (960, 540), (960, 540), (960, 540), (960, 540), (960, 540), (960, 540), (960, 540), (960, 540), (960, 540), (960, 540), (960, 540), (960, 540), (960, 540), (960, 540), (960, 540), (960, 540), (960, 540), (960, 540), (960, 540), (960, 540), (960, 540), (960, 540), (960, 540), (960, 540), (960, 540), (960, 540), (960, 540), (960, 540), (960, 540), (960, 540), (960, 540), (960, 540), (956, 546), (949, 552), (944, 557), (935, 564), (915, 581), (903, 591), (894, 599), (885, 605), (864, 625), (853, 632), (842, 640), (830, 651), (795, 679), (780, 691), (770, 701), (759, 715), (744, 736), (738, 747), (736, 753), (731, 765), (730, 769), (727, 775), (727, 778), (724, 784), (718, 795), (715, 800), (711, 805), (702, 817), (696, 824), (693, 827), (691, 831), (686, 835)]",132.88635235258326,"[2, 9, 7, 8, 1, 6, 5, 4, 3]","(0, 0.25)",THI009A,THI,A,English,Fri Aug 24 10:18:36 2018,Mouse
1,2,1,0,6,9,9,1,800,520,280,149,0,500,200,8000,"[(960, 540), (960, 540), (960, 540), (960, 540), (960, 540), (960, 540), (960, 540), (960, 540), (960, 540), (960, 540), (960, 540), (960, 540), (960, 540), (960, 540), (960, 540), (960, 540), (960, 540), (960, 540), (960, 540), (960, 540), (960, 540), (960, 540), (960, 540), (960, 540), (960, 540), (960, 540), (960, 540), (960, 540), (960, 540), (960, 540), (960, 540), (960, 540), (960, 540), (960, 540), (960, 540), (960, 540), (960, 540), (960, 540), (960, 540), (960, 540), (960, 540), (960, 540), (960, 540), (960, 540), (960, 540), (960, 540), (960, 540), (960, 540), (960, 540), (960, 540), (960, 540), (961, 540), (962, 544), (964, 550), (969, 558), (982, 574), (989, 583), (996, 593), (1002, 602), (1014, 621), (1019, 630), (1024, 639), (1028, 649), (1034, 662), (1035, 666), (1038, 674), (1039, 678), (1043, 690), (1045, 701), (1049, 710), (1053, 722), (1068, 758), (1076, 778), (1087, 804), (1094, 822), (1105, 846), (1114, 859), (1121, 869), (1126, 882), (1134, 904)]",64.45117536459288,"[2, 9, 7, 8, 1, 6, 5, 4, 3]","(0, 0.25)",THI009A,THI,A,English,Fri Aug 24 10:18:36 2018,Mouse
1,2,1,0,7,2,2,1,940,780,160,148,0,500,200,8000,"[(960, 540), (960, 540), (960, 540), (960, 540), (960, 540), (960, 540), (960, 540), (960, 540), (960, 540), (960, 540), (960, 540), (960, 540), (960, 540), (960, 540), (960, 540), (960, 540), (960, 540), (960, 540), (960, 540), (960, 540), (960, 540), (960, 540), (960, 540), (960, 540), (960, 540), (960, 540), (960, 540), (960, 540), (960, 540), (960, 540), (960, 540), (960, 540), (960, 540), (960, 540), (960, 540), (960, 540), (960, 540), (960, 540), (960, 540), (960, 540), (960, 540), (960, 540), (960, 540), (960, 540), (960, 540), (960, 540), (960, 540), (960, 540), (960, 540), (960, 540), (960, 540), (960, 540), (960, 540), (960, 540), (960, 540), (960, 540), (960, 540), (960, 540), (960, 540), (960, 540), (960, 540), (960, 540), (960, 540), (960, 540), (960, 540), (960, 540), (960, 540), (960, 540), (960, 540), (960, 540), (960, 540), (960, 540), (960, 540), (960, 540), (960, 540), (960, 540), (960, 540), (961, 540), (969, 543), (980, 549), (990, 555), (1003, 559), (1035, 573), (1058, 583), (1088, 596), (1116, 608), (1177, 634), (1206, 648), (1227, 657), (1251, 670), (1292, 686), (1307, 692), (1320, 698), (1333, 703)]",23.60519889701836,"[2, 9, 7, 8, 1, 6, 5, 4, 3]","(0, 0.25)",THI009A,THI,A,English,Fri Aug 24 10:18:36 2018,Mouse
1,2,1,0,8,2,2,1,570,330,240,147,0,500,200,8000,"[(960, 540), (960, 540), (960, 540), (960, 540), (960, 540), (960, 540), (960, 540), (960, 540), (960, 540), (960, 540), (960, 540), (960, 540), (960, 540), (960, 540), (960, 540), (960, 540), (960, 540), (960, 540), (960, 540), (960, 540), (960, 540), (960, 540), (960, 540), (960, 540), (960, 540), (960, 540), (960, 540), (960, 540), (960, 540), (960, 540), (960, 540), (960, 540), (963, 540), (970, 543), (979, 550), (1009, 563), (1030, 574), (1051, 584), (1080, 596), (1135, 620), (1159, 631), (1179, 638), (1192, 645), (1212, 655), (1222, 658), (1228, 661), (1234, 663), (1248, 669), (1255, 673), (1262, 676), (1269, 678), (1284, 684), (1292, 688), (1300, 692), (1309, 695), (1325, 702), (1333, 706)]",23.990987246047062,"[2, 9, 7, 8, 1, 6, 5, 4, 3]","(0, 0.25)",THI009A,THI,A,English,Fri Aug 24 10:18:36 2018,Mouse
1,2,1,0,9,5,5,1,660,370,290,146,0,500,200,8000,"[(960, 540), (960, 540), (960, 540), (960, 540), (960, 540), (960, 540), (960, 540), (960, 540), (960, 540), (960, 540), (960, 540), (960, 540), (960, 540), (960, 540), (960, 540), (960, 540), (960, 540), (960, 540), (960, 540), (960, 540), (960, 540), (960, 540), (960, 540), (960, 540), (960, 540), (960, 540), (960, 540), (960, 540), (960, 540), (960, 540), (960, 540), (960, 540), (960, 540), (960, 540), (960, 540), (960, 540), (960, 539), (960, 539), (960, 539), (960, 539), (960, 539), (960, 537), (960, 532), (955, 520), (945, 505), (933, 473), (931, 462), (926, 446), (924, 435), (913, 399), (912, 384), (911, 372), (911, 356), (911, 326), (911, 309), (911, 295), (911, 282), (908, 257), (907, 247), (903, 237), (900, 226), (896, 208), (892, 197), (891, 186), (890, 173), (889, 145)]",259.8100769375367,"[2, 9, 7, 8, 1, 6, 5, 4, 3]","(0, 0.25)",THI009A,THI,A,English,Fri Aug 24 10:18:36 2018,Mouse
1,2,1,0,10,5,5,1,631,411,220,145,0,500,200,8000,"[(960, 540), (960, 540), (960, 540), (960, 540), (960, 540), (960, 540), (960, 540), (960, 540), (960, 540), (960, 540), (960, 540), (960, 540), (960, 540), (960, 540), (960, 540), (960, 540), (960, 540), (960, 540), (960, 540), (960, 540), (960, 540), (960, 540), (960, 540), (960, 540), (960, 540), (960, 540), (960, 540), (960, 540), (960, 540), (960, 540), (960, 540), (960, 540), (960, 540), (960, 540), (960, 540), (960, 540), (960, 540), (960, 540), (960, 540), (960, 540), (960, 540), (960, 539), (960, 527), (955, 496), (953, 483), (953, 469), (952, 452), (946, 407), (946, 380), (946, 352), (946, 329), (946, 279), (946, 259), (946, 242), (946, 226), (946, 202), (946, 196), (945, 190), (944, 183), (939, 168), (938, 163), (935, 156), (934, 148), (931, 129)]",265.963921318967,"[2, 9, 7, 8, 1, 6, 5, 4, 3]","(0, 0.25)",THI009A,THI,A,English,Fri Aug 24 10:18:36 2018,Mouse
1,2,1,0,11,1,1,1,560,380,180,144,0,500,200,8000,"[(960, 540), (960, 540), (960, 540), (960, 540), (960, 540), (960, 540), (960, 540), (960, 540), (960, 540), (960, 540), (960, 540), (960, 540), (960, 540), (960, 540), (960, 540), (960, 540), (960, 540), (960, 540), (960, 540), (960, 540), (960, 540), (960, 540), (960, 540), (960, 540), (960, 540), (960, 540), (960, 540), (960, 540), (960, 540), (960, 540), (960, 540), (960, 540), (960, 540), (960, 540), (960, 540), (960, 540), (960, 540), (957, 540), (953, 542), (947, 545), (941, 545), (923, 549), (913, 550), (904, 551), (893, 552), (879, 552), (837, 555), (808, 557), (785, 558), (727, 558), (704, 559), (677, 564), (645, 568), (619, 571), (563, 579), (539, 582)]",174.3028818809521,"[2, 9, 7, 8, 1, 6, 5, 4, 3]","(0, 0.25)",THI009A,THI,A,English,Fri Aug 24 10:18:36 2018,Mouse
1,2,1,0,12,3,3,1,718,378,340,143,0,500,200,8000,"[(960, 540), (960, 540), (960, 540), (960, 540), (960, 540), (960, 540), (960, 540), (960, 540), (960, 540), (960, 540), (960, 540), (960, 540), (960, 540), (960, 540), (960, 540), (960, 540), (960, 540), (960, 540), (960, 540), (960, 540), (960, 540), (960, 540), (960, 540), (960, 540), (960, 540), (960, 540), (960, 540), (960, 540), (960, 540), (960, 540), (960, 540), (960, 540), (960, 540), (960, 540), (960, 540), (960, 540), (960, 540), (964, 540), (968, 540), (976, 540), (983, 540), (998, 540), (1008, 540), (1017, 540), (1024, 540), (1043, 540), (1050, 540), (1056, 540), (1061, 537), (1072, 533), (1076, 529), (1080, 526), (1085, 523), (1094, 514), (1098, 508), (1103, 503), (1109, 497), (1126, 483), (1136, 476), (1146, 468), (1156, 458), (1177, 440), (1186, 433), (1195, 428), (1207, 419), (1228, 410), (1239, 407), (1251, 405), (1267, 401), (1301, 396), (1316, 395), (1335, 392)]",338.4625028780276,"[2, 9, 7, 8, 1, 6, 5, 4, 3]","(0, 0.25)",THI009A,THI,A,English,Fri Aug 24 10:18:36 2018,Mouse
1,2,1,0,13,5,5,1,680,410,270,142,0,500,200,8000,"[(960, 540), (960, 540), (960, 540), (960, 540), (960, 540), (960, 540), (960, 540), (960, 540), (960, 540), (960, 540), (960, 540), (960, 540), (960, 540), (960, 540), (960, 540), (960, 540), (960, 540), (960, 540), (960, 540), (960, 540), (960, 540), (960, 540), (960, 540), (960, 540), (960, 540), (960, 540), (960, 540), (960, 540), (960, 540), (960, 540), (960, 540), (960, 540), (960, 540), (960, 540), (960, 540), (960, 540), (960, 540), (960, 540), (960, 540), (960, 540), (961, 541), (963, 541), (965, 541), (965, 541), (966, 541), (966, 541), (966, 541), (966, 541), (966, 540), (966, 538), (966, 534), (966, 529), (963, 518), (962, 508), (958, 496), (957, 481), (951, 451), (945, 426), (937, 398), (922, 364), (890, 279), (879, 245), (871, 217), (868, 202), (865, 178), (865, 170), (865, 159), (865, 150)]",256.30995038253445,"[2, 9, 7, 8, 1, 6, 5, 4, 3]","(0, 0.25)",THI009A,THI,A,English,Fri Aug 24 10:18:36 2018,Mouse
1,2,1,0,14,8,8,1,1080,520,560,141,0,500,200,8000,"[(960, 540), (960, 540), (960, 540), (960, 540), (960, 540), (960, 540), (960, 540), (960, 540), (960, 540), (960, 540), (960, 540), (960, 540), (960, 540), (960, 540), (960, 540), (960, 540), (960, 540), (960, 540), (960, 540), (960, 540), (960, 540), (960, 540), (960, 540), (960, 540), (960, 540), (960, 540), (960, 540), (960, 540), (960, 540), (960, 540), (960, 540), (960, 540), (960, 540), (960, 540), (960, 540), (960, 540), (960, 540), (960, 540), (960, 540), (960, 540), (960, 540), (960, 540), (960, 540), (960, 540), (960, 540), (960, 540), (960, 540), (960, 540), (960, 540), (960, 540), (960, 540), (960, 541), (960, 544), (958, 549), (957, 551), (950, 557), (947, 560), (944, 563), (941, 567), (935, 575), (935, 578), (932, 582), (929, 587), (919, 596), (915, 601), (906, 609), (897, 615), (877, 631), (867, 638), (856, 645), (848, 650), (832, 659), (825, 663), (819, 666), (813, 670), (801, 677), (796, 681), (789, 685), (784, 690), (776, 696), (773, 698), (769, 701), (767, 703), (758, 712), (754, 718), (749, 726), (746, 731), (738, 742), (735, 745), (734, 747), (734, 747), (732, 749), (731, 751), (728, 753), (726, 756), (722, 761), (718, 765), (717, 767), (716, 770), (711, 777), (710, 779), (707, 784), (702, 789), (691, 800), (682, 807), (677, 812), (672, 817), (666, 824)]",135.9911775750108,"[2, 9, 7, 8, 1, 6, 5, 4, 3]","(0, 0.25)",THI009A,THI,A,English,Fri Aug 24 10:18:36 2018,Mouse
1,2,1,0,15,2,2,1,1250,540,710,140,0,500,200,8000,"[(960, 540), (960, 540), (960, 540), (960, 540), (960, 540), (960, 540), (960, 540), (960, 540), (960, 540), (960, 540), (960, 540), (960, 540), (960, 540), (960, 540), (960, 540), (960, 540), (960, 540), (960, 540), (960, 540), (960, 540), (960, 540), (960, 540), (960, 540), (960, 540), (960, 540), (960, 540), (960, 540), (960, 540), (960, 540), (960, 540), (960, 540), (960, 540), (960, 540), (960, 540), (960, 540), (960, 540), (960, 540), (960, 540), (960, 540), (960, 540), (960, 540), (960, 540), (960, 540), (960, 540), (960, 540), (960, 540), (960, 540), (960, 540), (960, 540), (960, 540), (960, 540), (960, 540), (960, 540), (960, 539), (960, 536), (960, 536), (960, 536), (960, 536), (960, 536), (960, 536), (960, 536), (960, 536), (960, 536), (960, 536), (960, 536), (960, 536), (960, 536), (960, 536), (960, 536), (960, 536), (960, 536), (960, 536), (960, 536), (960, 536), (960, 536), (960, 536), (960, 536), (960, 536), (960, 536), (960, 536), (960, 536), (960, 536), (960, 536), (960, 536), (960, 536), (960, 536), (960, 536), (962, 536), (965, 536), (967, 536), (973, 536), (976, 536), (977, 536), (979, 536), (984, 537), (987, 538), (989, 540), (993, 542), (1004, 548), (1010, 551), (1018, 556), (1027, 558), (1050, 569), (1062, 572), (1074, 578), (1085, 580), (1106, 585), (1117, 590), (1127, 592), (1135, 595), (1150, 599), (1158, 603), (1166, 606), (1176, 611), (1196, 619), (1206, 624), (1224, 632), (1238, 635), (1273, 644), (1288, 649), (1300, 653), (1311, 656), (1330, 660), (1338, 662), (1345, 664)]",17.852603643028235,"[2, 9, 7, 8, 1, 6, 5, 4, 3]","(0, 0.25)",THI009A,THI,A,English,Fri Aug 24 10:18:36 2018,Mouse
1,2,1,0,16,5,5,1,651,90,561,139,0,500,200,8000,"[(960, 540), (960, 540), (960, 540), (960, 540), (960, 540), (960, 540), (960, 540), (960, 540), (958, 540), (958, 540), (957, 540), (957, 540), (955, 540), (955, 540), (955, 540), (955, 540), (954, 540), (954, 540), (954, 540), (954, 540), (954, 540), (954, 540), (954, 540), (954, 540), (953, 539), (952, 539), (952, 538), (951, 538), (951, 537), (949, 536), (948, 535), (946, 535), (942, 533), (941, 532), (939, 532), (939, 532), (938, 532), (938, 532), (938, 532), (938, 532), (938, 532), (938, 532), (938, 532), (938, 532), (938, 532), (938, 531), (938, 531), (938, 529), (938, 522), (938, 520), (938, 513), (938, 503), (938, 480), (938, 461), (938, 436), (938, 405), (938, 358), (938, 336), (938, 310), (938, 280), (938, 216), (938, 199), (938, 182), (938, 165), (938, 130)]",266.9285378829296,"[2, 9, 7, 8, 1, 6, 5, 4, 3]","(0, 0.25)",THI009A,THI,A,English,Fri Aug 24 10:18:36 2018,Mouse
1,2,1,0,17,6,6,1,809,389,420,138,0,500,200,8000,"[(960, 540), (960, 540), (960, 540), (960, 540), (960, 540), (960, 540), (960, 540), (960, 540), (960, 540), (960, 540), (960, 540), (960, 540), (960, 540), (960, 540), (960, 540), (960, 540), (960, 540), (960, 540), (960, 540), (960, 540), (960, 540), (960, 540), (960, 540), (960, 540), (960, 540), (960, 540), (960, 540), (960, 540), (960, 540), (960, 540), (960, 540), (960, 540), (960, 540), (960, 540), (960, 540), (960, 540), (960, 540), (960, 540), (958, 544), (957, 544), (955, 546), (955, 546), (954, 546), (953, 546), (952, 546), (946, 546), (940, 544), (932, 541), (926, 539), (910, 533), (902, 529), (890, 524), (880, 520), (859, 507), (850, 502), (840, 496), (831, 489), (817, 479), (811, 474), (806, 470), (799, 464), (786, 456), (777, 449), (769, 443), (758, 436), (738, 421), (729, 415), (722, 409), (713, 404), (700, 394), (694, 388), (687, 379), (682, 373), (668, 356), (661, 349), (655, 341), (649, 335), (642, 326), (637, 321), (630, 315), (626, 312)]",214.31880255684308,"[2, 9, 7, 8, 1, 6, 5, 4, 3]","(0, 0.25)",THI009A,THI,A,English,Fri Aug 24 10:18:36 2018,Mouse
1,2,1,0,18,4,5,0,-769,329,440,137,0,500,200,8000,"[(960, 540), (960, 540), (960, 540), (960, 540), (960, 540), (960, 540), (960, 540), (960, 540), (960, 540), (960, 540), (960, 540), (960, 540), (960, 540), (960, 540), (960, 540), (960, 540), (960, 540), (960, 540), (960, 540), (960, 540), (960, 540), (960, 540), (960, 540), (960, 540), (960, 540), (960, 540), (960, 540), (960, 540), (960, 540), (960, 540), (960, 540), (960, 540), (962, 529), (962, 513), (962, 501), (962, 488), (962, 447), (962, 413), (949, 369), (936, 327), (916, 252), (908, 227), (902, 205), (898, 192), (895, 177), (894, 172), (894, 170), (894, 169), (894, 168), (894, 168), (894, 168), (894, 168), (894, 168), (894, 168), (894, 168), (894, 168), (894, 168), (894, 168), (894, 168), (894, 168), (894, 168), (894, 168), (894, 168), (894, 168), (894, 168), (894, 168), (894, 167), (894, 166), (894, 161), (894, 158), (894, 156), (894, 155), (893, 152), (893, 151), (892, 149), (891, 147), (891, 141)]",260.18874313200394,"[2, 9, 7, 8, 1, 6, 5, 4, 3]","(0, 0.25)",THI009A,THI,A,English,Fri Aug 24 10:18:36 2018,Mouse
1,2,1,0,19,8,5,0,-2080,740,1340,138,0,500,200,8000,"[(960, 540), (960, 540), (960, 540), (960, 540), (960, 540), (960, 540), (960, 540), (960, 540), (960, 540), (960, 540), (960, 540), (960, 540), (960, 540), (960, 540), (960, 540), (960, 540), (960, 540), (960, 540), (960, 540), (960, 540), (960, 540), (960, 540), (960, 540), (960, 540), (960, 540), (960, 540), (960, 540), (960, 540), (960, 540), (960, 540), (960, 540), (960, 540), (960, 540), (960, 540), (960, 540), (960, 540), (960, 540), (960, 540), (960, 540), (960, 540), (960, 540), (960, 540), (960, 540), (960, 540), (960, 540), (960, 540), (960, 540), (960, 540), (960, 540), (960, 540), (960, 540), (960, 540), (960, 540), (960, 540), (960, 540), (960, 540), (960, 540), (960, 540), (960, 540), (960, 540), (960, 540), (960, 540), (960, 540), (960, 540), (960, 540), (960, 540), (960, 540), (960, 540), (960, 540), (960, 540), (960, 540), (960, 540), (960, 540), (958, 536), (956, 525), (955, 520), (953, 515), (953, 513), (951, 509), (951, 507), (950, 506), (950, 506), (950, 505), (950, 505), (950, 505), (950, 505), (950, 505), (950, 504), (949, 504), (949, 504), (949, 504), (949, 504), (949, 504), (949, 504), (949, 504), (949, 504), (949, 504), (953, 504), (964, 511), (967, 517), (968, 522), (969, 528), (969, 531), (969, 531), (969, 531), (969, 531), (969, 531), (969, 531), (969, 531), (969, 531), (969, 531), (969, 531), (969, 531), (969, 531), (969, 531), (969, 531), (969, 531), (969, 531), (969, 531), (969, 531), (969, 531), (969, 531), (969, 531), (969, 531), (969, 531), (969, 531), (969, 531), (969, 531), (969, 531), (969, 531), (969, 531), (969, 531), (969, 531), (969, 531), (969, 531), (969, 531), (969, 531), (969, 531), (969, 531), (969, 531), (969, 531), (969, 531), (969, 531), (969, 531), (969, 531), (969, 531), (969, 531), (969, 531), (969, 531), (969, 531), (969, 531), (969, 531), (969, 531), (969, 531), (969, 531), (969, 531), (969, 531), (970, 531), (970, 531), (970, 531), (970, 531), (970, 531), (970, 531), (970, 531), (970, 530), (969, 529), (969, 529), (969, 529), (969, 529), (969, 529), (969, 529), (969, 529), (969, 529), (969, 529), (969, 529), (969, 529), (969, 529), (969, 529), (969, 528), (969, 528), (969, 528), (969, 528), (966, 527), (964, 526), (963, 525), (961, 524), (958, 522), (957, 519), (955, 517), (953, 516), (951, 513), (951, 513), (951, 513), (951, 513), (951, 513), (951, 513), (951, 512), (951, 511), (953, 502), (956, 490), (956, 474), (956, 443), (953, 365), (942, 323), (931, 287), (922, 251), (887, 163), (864, 110)]",257.41477105894984,"[2, 9, 7, 8, 1, 6, 5, 4, 3]","(0, 0.25)",THI009A,THI,A,English,Fri Aug 24 10:18:36 2018,Mouse
1,2,1,0,20,1,1,1,709,499,210,139,0,500,200,8000,"[(960, 540), (960, 540), (960, 540), (960, 540), (960, 540), (960, 540), (960, 540), (960, 540), (960, 540), (960, 540), (960, 540), (960, 540), (960, 540), (960, 540), (960, 540), (960, 540), (960, 540), (960, 540), (960, 540), (960, 540), (960, 540), (960, 540), (960, 540), (960, 540), (960, 540), (960, 540), (960, 540), (960, 540), (960, 540), (960, 540), (960, 540), (960, 540), (960, 540), (960, 540), (960, 540), (960, 540), (960, 540), (960, 540), (960, 540), (960, 540), (960, 540), (960, 540), (960, 540), (960, 540), (960, 540), (960, 540), (960, 540), (960, 540), (960, 540), (957, 540), (953, 539), (945, 539), (934, 539), (908, 539), (890, 539), (870, 539), (848, 539), (803, 539), (789, 539), (773, 539), (759, 539), (732, 541), (716, 546), (695, 549), (670, 555), (633, 560), (620, 562), (604, 565), (593, 565), (567, 568), (553, 568)]",176.06447660576637,"[2, 9, 7, 8, 1, 6, 5, 4, 3]","(0, 0.25)",THI009A,THI,A,English,Fri Aug 24 10:18:36 2018,Mouse
1,2,1,0,21,4,5,0,-1138,728,410,139,0,500,200,8000,"[(960, 540), (960, 540), (960, 540), (960, 540), (960, 540), (960, 540), (960, 540), (960, 540), (960, 540), (960, 540), (960, 540), (960, 540), (960, 540), (960, 540), (960, 540), (960, 540), (960, 540), (960, 540), (960, 540), (960, 540), (960, 540), (960, 540), (960, 540), (960, 540), (960, 540), (960, 540), (960, 540), (960, 540), (960, 540), (960, 540), (960, 540), (960, 540), (960, 540), (960, 540), (960, 540), (960, 540), (960, 540), (960, 540), (960, 540), (960, 540), (960, 540), (960, 540), (960, 540), (960, 540), (960, 540), (960, 540), (960, 540), (960, 540), (960, 540), (960, 540), (960, 540), (960, 540), (960, 540), (960, 540), (960, 540), (960, 540), (960, 540), (960, 540), (960, 540), (960, 540), (960, 540), (960, 540), (960, 540), (960, 540), (960, 540), (960, 540), (960, 540), (960, 540), (960, 540), (960, 540), (960, 540), (960, 540), (961, 538), (961, 533), (961, 531), (961, 530), (961, 530), (961, 528), (961, 527), (961, 526), (961, 526), (961, 526), (961, 526), (961, 526), (961, 526), (961, 526), (960, 526), (960, 526), (960, 525), (960, 525), (960, 525), (960, 524), (960, 524), (960, 520), (960, 516), (960, 511), (960, 504), (954, 481), (947, 461), (940, 438), (932, 418), (912, 371), (904, 345), (897, 328), (891, 306), (878, 258), (875, 237), (871, 218), (865, 198), (858, 177), (857, 168), (856, 161), (854, 155), (854, 146)]",254.94194253027297,"[2, 9, 7, 8, 1, 6, 5, 4, 3]","(0, 0.25)",THI009A,THI,A,English,Fri Aug 24 10:18:36 2018,Mouse
1,2,1,0,22,7,7,1,802,622,180,140,0,500,200,8000,"[(960, 540), (960, 540), (960, 540), (960, 540), (960, 540), (960, 540), (960, 540), (960, 540), (960, 540), (960, 540), (960, 540), (960, 540), (960, 540), (960, 540), (960, 540), (960, 540), (960, 540), (960, 540), (960, 540), (960, 540), (960, 540), (960, 540), (960, 540), (960, 540), (960, 540), (960, 540), (960, 540), (960, 540), (960, 540), (960, 540), (960, 540), (960, 540), (960, 540), (960, 540), (960, 540), (960, 540), (960, 540), (960, 540), (960, 540), (960, 540), (960, 540), (960, 540), (960, 540), (960, 540), (960, 540), (960, 540), (960, 540), (960, 540), (960, 540), (960, 540), (960, 540), (960, 540), (960, 540), (960, 540), (960, 540), (960, 540), (960, 540), (960, 540), (960, 540), (960, 540), (960, 540), (960, 540), (960, 541), (961, 555), (962, 564), (962, 571), (962, 595), (962, 610), (962, 630), (962, 656), (962, 726), (962, 748), (962, 768), (962, 785), (962, 816), (958, 834), (955, 853), (951, 874), (945, 909), (940, 927), (936, 941)]",93.42508810336766,"[2, 9, 7, 8, 1, 6, 5, 4, 3]","(0, 0.25)",THI009A,THI,A,English,Fri Aug 24 10:18:36 2018,Mouse
1,2,1,0,23,2,2,1,658,338,320,140,0,500,200,8000,"[(960, 540), (960, 540), (960, 540), (960, 540), (960, 540), (960, 540), (960, 540), (960, 540), (960, 540), (960, 540), (960, 540), (960, 540), (960, 540), (960, 540), (960, 540), (960, 540), (960, 540), (960, 540), (960, 540), (960, 540), (960, 540), (960, 540), (960, 540), (960, 540), (960, 540), (960, 540), (960, 540), (960, 540), (960, 540), (960, 540), (960, 540), (960, 540), (960, 540), (961, 539), (961, 539), (961, 538), (962, 538), (964, 538), (967, 538), (974, 538), (981, 538), (1005, 543), (1019, 548), (1033, 553), (1052, 557), (1092, 570), (1109, 575), (1129, 582), (1142, 587), (1164, 597), (1174, 601), (1184, 606), (1195, 612), (1213, 622), (1223, 628), (1232, 632), (1238, 634), (1251, 639), (1257, 641), (1266, 643), (1276, 648), (1298, 658), (1310, 661), (1318, 666), (1327, 670), (1343, 675)]",19.416556160109238,"[2, 9, 7, 8, 1, 6, 5, 4, 3]","(0, 0.25)",THI009A,THI,A,English,Fri Aug 24 10:18:36 2018,Mouse
1,2,1,0,24,1,1,1,390,50,340,139,0,500,200,8000,"[(960, 540), (960, 540), (960, 540), (960, 540), (957, 539), (952, 536), (944, 532), (942, 530), (938, 528), (934, 526), (930, 525), (927, 524), (926, 523), (925, 523), (923, 522), (923, 522), (923, 522), (923, 522), (921, 522), (920, 521), (918, 521), (917, 520), (907, 518), (900, 516), (892, 514), (884, 513), (860, 509), (847, 508), (831, 505), (819, 503), (790, 503), (775, 503), (763, 503), (752, 503), (721, 508), (686, 515), (643, 521), (597, 527), (534, 540)]",180.0,"[2, 9, 7, 8, 1, 6, 5, 4, 3]","(0, 0.25)",THI009A,THI,A,English,Fri Aug 24 10:18:36 2018,Mouse
1,2,1,0,25,8,8,1,429,319,110,138,0,500,200,8000,"[(960, 540), (960, 540), (960, 540), (960, 540), (960, 540), (960, 540), (960, 540), (960, 540), (960, 540), (960, 540), (960, 540), (960, 540), (960, 540), (960, 540), (960, 540), (960, 540), (960, 540), (960, 540), (960, 540), (960, 540), (960, 540), (960, 540), (960, 540), (960, 540), (960, 540), (960, 540), (960, 540), (960, 540), (960, 540), (960, 540), (960, 540), (957, 544), (950, 552), (942, 562), (922, 583), (901, 605), (875, 629), (847, 649), (793, 690), (759, 715), (726, 737), (692, 761), (630, 805)]",141.23448009554124,"[2, 9, 7, 8, 1, 6, 5, 4, 3]","(0, 0.25)",THI009A,THI,A,English,Fri Aug 24 10:18:36 2018,Mouse
1,2,1,0,26,6,6,1,720,340,380,137,0,500,200,8000,"[(960, 540), (960, 540), (960, 540), (960, 540), (960, 540), (960, 540), (960, 540), (960, 540), (960, 540), (960, 540), (960, 540), (960, 540), (960, 540), (960, 540), (960, 540), (960, 540), (960, 540), (960, 540), (960, 540), (960, 540), (960, 540), (960, 540), (960, 540), (960, 540), (960, 540), (960, 540), (960, 540), (960, 540), (960, 540), (960, 540), (960, 540), (960, 540), (960, 540), (961, 538), (959, 532), (956, 526), (950, 520), (946, 515), (934, 504), (929, 497), (923, 489), (915, 481), (905, 473), (902, 470), (900, 469), (897, 466), (895, 465), (894, 464), (893, 462), (891, 461), (886, 456), (884, 454), (880, 450), (878, 448), (865, 438), (859, 432), (851, 425), (842, 416), (820, 396), (806, 386), (789, 376), (774, 369), (743, 348), (727, 340), (716, 335), (705, 329), (687, 315), (677, 307), (668, 299), (660, 292), (654, 285), (648, 279)]",219.91377829036537,"[2, 9, 7, 8, 1, 6, 5, 4, 3]","(0, 0.25)",THI009A,THI,A,English,Fri Aug 24 10:18:36 2018,Mouse
1,2,1,0,27,6,6,1,660,290,370,136,0,500,200,8000,"[(960, 540), (960, 540), (960, 540), (960, 540), (960, 540), (960, 540), (960, 540), (960, 540), (960, 540), (960, 540), (960, 540), (960, 540), (960, 540), (960, 540), (960, 540), (960, 540), (960, 540), (960, 540), (960, 540), (960, 540), (960, 540), (960, 540), (960, 540), (960, 540), (960, 540), (960, 540), (960, 540), (960, 540), (958, 540), (956, 539), (955, 538), (955, 538), (952, 536), (944, 531), (938, 528), (929, 521), (920, 516), (896, 502), (884, 496), (871, 488), (859, 481), (835, 464), (824, 456), (815, 449), (808, 442), (798, 431), (795, 426), (793, 423), (792, 421), (791, 418), (789, 415), (787, 412), (784, 409), (775, 400), (771, 393), (767, 387), (762, 382), (757, 375), (751, 369), (743, 360), (735, 352), (716, 337), (707, 330), (697, 319), (684, 307), (655, 278)]",220.66311903915184,"[2, 9, 7, 8, 1, 6, 5, 4, 3]","(0, 0.25)",THI009A,THI,A,English,Fri Aug 24 10:18:36 2018,Mouse
1,2,1,0,28,9,5,0,-1021,741,280,135,0,500,200,8000,"[(960, 540), (960, 540), (960, 540), (960, 540), (960, 540), (960, 540), (960, 540), (960, 540), (960, 540), (960, 540), (960, 540), (960, 540), (960, 540), (960, 540), (960, 540), (960, 540), (960, 540), (960, 540), (960, 540), (960, 540), (960, 540), (960, 540), (960, 540), (960, 540), (960, 540), (960, 540), (960, 540), (960, 540), (960, 540), (960, 540), (960, 540), (960, 540), (960, 540), (960, 540), (960, 540), (960, 540), (960, 540), (960, 540), (960, 540), (960, 540), (960, 540), (960, 540), (960, 540), (960, 540), (960, 540), (960, 540), (960, 540), (960, 540), (960, 540), (960, 540), (960, 540), (960, 540), (960, 540), (960, 540), (960, 540), (960, 540), (960, 540), (960, 540), (960, 540), (960, 540), (960, 540), (960, 540), (960, 540), (960, 540), (960, 540), (960, 540), (960, 540), (960, 540), (960, 540), (960, 540), (960, 540), (960, 540), (960, 540), (960, 540), (960, 538), (960, 509), (960, 492), (960, 477), (960, 463), (963, 422), (967, 403), (968, 383), (969, 354), (969, 343), (969, 332), (969, 323), (969, 304), (969, 291), (969, 279), (969, 268), (969, 252), (969, 246), (969, 242), (969, 236), (965, 222), (962, 215), (960, 206), (955, 195), (949, 183), (937, 165), (930, 156), (925, 149), (919, 142)]",264.11841772720857,"[2, 9, 7, 8, 1, 6, 5, 4, 3]","(0, 0.25)",THI009A,THI,A,English,Fri Aug 24 10:18:36 2018,Mouse
1,2,1,0,29,5,5,1,740,350,390,136,0,500,200,8000,"[(960, 540), (960, 540), (960, 540), (960, 540), (960, 540), (960, 540), (960, 540), (960, 540), (960, 540), (960, 540), (960, 540), (960, 540), (960, 540), (960, 540), (960, 540), (960, 540), (960, 540), (960, 540), (960, 540), (960, 540), (960, 540), (960, 540), (960, 540), (960, 540), (960, 540), (960, 540), (960, 540), (960, 540), (960, 540), (960, 540), (960, 540), (960, 540), (960, 540), (960, 540), (960, 536), (959, 529), (959, 522), (959, 516), (958, 511), (955, 495), (953, 485), (950, 473), (949, 463), (947, 437), (944, 423), (942, 411), (941, 399), (937, 374), (933, 360), (932, 350), (930, 338), (928, 319), (926, 308), (925, 299), (922, 289), (917, 268), (915, 257), (911, 247), (908, 240), (903, 220), (901, 215), (900, 208), (898, 202), (895, 191), (894, 187), (894, 185), (893, 182), (892, 174), (890, 169), (889, 165), (886, 160), (881, 152), (880, 150), (877, 145)]",258.13327475737896,"[2, 9, 7, 8, 1, 6, 5, 4, 3]","(0, 0.25)",THI009A,THI,A,English,Fri Aug 24 10:18:36 2018,Mouse
1,2,1,0,30,4,4,1,1250,1050,200,136,0,500,200,8000,"[(960, 540), (960, 540), (960, 540), (960, 540), (960, 540), (960, 540), (960, 540), (960, 540), (960, 540), (960, 540), (960, 540), (960, 540), (960, 540), (960, 540), (960, 540), (960, 540), (960, 540), (960, 540), (960, 540), (960, 540), (960, 540), (960, 540), (960, 540), (960, 540), (960, 540), (960, 540), (960, 540), (960, 540), (960, 540), (960, 540), (960, 540), (960, 540), (960, 540), (960, 540), (960, 540), (960, 540), (960, 540), (960, 540), (960, 540), (960, 540), (960, 540), (960, 540), (960, 540), (960, 540), (960, 540), (960, 540), (960, 540), (960, 540), (960, 540), (960, 540), (960, 540), (960, 540), (960, 540), (960, 540), (960, 540), (960, 540), (960, 540), (960, 540), (960, 540), (960, 540), (960, 540), (960, 540), (960, 540), (960, 540), (960, 540), (960, 540), (960, 540), (960, 540), (960, 540), (960, 540), (960, 540), (960, 540), (960, 540), (960, 540), (960, 540), (960, 540), (960, 540), (960, 540), (960, 540), (960, 540), (960, 540), (960, 540), (960, 540), (960, 540), (960, 540), (960, 540), (960, 540), (960, 540), (960, 540), (960, 540), (960, 540), (960, 540), (960, 540), (960, 540), (960, 540), (960, 540), (960, 540), (960, 540), (960, 540), (960, 540), (960, 540), (960, 540), (960, 540), (960, 540), (969, 539), (976, 533), (984, 527), (990, 520), (998, 506), (1000, 496), (1004, 483), (1009, 471), (1028, 416), (1042, 390), (1053, 363), (1063, 338), (1083, 291), (1093, 265), (1098, 248), (1101, 234), (1110, 215), (1116, 204), (1122, 194), (1126, 181), (1139, 143)]",294.26973781976335,"[2, 9, 7, 8, 1, 6, 5, 4, 3]","(0, 0.25)",THI009A,THI,A,English,Fri Aug 24 10:18:36 2018,Mouse
1,2,1,0,31,3,3,1,810,210,600,135,0,500,200,8000,"[(960, 540), (960, 540), (960, 540), (960, 540), (960, 540), (960, 540), (960, 540), (960, 540), (960, 540), (960, 540), (960, 540), (960, 540), (960, 540), (960, 540), (960, 540), (960, 540), (960, 540), (960, 540), (960, 540), (960, 540), (960, 541), (960, 541), (960, 541), (960, 541), (960, 541), (960, 541), (960, 541), (960, 541), (960, 541), (960, 541), (960, 541), (959, 541), (959, 541), (959, 543), (959, 547), (958, 547), (958, 548), (958, 549), (958, 550), (958, 550), (958, 550), (958, 550), (958, 550), (958, 550), (958, 550), (958, 550), (958, 550), (966, 548), (976, 545), (987, 540), (1019, 534), (1034, 533), (1049, 530), (1063, 528), (1086, 526), (1095, 524), (1101, 523), (1107, 521), (1113, 518), (1118, 518), (1122, 515), (1130, 512), (1147, 507), (1159, 503), (1170, 502), (1181, 501), (1204, 491), (1212, 489), (1218, 486), (1224, 483), (1234, 478), (1237, 475), (1245, 471), (1252, 466), (1276, 456), (1287, 454), (1299, 451), (1310, 447), (1330, 438), (1340, 434), (1346, 432)]",344.3687656086778,"[2, 9, 7, 8, 1, 6, 5, 4, 3]","(0, 0.25)",THI009A,THI,A,English,Fri Aug 24 10:18:36 2018,Mouse
1,2,1,0,32,7,1,0,-1380,1040,340,134,0,500,200,8000,"[(960, 540), (960, 540), (960, 540), (960, 540), (960, 540), (960, 540), (960, 540), (960, 540), (960, 540), (960, 540), (960, 540), (960, 540), (960, 540), (960, 540), (960, 540), (960, 540), (960, 540), (960, 540), (960, 540), (960, 540), (960, 540), (960, 540), (960, 540), (960, 540), (960, 540), (960, 540), (960, 540), (960, 540), (960, 540), (960, 540), (960, 540), (960, 540), (960, 540), (960, 540), (960, 540), (960, 540), (960, 540), (960, 540), (960, 540), (960, 540), (960, 540), (960, 540), (960, 540), (960, 540), (960, 540), (960, 540), (960, 540), (960, 540), (960, 540), (960, 540), (960, 540), (960, 540), (960, 540), (960, 540), (960, 540), (960, 540), (960, 540), (960, 540), (960, 540), (960, 540), (960, 540), (960, 540), (960, 540), (960, 540), (960, 540), (960, 540), (960, 540), (960, 540), (960, 540), (960, 540), (960, 540), (960, 540), (960, 540), (960, 540), (960, 540), (960, 540), (960, 540), (960, 540), (960, 540), (960, 540), (960, 540), (960, 540), (960, 540), (960, 540), (960, 540), (960, 540), (960, 540), (960, 540), (960, 540), (960, 540), (960, 540), (960, 540), (960, 540), (960, 540), (960, 540), (960, 540), (960, 540), (960, 540), (960, 540), (960, 540), (960, 540), (960, 540), (960, 540), (958, 540), (954, 540), (953, 540), (952, 540), (952, 540), (952, 540), (952, 540), (952, 540), (952, 540), (951, 540), (951, 540), (951, 540), (950, 540), (948, 540), (948, 540), (947, 540), (946, 540), (944, 540), (943, 540), (941, 540), (940, 540), (935, 541), (933, 541), (930, 542), (926, 542), (906, 546), (894, 547), (880, 550), (866, 553), (806, 554), (762, 554), (723, 554), (679, 554), (595, 554), (551, 554)]",178.0395407120555,"[2, 9, 7, 8, 1, 6, 5, 4, 3]","(0, 0.25)",THI009A,THI,A,English,Fri Aug 24 10:18:36 2018,Mouse
1,2,1,0,33,3,3,1,1521,551,970,135,0,500,200,8000,"[(960, 540), (960, 540), (960, 540), (960, 540), (960, 540), (960, 540), (960, 540), (960, 540), (960, 540), (960, 540), (960, 540), (960, 540), (960, 540), (960, 540), (960, 540), (960, 540), (960, 540), (960, 540), (960, 540), (960, 540), (960, 540), (960, 540), (960, 540), (960, 540), (960, 540), (960, 540), (960, 540), (960, 540), (960, 540), (960, 540), (960, 540), (960, 540), (960, 540), (960, 540), (960, 540), (960, 540), (960, 540), (960, 540), (960, 540), (960, 540), (960, 540), (960, 540), (960, 540), (960, 540), (960, 540), (960, 540), (960, 540), (960, 540), (960, 540), (960, 540), (960, 540), (960, 540), (960, 540), (960, 540), (960, 540), (960, 541), (968, 541), (983, 541), (1010, 541), (1025, 541), (1038, 541), (1051, 541), (1071, 541), (1077, 541), (1081, 541), (1084, 541), (1087, 541), (1092, 541), (1096, 538), (1101, 536), (1109, 532), (1115, 528), (1119, 527), (1123, 524), (1131, 519), (1134, 518), (1138, 515), (1142, 512), (1148, 508), (1150, 507), (1150, 506), (1152, 505), (1152, 505), (1152, 505), (1152, 505), (1152, 505), (1152, 505), (1152, 505), (1152, 505), (1152, 505), (1152, 505), (1152, 505), (1152, 505), (1152, 505), (1152, 505), (1152, 505), (1152, 505), (1152, 505), (1152, 505), (1152, 505), (1152, 505), (1152, 505), (1152, 505), (1152, 505), (1152, 505), (1152, 505), (1152, 505), (1152, 505), (1152, 505), (1152, 505), (1152, 505), (1152, 505), (1152, 505), (1152, 505), (1152, 505), (1152, 505), (1152, 505), (1152, 505), (1152, 505), (1152, 505), (1152, 505), (1152, 505), (1152, 505), (1152, 505), (1152, 505), (1152, 505), (1152, 505), (1152, 505), (1152, 505), (1152, 505), (1152, 505), (1152, 505), (1152, 505), (1152, 505), (1152, 505), (1152, 505), (1152, 505), (1152, 505), (1152, 505), (1152, 505), (1152, 505), (1153, 505), (1165, 501), (1174, 499), (1181, 495), (1191, 490), (1228, 470), (1249, 461), (1268, 451), (1286, 443), (1316, 432), (1330, 427), (1344, 423)]",343.0546766226209,"[2, 9, 7, 8, 1, 6, 5, 4, 3]","(0, 0.25)",THI009A,THI,A,English,Fri Aug 24 10:18:36 2018,Mouse
1,2,1,0,34,1,1,1,610,281,329,135,0,500,200,8000,"[(960, 540), (960, 540), (960, 540), (960, 540), (960, 540), (960, 540), (960, 540), (960, 540), (960, 540), (960, 540), (960, 540), (960, 540), (960, 540), (960, 540), (960, 540), (960, 540), (960, 540), (960, 540), (960, 540), (960, 540), (960, 540), (960, 540), (960, 540), (960, 540), (960, 540), (960, 540), (960, 540), (960, 540), (959, 540), (954, 542), (948, 544), (940, 547), (926, 552), (915, 553), (891, 555), (877, 557), (852, 561), (840, 563), (829, 564), (816, 564), (789, 568), (774, 568), (760, 570), (747, 570), (720, 572), (706, 574), (694, 575), (683, 576), (666, 580), (660, 580), (653, 580), (648, 581), (635, 581), (627, 581), (617, 582), (608, 582), (591, 582), (586, 582), (580, 582), (573, 582), (561, 582)]",173.99099404250546,"[2, 9, 7, 8, 1, 6, 5, 4, 3]","(0, 0.25)",THI009A,THI,A,English,Fri Aug 24 10:18:36 2018,Mouse
1,2,1,0,35,9,5,0,-630,510,120,134,0,500,200,8000,"[(960, 540), (960, 540), (960, 540), (960, 540), (960, 540), (960, 540), (960, 540), (960, 540), (960, 540), (960, 540), (960, 540), (960, 540), (960, 540), (960, 540), (960, 540), (960, 540), (960, 540), (960, 540), (960, 540), (960, 540), (960, 540), (960, 540), (960, 540), (960, 540), (960, 540), (960, 540), (960, 540), (960, 540), (960, 540), (960, 540), (960, 540), (960, 540), (960, 540), (960, 540), (960, 540), (960, 540), (960, 540), (960, 540), (960, 540), (960, 540), (960, 540), (960, 540), (960, 540), (960, 540), (960, 540), (960, 540), (960, 540), (960, 540), (960, 540), (960, 540), (960, 539), (960, 527), (960, 510), (960, 485), (956, 445), (949, 421), (945, 394), (936, 366), (913, 298), (897, 251), (878, 210), (866, 179), (841, 124)]",254.03641496333483,"[2, 9, 7, 8, 1, 6, 5, 4, 3]","(0, 0.25)",THI009A,THI,A,English,Fri Aug 24 10:18:36 2018,Mouse
1,2,1,0,36,7,1,0,-1711,1361,350,135,0,500,200,8000,"[(960, 540), (960, 540), (960, 540), (960, 540), (960, 540), (960, 540), (960, 540), (960, 540), (960, 540), (960, 540), (960, 540), (960, 540), (960, 540), (960, 540), (960, 540), (960, 540), (960, 540), (960, 540), (960, 540), (960, 540), (960, 540), (960, 540), (960, 540), (960, 540), (960, 540), (960, 540), (960, 540), (960, 540), (960, 540), (960, 540), (960, 540), (960, 540), (960, 540), (960, 540), (960, 540), (960, 540), (960, 540), (960, 540), (960, 540), (960, 540), (960, 540), (960, 540), (960, 540), (960, 540), (960, 540), (960, 540), (960, 540), (960, 540), (960, 540), (960, 540), (960, 540), (960, 540), (960, 540), (960, 540), (960, 540), (960, 540), (960, 540), (960, 540), (960, 540), (960, 540), (960, 540), (960, 540), (960, 540), (960, 540), (960, 540), (960, 540), (960, 540), (960, 540), (960, 540), (960, 540), (960, 540), (960, 540), (960, 540), (960, 540), (960, 540), (960, 540), (960, 540), (960, 540), (960, 540), (960, 540), (960, 540), (960, 540), (960, 540), (960, 540), (960, 540), (960, 540), (960, 540), (960, 540), (960, 540), (960, 540), (960, 540), (960, 540), (960, 540), (960, 540), (960, 540), (960, 540), (960, 540), (960, 540), (960, 540), (960, 540), (960, 540), (960, 540), (960, 540), (960, 540), (960, 540), (960, 540), (960, 540), (960, 540), (960, 540), (960, 540), (960, 540), (960, 540), (960, 540), (960, 540), (960, 540), (960, 540), (960, 540), (960, 540), (960, 540), (960, 540), (960, 540), (960, 540), (960, 540), (960, 540), (960, 540), (960, 540), (960, 540), (960, 540), (960, 540), (960, 540), (960, 540), (960, 540), (960, 540), (960, 540), (960, 540), (960, 540), (959, 539), (956, 539), (950, 539), (942, 539), (938, 539), (933, 539), (928, 539), (915, 539), (910, 539), (904, 539), (899, 539), (886, 539), (882, 539), (878, 539), (874, 539), (864, 539), (860, 539), (857, 539), (853, 539), (846, 540), (842, 542), (834, 544), (829, 545), (808, 548), (795, 550), (780, 551), (767, 552), (731, 559), (711, 559), (695, 563), (674, 564), (636, 568), (615, 569), (600, 572), (586, 572), (560, 572)]",175.42607874009914,"[2, 9, 7, 8, 1, 6, 5, 4, 3]","(0, 0.25)",THI009A,THI,A,English,Fri Aug 24 10:18:36 2018,Mouse
1,2,1,0,37,8,5,0,-981,471,510,136,0,500,200,8000,"[(960, 540), (960, 540), (960, 540), (960, 540), (960, 540), (960, 540), (960, 540), (960, 540), (960, 540), (960, 540), (960, 540), (960, 540), (960, 540), (960, 540), (960, 540), (960, 540), (960, 540), (960, 540), (960, 540), (960, 540), (960, 540), (960, 540), (960, 540), (960, 540), (960, 540), (960, 540), (960, 540), (960, 540), (960, 540), (960, 540), (960, 540), (960, 540), (960, 540), (960, 540), (960, 540), (960, 540), (960, 540), (960, 540), (960, 540), (960, 540), (960, 540), (960, 540), (960, 540), (960, 540), (960, 540), (960, 540), (960, 540), (961, 539), (963, 537), (965, 534), (966, 532), (971, 524), (976, 515), (983, 504), (993, 488), (1022, 444), (1034, 425), (1034, 424), (1034, 424), (1034, 424), (1034, 424), (1034, 424), (1034, 424), (1034, 424), (1034, 424), (1034, 424), (1034, 424), (1034, 424), (1034, 424), (1034, 424), (1034, 424), (1034, 424), (1034, 424), (1034, 424), (1034, 424), (1034, 424), (1034, 424), (1034, 424), (1034, 424), (1034, 424), (1034, 424), (1034, 424), (1034, 424), (1034, 424), (1034, 424), (1034, 424), (1031, 424), (1001, 404), (987, 394), (980, 385), (972, 373), (958, 349), (946, 327), (933, 305), (921, 281), (885, 231), (868, 203), (851, 178), (833, 146)]",252.1340509075481,"[2, 9, 7, 8, 1, 6, 5, 4, 3]","(0, 0.25)",THI009A,THI,A,English,Fri Aug 24 10:18:36 2018,Mouse
1,2,1,0,38,3,3,1,760,119,641,137,0,500,200,8000,"[(960, 540), (960, 540), (960, 540), (960, 540), (960, 540), (960, 540), (960, 540), (960, 540), (960, 540), (960, 540), (960, 540), (960, 543), (960, 543), (961, 544), (961, 544), (961, 545), (961, 545), (961, 545), (961, 545), (961, 546), (961, 546), (961, 546), (961, 546), (961, 546), (961, 546), (961, 546), (961, 546), (961, 546), (961, 546), (961, 546), (961, 546), (961, 546), (961, 546), (962, 546), (962, 546), (966, 546), (966, 546), (967, 546), (967, 546), (969, 545), (969, 545), (969, 545), (970, 545), (973, 544), (973, 543), (974, 543), (974, 543), (976, 543), (976, 543), (976, 543), (976, 543), (976, 543), (977, 543), (977, 543), (977, 543), (977, 543), (977, 543), (979, 542), (982, 541), (988, 540), (992, 540), (1000, 539), (1008, 539), (1037, 539), (1054, 536), (1078, 532), (1104, 524), (1157, 508), (1185, 499), (1208, 490), (1236, 482), (1286, 459), (1307, 450), (1322, 444), (1337, 438), (1356, 429)]",344.3416547009803,"[2, 9, 7, 8, 1, 6, 5, 4, 3]","(0, 0.25)",THI009A,THI,A,English,Fri Aug 24 10:18:36 2018,Mouse
1,2,1,0,39,6,6,1,580,150,430,137,0,500,200,8000,"[(960, 540), (960, 540), (960, 540), (960, 540), (960, 540), (960, 540), (960, 540), (960, 540), (960, 540), (960, 540), (960, 540), (960, 540), (960, 540), (960, 540), (951, 540), (945, 540), (939, 541), (932, 542), (918, 543), (912, 543), (905, 543), (892, 543), (887, 543), (882, 543), (878, 543), (871, 543), (869, 543), (867, 543), (866, 542), (865, 541), (864, 541), (862, 538), (858, 535), (855, 530), (848, 514), (842, 504), (838, 495), (828, 476), (824, 469), (821, 460), (816, 450), (803, 428), (796, 417), (789, 404), (778, 387), (762, 365), (755, 356), (746, 346), (738, 339), (723, 328), (713, 322), (706, 318), (696, 313), (687, 309), (667, 301), (657, 297), (647, 291), (639, 286)]",218.35376732139346,"[2, 9, 7, 8, 1, 6, 5, 4, 3]","(0, 0.25)",THI009A,THI,A,English,Fri Aug 24 10:18:36 2018,Mouse
1,2,1,0,40,1,1,1,360,180,180,136,0,500,200,8000,"[(960, 540), (960, 540), (960, 540), (960, 540), (960, 540), (960, 540), (960, 540), (960, 540), (960, 540), (960, 540), (960, 540), (960, 540), (960, 540), (960, 540), (960, 540), (960, 540), (960, 540), (959, 541), (959, 542), (957, 543), (957, 543), (954, 545), (952, 546), (941, 547), (931, 547), (922, 547), (911, 547), (884, 547), (865, 547), (840, 547), (806, 547), (720, 547), (673, 547), (623, 547), (579, 547), (511, 548)]",178.97924779238667,"[2, 9, 7, 8, 1, 6, 5, 4, 3]","(0, 0.25)",THI009A,THI,A,English,Fri Aug 24 10:18:36 2018,Mouse
1,2,1,0,41,4,5,0,-630,310,320,135,0,500,200,8000,"[(960, 540), (960, 540), (960, 540), (960, 540), (960, 540), (960, 540), (960, 540), (960, 540), (960, 540), (960, 540), (960, 540), (960, 540), (960, 540), (960, 540), (960, 540), (960, 540), (960, 540), (960, 540), (960, 540), (960, 540), (960, 540), (960, 540), (960, 540), (960, 540), (960, 540), (960, 540), (960, 540), (960, 540), (960, 540), (960, 540), (961, 532), (964, 524), (965, 515), (966, 503), (970, 466), (970, 452), (970, 440), (970, 426), (970, 403), (970, 391), (970, 381), (970, 375), (970, 361), (970, 355), (970, 348), (970, 343), (970, 333), (970, 329), (969, 321), (968, 314), (966, 300), (965, 295), (964, 285), (962, 275), (955, 255), (953, 246), (949, 231), (946, 220), (938, 195), (935, 183), (930, 167), (921, 146), (903, 111)]",262.4316029784106,"[2, 9, 7, 8, 1, 6, 5, 4, 3]","(0, 0.25)",THI009A,THI,A,English,Fri Aug 24 10:18:36 2018,Mouse
1,2,1,0,42,4,4,1,929,549,380,136,0,500,200,8000,"[(960, 540), (960, 540), (960, 540), (960, 540), (960, 540), (960, 540), (960, 540), (960, 540), (960, 540), (960, 540), (960, 540), (960, 540), (960, 540), (960, 540), (960, 540), (960, 540), (960, 540), (960, 540), (960, 540), (960, 540), (960, 540), (960, 540), (960, 540), (960, 540), (960, 540), (960, 540), (960, 540), (960, 540), (960, 540), (960, 540), (960, 540), (960, 540), (960, 540), (960, 540), (960, 540), (960, 540), (960, 540), (960, 540), (960, 540), (960, 540), (960, 540), (960, 540), (960, 540), (960, 540), (960, 540), (960, 540), (960, 540), (960, 540), (960, 540), (960, 540), (960, 540), (960, 540), (960, 540), (960, 540), (961, 541), (970, 533), (980, 520), (991, 503), (1017, 472), (1029, 457), (1039, 447), (1049, 438), (1065, 420), (1071, 411), (1078, 402), (1084, 392), (1091, 376), (1094, 368), (1097, 360), (1099, 352), (1103, 341), (1106, 335), (1108, 331), (1109, 328), (1115, 317), (1118, 312), (1121, 305), (1122, 299), (1126, 287), (1127, 283), (1129, 277), (1132, 268), (1138, 256), (1141, 250), (1143, 247), (1147, 239), (1154, 226), (1159, 219), (1164, 212), (1166, 208), (1169, 203), (1170, 201), (1171, 198)]",301.6728870330908,"[2, 9, 7, 8, 1, 6, 5, 4, 3]","(0, 0.25)",THI009A,THI,A,English,Fri Aug 24 10:18:36 2018,Mouse
1,2,1,0,43,3,3,1,570,380,190,136,0,500,200,8000,"[(960, 540), (960, 540), (960, 540), (960, 540), (960, 540), (960, 540), (960, 540), (960, 540), (960, 540), (960, 540), (960, 540), (960, 540), (960, 540), (960, 540), (960, 540), (960, 540), (960, 540), (960, 540), (960, 540), (960, 540), (960, 540), (960, 540), (960, 540), (960, 540), (960, 540), (960, 540), (960, 540), (960, 540), (960, 540), (960, 540), (960, 540), (960, 540), (960, 540), (960, 540), (960, 540), (960, 540), (960, 540), (965, 539), (975, 535), (987, 530), (1003, 522), (1013, 512), (1029, 501), (1042, 493), (1075, 474), (1093, 466), (1112, 456), (1127, 449), (1165, 435), (1181, 432), (1198, 426), (1218, 419), (1256, 405), (1269, 398), (1287, 391), (1308, 381), (1338, 372)]",336.0375110254218,"[2, 9, 7, 8, 1, 6, 5, 4, 3]","(0, 0.25)",THI009A,THI,A,English,Fri Aug 24 10:18:36 2018,Mouse
1,2,1,0,44,2,3,0,-1292,391,901,135,0,500,200,8000,"[(960, 540), (960, 540), (960, 540), (960, 540), (960, 540), (960, 540), (960, 540), (960, 540), (960, 540), (960, 540), (960, 540), (960, 540), (960, 540), (960, 540), (960, 540), (960, 540), (960, 540), (960, 540), (960, 540), (960, 540), (960, 540), (960, 540), (960, 540), (960, 540), (960, 540), (960, 540), (960, 540), (960, 540), (960, 540), (960, 540), (960, 540), (960, 540), (960, 540), (960, 540), (960, 540), (960, 540), (960, 540), (960, 540), (960, 540), (961, 540), (961, 540), (964, 540), (967, 540), (977, 540), (982, 540), (990, 537), (995, 536), (1004, 532), (1006, 531), (1007, 531), (1009, 529), (1011, 528), (1011, 528), (1013, 527), (1013, 527), (1015, 526), (1018, 525), (1019, 524), (1023, 522), (1026, 520), (1029, 519), (1030, 519), (1030, 519), (1030, 519), (1030, 519), (1030, 519), (1030, 519), (1030, 519), (1030, 519), (1030, 519), (1030, 519), (1030, 519), (1030, 519), (1029, 519), (1029, 519), (1029, 519), (1029, 519), (1029, 519), (1029, 519), (1029, 519), (1029, 519), (1029, 519), (1029, 519), (1029, 519), (1029, 519), (1029, 519), (1029, 519), (1029, 519), (1029, 519), (1029, 519), (1029, 519), (1029, 519), (1029, 519), (1029, 519), (1029, 519), (1029, 519), (1029, 519), (1029, 519), (1029, 519), (1029, 519), (1029, 519), (1029, 519), (1029, 519), (1029, 519), (1028, 519), (1028, 519), (1034, 519), (1057, 510), (1066, 504), (1077, 497), (1092, 488), (1121, 475), (1139, 468), (1156, 461), (1169, 456), (1195, 444), (1202, 441), (1211, 437), (1215, 435), (1229, 429), (1236, 427), (1243, 424), (1250, 422), (1268, 419), (1278, 419), (1292, 419), (1304, 419), (1327, 419), (1336, 419), (1343, 419)]",342.46727233860815,"[2, 9, 7, 8, 1, 6, 5, 4, 3]","(0, 0.25)",THI009A,THI,A,English,Fri Aug 24 10:18:36 2018,Mouse
1,2,1,0,45,6,6,1,861,171,690,136,0,500,200,8000,"[(960, 540), (960, 540), (960, 540), (960, 540), (960, 540), (960, 540), (960, 540), (960, 540), (960, 540), (960, 540), (960, 540), (960, 540), (960, 540), (960, 540), (960, 540), (960, 540), (960, 540), (947, 543), (938, 544), (930, 545), (915, 546), (902, 546), (890, 546), (875, 546), (843, 549), (829, 549), (816, 549), (802, 549), (793, 549), (776, 549), (770, 549), (764, 550), (760, 550), (756, 551), (756, 551), (756, 551), (756, 551), (756, 551), (756, 551), (756, 551), (756, 551), (756, 551), (756, 551), (756, 551), (756, 551), (756, 551), (759, 543), (760, 536), (763, 507), (763, 484), (763, 459), (763, 434), (761, 413), (751, 379), (746, 368), (744, 357), (738, 339), (736, 334), (734, 325), (731, 316), (725, 303), (723, 297), (721, 294), (721, 292), (719, 288), (718, 286), (717, 286), (717, 286), (716, 286), (716, 286), (716, 286), (716, 286), (716, 286), (716, 286), (715, 286), (715, 286), (715, 285), (714, 285), (713, 285), (711, 285), (705, 284), (702, 283), (697, 281), (693, 278), (681, 272), (673, 267), (667, 264)]",223.28868437608278,"[2, 9, 7, 8, 1, 6, 5, 4, 3]","(0, 0.25)",THI009A,THI,A,English,Fri Aug 24 10:18:36 2018,Mouse
1,2,1,0,46,7,3,0,-1118,598,520,136,0,500,200,8000,"[(960, 540), (960, 540), (960, 540), (960, 540), (960, 540), (960, 540), (960, 540), (960, 540), (960, 540), (960, 540), (960, 540), (960, 540), (960, 540), (960, 540), (960, 540), (960, 540), (960, 540), (960, 540), (960, 540), (960, 540), (960, 540), (960, 540), (960, 540), (960, 540), (960, 540), (960, 540), (960, 540), (960, 540), (960, 540), (960, 540), (960, 540), (960, 540), (960, 540), (960, 540), (960, 540), (960, 540), (960, 540), (960, 540), (960, 540), (960, 540), (960, 540), (960, 540), (960, 540), (960, 540), (960, 540), (960, 540), (960, 540), (960, 540), (960, 540), (960, 540), (960, 540), (960, 540), (960, 540), (960, 540), (960, 540), (960, 540), (960, 540), (960, 540), (960, 540), (963, 540), (966, 540), (973, 538), (981, 535), (989, 533), (999, 529), (1016, 523), (1024, 521), (1032, 517), (1040, 512), (1052, 508), (1054, 508), (1058, 507), (1061, 504), (1069, 501), (1076, 498), (1082, 496), (1090, 492), (1100, 487), (1105, 484), (1109, 483), (1112, 481), (1119, 478), (1122, 476), (1124, 475), (1129, 473), (1143, 466), (1151, 463), (1162, 458), (1172, 454), (1195, 446), (1204, 443), (1213, 440), (1223, 436), (1243, 431), (1252, 428), (1262, 424), (1271, 421), (1290, 413), (1297, 410), (1303, 407), (1308, 405), (1313, 403), (1316, 401), (1316, 401), (1318, 401), (1324, 398), (1325, 398), (1326, 398), (1328, 397), (1331, 395), (1332, 395), (1335, 395)]",338.86017519134236,"[2, 9, 7, 8, 1, 6, 5, 4, 3]","(0, 0.25)",THI009A,THI,A,English,Fri Aug 24 10:18:36 2018,Mouse
1,2,1,0,47,5,5,1,509,269,240,137,0,500,200,8000,"[(960, 540), (960, 540), (960, 540), (960, 540), (960, 540), (960, 540), (960, 540), (960, 540), (960, 540), (960, 540), (960, 540), (960, 540), (960, 540), (960, 540), (960, 540), (960, 540), (960, 540), (960, 540), (960, 540), (960, 540), (960, 540), (960, 540), (960, 540), (960, 540), (960, 540), (960, 540), (960, 539), (959, 538), (952, 535), (950, 533), (948, 531), (946, 527), (937, 510), (932, 497), (924, 481), (916, 465), (903, 437), (896, 419), (891, 402), (885, 383), (879, 338), (876, 317), (871, 287), (870, 264), (859, 225), (855, 211), (852, 201), (851, 189), (849, 170), (846, 160), (844, 150)]",253.43563258728153,"[2, 9, 7, 8, 1, 6, 5, 4, 3]","(0, 0.25)",THI009A,THI,A,English,Fri Aug 24 10:18:36 2018,Mouse
1,2,1,0,48,8,8,1,1630,1360,270,137,0,500,200,8000,"[(960, 540), (960, 540), (960, 540), (960, 540), (960, 540), (960, 540), (960, 540), (960, 540), (960, 540), (960, 540), (960, 540), (960, 540), (960, 540), (960, 540), (960, 540), (960, 540), (960, 540), (960, 540), (960, 540), (960, 540), (960, 540), (960, 540), (960, 540), (960, 540), (960, 540), (960, 540), (960, 540), (960, 540), (960, 540), (960, 540), (960, 540), (960, 540), (960, 540), (960, 540), (960, 540), (960, 540), (960, 540), (960, 540), (960, 540), (960, 540), (960, 540), (960, 540), (960, 540), (960, 540), (960, 540), (960, 540), (960, 540), (960, 540), (960, 540), (960, 540), (960, 540), (960, 540), (960, 540), (960, 540), (960, 540), (960, 540), (960, 540), (960, 540), (960, 540), (960, 540), (960, 540), (960, 540), (960, 540), (960, 540), (960, 540), (960, 540), (960, 540), (960, 540), (960, 540), (960, 540), (960, 540), (960, 540), (960, 540), (960, 540), (960, 540), (960, 540), (960, 540), (960, 540), (960, 540), (960, 540), (960, 540), (960, 540), (960, 540), (960, 540), (960, 540), (960, 540), (960, 540), (960, 540), (960, 540), (960, 540), (960, 540), (960, 540), (960, 540), (960, 540), (960, 540), (960, 540), (960, 540), (960, 540), (960, 540), (960, 540), (960, 540), (960, 540), (960, 540), (960, 540), (960, 540), (960, 540), (960, 540), (960, 540), (960, 540), (960, 540), (960, 540), (960, 540), (960, 540), (960, 540), (960, 540), (960, 540), (960, 540), (960, 540), (960, 540), (960, 540), (960, 540), (960, 540), (960, 540), (960, 540), (960, 540), (960, 540), (960, 540), (960, 540), (960, 540), (960, 540), (960, 540), (960, 540), (960, 540), (960, 540), (960, 540), (960, 544), (960, 550), (959, 553), (958, 556), (955, 560), (950, 572), (948, 578), (945, 585), (939, 594), (925, 613), (916, 623), (904, 633), (894, 641), (877, 656), (867, 664), (858, 672), (847, 681), (829, 701), (820, 711), (811, 725), (799, 739), (772, 779), (761, 793), (751, 808), (743, 818), (722, 836), (712, 844), (701, 850)]",129.87821229519923,"[2, 9, 7, 8, 1, 6, 5, 4, 3]","(0, 0.25)",THI009A,THI,A,English,Fri Aug 24 10:18:36 2018,Mouse
1,2,1,0,49,5,5,1,581,71,510,136,0,500,200,8000,"[(960, 540), (960, 540), (960, 540), (960, 540), (960, 540), (960, 540), (960, 540), (960, 541), (960, 541), (962, 528), (962, 521), (963, 512), (966, 500), (969, 478), (971, 463), (972, 449), (975, 432), (979, 412), (979, 407), (980, 402), (980, 397), (983, 388), (983, 382), (984, 378), (985, 371), (987, 357), (988, 347), (989, 336), (990, 326), (990, 310), (990, 302), (990, 296), (990, 291), (990, 277), (990, 267), (990, 259), (990, 249), (990, 236), (988, 232), (988, 230), (987, 228), (986, 227), (985, 226), (985, 226), (985, 226), (985, 225), (985, 224), (985, 222), (984, 222), (983, 217), (981, 215), (980, 213), (977, 206), (970, 189), (966, 180), (960, 170), (954, 161), (941, 141), (936, 134)]",266.6169942086694,"[2, 9, 7, 8, 1, 6, 5, 4, 3]","(0, 0.25)",THI009A,THI,A,English,Fri Aug 24 10:18:36 2018,Mouse
1,2,1,0,50,6,6,1,660,280,380,135,0,500,200,8000,"[(960, 540), (960, 540), (960, 540), (960, 540), (960, 540), (960, 540), (960, 540), (960, 540), (960, 540), (960, 540), (960, 540), (960, 540), (960, 540), (960, 540), (960, 540), (960, 540), (960, 540), (960, 540), (960, 540), (960, 540), (960, 540), (960, 540), (960, 540), (960, 540), (960, 540), (960, 540), (960, 540), (958, 540), (957, 540), (955, 540), (955, 541), (954, 541), (952, 541), (947, 541), (941, 541), (933, 541), (927, 541), (909, 536), (902, 532), (892, 528), (881, 522), (863, 510), (849, 500), (839, 491), (825, 480), (800, 459), (791, 451), (782, 443), (774, 435), (757, 422), (749, 414), (740, 406), (735, 400), (722, 384), (714, 375), (708, 368), (701, 361), (687, 347), (680, 340), (675, 335), (670, 330), (661, 320), (656, 315), (653, 310), (649, 304), (640, 292)]",217.77568430595466,"[2, 9, 7, 8, 1, 6, 5, 4, 3]","(0, 0.25)",THI009A,THI,A,English,Fri Aug 24 10:18:36 2018,Mouse
1,2,1,0,51,7,1,0,-1259,429,830,134,0,500,200,8000,"[(960, 540), (960, 540), (960, 540), (960, 540), (960, 540), (960, 540), (960, 540), (960, 540), (960, 540), (960, 540), (960, 540), (960, 540), (960, 540), (960, 540), (960, 540), (960, 540), (960, 540), (960, 540), (960, 540), (960, 540), (960, 540), (960, 540), (960, 540), (960, 540), (960, 540), (960, 540), (960, 540), (960, 540), (960, 540), (960, 540), (960, 540), (960, 540), (960, 540), (960, 540), (960, 540), (960, 540), (960, 540), (960, 540), (960, 540), (960, 540), (960, 540), (960, 540), (955, 541), (953, 542), (951, 544), (950, 545), (948, 547), (946, 547), (946, 548), (944, 549), (942, 551), (940, 554), (938, 555), (936, 559), (929, 573), (926, 582), (920, 593), (919, 601), (919, 609), (925, 613), (931, 615), (933, 617), (933, 617), (933, 617), (933, 617), (933, 617), (933, 617), (933, 617), (933, 617), (933, 617), (933, 617), (933, 617), (933, 617), (933, 617), (933, 617), (933, 617), (933, 617), (933, 617), (933, 617), (933, 617), (933, 617), (933, 617), (933, 617), (933, 617), (933, 617), (933, 617), (933, 617), (933, 617), (933, 617), (933, 617), (933, 617), (933, 617), (933, 617), (933, 617), (933, 617), (933, 617), (933, 617), (933, 617), (933, 617), (933, 617), (932, 617), (929, 616), (920, 611), (916, 608), (912, 606), (905, 603), (892, 601), (884, 599), (874, 598), (863, 598), (838, 598), (825, 598), (810, 598), (791, 601), (736, 606), (714, 606), (691, 606), (675, 606), (644, 606), (631, 606), (620, 606), (610, 606), (592, 606), (584, 606), (575, 606), (565, 606)]",170.5141573583559,"[2, 9, 7, 8, 1, 6, 5, 4, 3]","(0, 0.25)",THI009A,THI,A,English,Fri Aug 24 10:18:36 2018,Mouse
1,2,1,0,52,7,2,0,-1319,59,1260,135,0,500,200,8000,"[(960, 540), (960, 540), (960, 540), (960, 540), (960, 540), (960, 541), (960, 541), (960, 541), (960, 541), (960, 541), (960, 541), (960, 541), (960, 541), (960, 541), (960, 541), (960, 541), (960, 541), (961, 543), (962, 544), (968, 546), (969, 547), (973, 547), (978, 547), (994, 551), (1005, 552), (1020, 553), (1036, 555), (1069, 559), (1083, 560), (1096, 562), (1109, 562), (1125, 563), (1134, 564), (1136, 565), (1137, 565), (1138, 565), (1138, 565), (1138, 565), (1138, 565), (1138, 565), (1138, 565), (1138, 565), (1138, 565), (1138, 565), (1138, 565), (1138, 565), (1138, 565), (1138, 565), (1138, 565), (1138, 565), (1138, 565), (1138, 565), (1138, 565), (1138, 565), (1138, 565), (1138, 565), (1138, 565), (1138, 565), (1138, 565), (1138, 565), (1138, 565), (1138, 565), (1138, 565), (1135, 565), (1132, 565), (1131, 565), (1127, 565), (1117, 565), (1109, 565), (1098, 563), (1088, 562), (1063, 557), (1054, 556), (1047, 556), (1041, 555), (1031, 554), (1027, 554), (1025, 554), (1021, 553), (1017, 553), (1015, 553), (1013, 553), (1011, 553), (1011, 553), (1010, 553), (1010, 553), (1009, 553), (1009, 553), (1009, 553), (1009, 553), (1009, 553), (1009, 553), (1009, 553), (1009, 553), (1009, 553), (1009, 553), (1009, 553), (1009, 553), (1009, 553), (1009, 553), (1009, 553), (1009, 553), (1009, 553), (1009, 553), (1009, 553), (1009, 553), (1009, 553), (1009, 553), (1009, 553), (1009, 553), (1009, 553), (1009, 553), (1009, 553), (1010, 553), (1010, 553), (1012, 554), (1015, 556), (1018, 557), (1021, 560), (1039, 570), (1054, 577), (1069, 584), (1084, 590), (1119, 602), (1135, 606), (1152, 611), (1180, 619), (1241, 636), (1266, 644), (1294, 651), (1314, 658), (1346, 664)]",17.809278753674782,"[2, 9, 7, 8, 1, 6, 5, 4, 3]","(0, 0.25)",THI009A,THI,A,English,Fri Aug 24 10:18:36 2018,Mouse
1,2,1,0,53,1,1,1,320,20,300,136,0,500,200,8000,"[(959, 540), (956, 540), (952, 540), (948, 540), (942, 540), (932, 540), (898, 533), (883, 532), (865, 528), (851, 527), (821, 522), (811, 521), (803, 520), (796, 518), (791, 517), (790, 517), (790, 517), (790, 517), (789, 517), (789, 517), (788, 517), (788, 517), (782, 517), (775, 516), (769, 516), (759, 516), (723, 516), (701, 516), (670, 516), (640, 516), (582, 520), (556, 523)]",182.4095395317886,"[2, 9, 7, 8, 1, 6, 5, 4, 3]","(0, 0.25)",THI009A,THI,A,English,Fri Aug 24 10:18:36 2018,Mouse
1,2,1,0,54,2,2,1,2430,2010,420,136,0,500,200,8000,"[(960, 540), (960, 540), (960, 540), (960, 540), (960, 540), (960, 540), (960, 540), (960, 540), (960, 540), (960, 540), (960, 540), (960, 540), (960, 540), (960, 540), (960, 540), (960, 540), (960, 540), (960, 540), (960, 540), (960, 540), (960, 540), (960, 540), (960, 540), (960, 540), (960, 540), (960, 540), (960, 540), (960, 540), (960, 540), (960, 540), (960, 540), (960, 540), (960, 540), (960, 540), (960, 540), (960, 540), (960, 540), (960, 540), (960, 540), (960, 540), (960, 540), (960, 540), (960, 540), (960, 540), (960, 540), (960, 540), (960, 540), (960, 540), (960, 540), (960, 540), (960, 540), (960, 540), (960, 540), (960, 540), (960, 540), (960, 540), (960, 540), (960, 540), (960, 540), (960, 540), (960, 540), (960, 540), (960, 540), (960, 540), (960, 540), (960, 540), (960, 540), (960, 540), (960, 540), (960, 540), (960, 540), (960, 540), (960, 540), (960, 540), (960, 540), (960, 540), (960, 540), (960, 540), (960, 540), (960, 540), (960, 540), (960, 540), (960, 540), (960, 540), (960, 540), (960, 540), (960, 540), (960, 540), (960, 540), (960, 540), (960, 540), (960, 540), (960, 540), (960, 540), (960, 540), (960, 540), (960, 540), (960, 540), (960, 540), (960, 540), (960, 540), (960, 540), (960, 540), (960, 540), (960, 540), (960, 540), (960, 540), (960, 540), (960, 540), (960, 540), (960, 540), (960, 540), (960, 540), (960, 540), (960, 540), (960, 540), (960, 540), (960, 540), (960, 540), (960, 540), (960, 540), (960, 540), (960, 540), (960, 540), (960, 540), (960, 540), (960, 540), (960, 540), (960, 540), (960, 540), (960, 540), (960, 540), (960, 540), (960, 540), (960, 540), (960, 540), (960, 540), (960, 540), (960, 540), (960, 540), (960, 540), (960, 540), (960, 540), (960, 540), (960, 540), (960, 540), (960, 540), (960, 540), (960, 540), (960, 540), (960, 540), (960, 540), (960, 540), (960, 540), (960, 540), (960, 540), (960, 540), (960, 540), (960, 540), (960, 540), (960, 540), (960, 540), (960, 540), (960, 540), (960, 540), (960, 540), (960, 540), (960, 540), (960, 540), (960, 540), (960, 540), (960, 540), (960, 540), (960, 540), (960, 540), (960, 540), (960, 540), (960, 540), (960, 540), (960, 540), (960, 540), (960, 540), (960, 540), (960, 540), (960, 540), (960, 540), (960, 540), (960, 540), (960, 540), (960, 540), (960, 540), (960, 540), (960, 540), (960, 540), (960, 540), (960, 540), (960, 540), (960, 540), (960, 540), (960, 540), (961, 540), (962, 540), (964, 540), (964, 540), (964, 540), (966, 539), (969, 537), (972, 536), (975, 535), (979, 534), (983, 533), (987, 533), (990, 533), (995, 532), (997, 532), (999, 532), (1000, 532), (1004, 532), (1005, 532), (1008, 532), (1009, 532), (1016, 532), (1019, 532), (1024, 532), (1028, 535), (1045, 544), (1055, 551), (1064, 558), (1074, 566), (1096, 586), (1104, 591), (1115, 599), (1125, 605), (1147, 616), (1160, 625), (1171, 628), (1184, 634), (1222, 644), (1241, 650), (1264, 658), (1280, 661), (1326, 678), (1350, 689)]",20.909420932079172,"[2, 9, 7, 8, 1, 6, 5, 4, 3]","(0, 0.25)",THI009A,THI,A,English,Fri Aug 24 10:18:36 2018,Mouse
1,2,1,0,55,3,3,1,570,200,370,135,0,500,200,8000,"[(960, 540), (960, 540), (960, 540), (960, 540), (960, 540), (960, 540), (960, 540), (960, 540), (960, 540), (960, 540), (960, 540), (960, 540), (960, 540), (960, 540), (960, 540), (960, 540), (960, 540), (960, 540), (960, 540), (958, 540), (957, 540), (952, 539), (951, 537), (947, 534), (942, 529), (936, 524), (933, 520), (932, 518), (932, 517), (932, 513), (932, 509), (932, 506), (932, 501), (934, 486), (939, 476), (945, 468), (953, 462), (972, 456), (985, 453), (996, 452), (1007, 452), (1032, 452), (1046, 452), (1061, 452), (1074, 452), (1102, 448), (1115, 443), (1129, 439), (1143, 435), (1174, 425), (1187, 421), (1205, 415), (1231, 407), (1278, 393), (1303, 387), (1326, 379), (1343, 374)]",336.56710908315006,"[2, 9, 7, 8, 1, 6, 5, 4, 3]","(0, 0.25)",THI009A,THI,A,English,Fri Aug 24 10:18:36 2018,Mouse
1,2,1,0,56,4,6,0,-939,689,250,134,0,500,200,8000,"[(960, 540), (960, 540), (960, 540), (960, 540), (960, 540), (960, 540), (960, 540), (960, 540), (960, 540), (960, 540), (960, 540), (960, 540), (960, 540), (960, 540), (960, 540), (960, 540), (960, 540), (960, 540), (960, 540), (960, 540), (960, 540), (960, 540), (960, 540), (960, 540), (960, 540), (960, 540), (960, 540), (960, 540), (960, 540), (960, 540), (960, 540), (960, 540), (960, 540), (960, 540), (960, 540), (960, 540), (960, 540), (960, 540), (960, 540), (960, 540), (960, 540), (960, 540), (960, 540), (960, 540), (960, 540), (960, 540), (960, 540), (960, 540), (960, 540), (960, 540), (960, 540), (960, 540), (960, 540), (960, 540), (960, 540), (960, 540), (960, 540), (960, 540), (960, 540), (960, 540), (960, 540), (960, 540), (960, 540), (960, 540), (960, 540), (960, 540), (960, 540), (960, 540), (960, 539), (955, 538), (949, 535), (925, 524), (904, 515), (886, 506), (862, 495), (812, 475), (787, 465), (764, 459), (742, 451), (708, 437), (698, 432), (690, 427), (683, 423), (676, 415), (672, 407), (670, 402), (668, 396), (665, 389), (662, 383), (659, 375), (654, 363), (642, 337), (631, 316), (622, 302)]",215.15098548888295,"[2, 9, 7, 8, 1, 6, 5, 4, 3]","(0, 0.25)",THI009A,THI,A,English,Fri Aug 24 10:18:36 2018,Mouse
1,2,1,0,57,8,4,0,-1000,570,430,135,0,500,200,8000,"[(960, 540), (960, 540), (960, 540), (960, 540), (960, 540), (960, 540), (960, 540), (960, 540), (960, 540), (960, 540), (960, 540), (960, 540), (960, 540), (960, 540), (960, 540), (960, 540), (960, 540), (960, 540), (960, 540), (960, 540), (960, 540), (960, 540), (960, 540), (960, 540), (960, 540), (960, 540), (960, 540), (960, 540), (960, 540), (960, 540), (960, 540), (960, 540), (960, 540), (960, 540), (960, 540), (960, 540), (960, 540), (960, 540), (960, 540), (960, 540), (960, 540), (960, 540), (960, 540), (960, 540), (960, 540), (960, 540), (960, 540), (960, 540), (960, 540), (960, 540), (960, 540), (960, 540), (960, 540), (960, 540), (960, 540), (960, 540), (960, 538), (962, 528), (966, 508), (975, 481), (980, 436), (984, 420), (985, 411), (986, 404), (989, 396), (989, 394), (990, 391), (990, 388), (992, 382), (993, 381), (993, 381), (993, 381), (993, 381), (993, 381), (993, 381), (993, 380), (995, 378), (995, 377), (996, 377), (996, 376), (997, 374), (998, 374), (999, 372), (1001, 367), (1006, 357), (1010, 350), (1015, 342), (1019, 337), (1032, 323), (1042, 316), (1054, 308), (1068, 296), (1106, 266), (1123, 253), (1137, 243), (1150, 231), (1168, 219), (1174, 214), (1181, 209), (1185, 205)]",303.8869594640517,"[2, 9, 7, 8, 1, 6, 5, 4, 3]","(0, 0.25)",THI009A,THI,A,English,Fri Aug 24 10:18:36 2018,Mouse
1,2,1,0,58,3,3,1,1190,920,270,136,0,500,200,8000,"[(960, 540), (960, 540), (960, 540), (960, 540), (960, 540), (960, 540), (960, 540), (960, 540), (960, 540), (960, 540), (960, 540), (960, 540), (960, 540), (960, 540), (960, 540), (960, 540), (960, 540), (960, 540), (960, 540), (960, 540), (960, 540), (960, 540), (960, 540), (960, 540), (960, 540), (960, 540), (960, 540), (960, 540), (960, 540), (960, 540), (960, 540), (960, 540), (960, 540), (960, 540), (960, 540), (960, 540), (960, 540), (960, 540), (960, 540), (960, 540), (960, 540), (960, 540), (960, 540), (960, 540), (960, 540), (960, 540), (960, 540), (960, 540), (960, 540), (960, 540), (960, 540), (960, 540), (960, 540), (960, 540), (960, 540), (960, 540), (960, 540), (960, 540), (960, 540), (960, 540), (960, 540), (960, 540), (960, 540), (960, 540), (960, 540), (960, 540), (960, 540), (960, 540), (960, 540), (960, 540), (960, 540), (960, 540), (960, 540), (960, 540), (960, 540), (960, 540), (960, 540), (960, 540), (960, 540), (960, 540), (960, 540), (960, 540), (960, 540), (960, 540), (960, 540), (960, 540), (960, 540), (960, 540), (960, 540), (960, 540), (960, 540), (962, 539), (975, 525), (991, 509), (1007, 498), (1048, 475), (1062, 466), (1072, 461), (1083, 453), (1113, 435), (1126, 428), (1146, 414), (1166, 400), (1194, 379), (1205, 371), (1214, 366), (1222, 361), (1235, 353), (1244, 351), (1254, 348), (1263, 347), (1280, 347), (1286, 347), (1291, 347), (1294, 347), (1300, 347), (1304, 347), (1308, 348), (1318, 352)]",332.29425438930826,"[2, 9, 7, 8, 1, 6, 5, 4, 3]","(0, 0.25)",THI009A,THI,A,English,Fri Aug 24 10:18:36 2018,Mouse
1,2,1,0,59,9,7,0,-4271,3040,1231,136,0,500,200,8000,"[(960, 540), (960, 540), (960, 540), (960, 540), (960, 540), (960, 540), (960, 540), (960, 540), (960, 540), (960, 540), (960, 540), (960, 540), (960, 540), (960, 540), (960, 540), (960, 540), (960, 540), (960, 540), (960, 540), (960, 540), (960, 540), (960, 540), (960, 540), (960, 540), (960, 540), (960, 540), (960, 540), (960, 540), (960, 540), (960, 540), (960, 540), (960, 540), (960, 540), (960, 540), (960, 540), (960, 540), (960, 540), (960, 540), (960, 540), (960, 540), (960, 540), (960, 540), (960, 540), (960, 540), (960, 540), (960, 540), (960, 540), (960, 540), (960, 540), (960, 540), (960, 540), (960, 540), (960, 540), (960, 540), (960, 540), (960, 540), (960, 540), (960, 540), (960, 540), (960, 540), (960, 540), (960, 540), (960, 540), (960, 540), (960, 540), (960, 540), (960, 540), (960, 540), (960, 540), (960, 540), (960, 540), (960, 540), (960, 540), (960, 540), (960, 540), (960, 540), (960, 540), (960, 540), (960, 540), (960, 540), (960, 540), (960, 540), (960, 540), (960, 540), (960, 540), (960, 540), (960, 540), (960, 540), (960, 540), (960, 540), (960, 540), (960, 540), (960, 540), (960, 540), (960, 540), (960, 540), (960, 540), (960, 540), (960, 540), (960, 540), (960, 540), (960, 540), (960, 540), (960, 540), (960, 540), (960, 540), (960, 540), (960, 540), (960, 540), (960, 540), (960, 540), (960, 540), (960, 540), (960, 540), (960, 540), (960, 540), (960, 540), (960, 540), (960, 540), (960, 540), (960, 540), (960, 540), (960, 540), (960, 540), (960, 540), (960, 540), (960, 540), (960, 540), (960, 540), (960, 540), (960, 540), (960, 540), (960, 540), (960, 540), (960, 540), (960, 540), (960, 540), (960, 540), (960, 540), (960, 540), (960, 540), (960, 540), (960, 540), (960, 540), (960, 540), (960, 540), (960, 540), (960, 540), (960, 540), (960, 540), (960, 540), (960, 540), (960, 540), (960, 540), (960, 540), (960, 540), (960, 540), (960, 540), (960, 540), (960, 540), (960, 540), (960, 540), (960, 540), (960, 540), (960, 540), (960, 540), (960, 540), (960, 540), (960, 540), (960, 540), (960, 540), (960, 540), (960, 540), (960, 540), (960, 540), (960, 540), (960, 540), (960, 540), (960, 540), (960, 540), (960, 540), (960, 540), (960, 540), (960, 540), (960, 540), (960, 540), (960, 540), (960, 540), (960, 540), (960, 540), (960, 540), (960, 540), (960, 540), (960, 540), (960, 540), (960, 540), (960, 540), (960, 540), (960, 540), (960, 540), (960, 540), (960, 540), (960, 540), (960, 540), (960, 540), (960, 540), (960, 540), (960, 540), (960, 540), (960, 540), (960, 540), (960, 540), (960, 540), (960, 540), (960, 540), (960, 540), (960, 540), (960, 540), (960, 540), (960, 540), (960, 540), (960, 540), (960, 540), (960, 540), (960, 540), (960, 540), (960, 540), (960, 540), (960, 540), (960, 540), (960, 540), (960, 540), (960, 540), (960, 540), (960, 540), (960, 540), (960, 540), (960, 540), (960, 540), (960, 540), (960, 540), (960, 540), (960, 540), (960, 540), (960, 540), (960, 540), (960, 540), (960, 540), (960, 540), (960, 540), (960, 540), (960, 540), (960, 540), (960, 540), (960, 540), (960, 540), (960, 540), (960, 540), (960, 540), (960, 540), (960, 540), (960, 540), (960, 540), (960, 540), (960, 540), (960, 540), (960, 540), (960, 540), (960, 540), (960, 540), (960, 540), (960, 540), (960, 540), (960, 540), (960, 540), (960, 540), (960, 540), (960, 540), (960, 540), (960, 540), (960, 540), (960, 540), (960, 540), (960, 540), (960, 540), (960, 540), (960, 540), (960, 540), (960, 540), (960, 540), (960, 540), (960, 540), (960, 540), (960, 540), (960, 540), (960, 540), (960, 540), (960, 540), (960, 540), (960, 540), (960, 540), (960, 540), (960, 540), (959, 539), (959, 539), (959, 539), (959, 539), (959, 539), (959, 539), (959, 539), (959, 539), (959, 539), (959, 539), (959, 539), (959, 539), (959, 539), (959, 539), (959, 539), (959, 539), (959, 539), (959, 539), (959, 539), (959, 539), (959, 539), (959, 539), (959, 539), (959, 539), (959, 540), (959, 541), (959, 545), (959, 546), (959, 548), (960, 550), (960, 551), (960, 553), (961, 555), (962, 556), (963, 557), (963, 557), (963, 558), (964, 560), (964, 561), (964, 563), (965, 564), (965, 566), (965, 566), (966, 566), (966, 566), (966, 566), (966, 566), (966, 567), (966, 567), (966, 567), (966, 567), (966, 568), (967, 570), (967, 571), (967, 571), (967, 572), (967, 574), (967, 575), (967, 577), (967, 581), (971, 590), (973, 596), (975, 601), (976, 605), (980, 617), (981, 624), (983, 631), (986, 640), (990, 657), (993, 668), (994, 680), (994, 692), (994, 713), (994, 722), (994, 728), (994, 737), (990, 757), (990, 767), (988, 775), (988, 782), (985, 791), (985, 795), (983, 801), (980, 806), (975, 814), (972, 819), (969, 826), (966, 832), (961, 842), (960, 845), (957, 848), (956, 851), (953, 856), (952, 859), (951, 862), (950, 867), (948, 872), (946, 876), (945, 879), (945, 882), (944, 887), (942, 890), (942, 890), (941, 891), (940, 894), (940, 894), (940, 894), (940, 895), (940, 897), (940, 897), (940, 899), (938, 901), (937, 904), (937, 905), (937, 907), (936, 911), (934, 916), (934, 918), (933, 920), (932, 924), (932, 929), (931, 931), (930, 934), (929, 940)]",94.43156471643584,"[2, 9, 7, 8, 1, 6, 5, 4, 3]","(0, 0.25)",THI009A,THI,A,English,Fri Aug 24 10:18:36 2018,Mouse
1,2,1,0,60,7,7,1,1879,860,1019,137,0,500,200,8000,"[(960, 540), (960, 540), (960, 540), (960, 540), (960, 540), (960, 540), (960, 540), (960, 540), (960, 540), (960, 540), (960, 540), (960, 540), (960, 540), (960, 540), (960, 540), (960, 540), (960, 540), (960, 540), (960, 540), (960, 540), (960, 540), (960, 540), (960, 540), (960, 540), (960, 540), (960, 540), (960, 540), (960, 540), (960, 540), (960, 540), (960, 540), (960, 540), (960, 540), (960, 540), (960, 540), (960, 540), (960, 540), (960, 540), (960, 540), (960, 540), (960, 540), (960, 540), (960, 540), (960, 540), (960, 540), (960, 540), (960, 540), (960, 540), (960, 540), (960, 540), (960, 540), (960, 540), (960, 540), (960, 540), (960, 540), (960, 540), (960, 540), (960, 540), (960, 540), (960, 540), (960, 540), (960, 540), (960, 540), (960, 540), (960, 540), (960, 540), (960, 540), (960, 540), (960, 540), (960, 540), (960, 540), (960, 540), (960, 540), (960, 540), (960, 540), (960, 540), (960, 540), (960, 540), (960, 540), (960, 540), (960, 540), (960, 540), (960, 540), (960, 540), (960, 540), (962, 540), (967, 542), (976, 546), (983, 549), (986, 550), (988, 551), (989, 551), (989, 551), (989, 551), (989, 551), (989, 551), (989, 551), (989, 551), (989, 551), (989, 551), (989, 551), (989, 551), (989, 551), (989, 551), (989, 551), (989, 551), (989, 551), (989, 551), (989, 551), (989, 551), (989, 551), (989, 551), (989, 551), (990, 552), (990, 552), (990, 555), (990, 555), (990, 556), (990, 556), (990, 557), (990, 557), (990, 557), (990, 557), (990, 557), (990, 557), (990, 557), (990, 557), (990, 557), (990, 557), (990, 557), (990, 557), (990, 557), (990, 557), (990, 557), (990, 557), (990, 557), (990, 557), (990, 557), (990, 557), (990, 557), (990, 557), (990, 557), (990, 557), (990, 557), (990, 557), (990, 557), (990, 557), (990, 557), (990, 557), (990, 557), (990, 557), (990, 557), (990, 557), (990, 557), (990, 557), (990, 557), (990, 557), (990, 557), (990, 557), (990, 557), (990, 557), (990, 557), (990, 557), (990, 557), (990, 557), (990, 557), (990, 557), (990, 557), (990, 557), (990, 557), (990, 557), (990, 557), (990, 557), (989, 558), (989, 558), (983, 566), (980, 573), (978, 583), (974, 598), (966, 649), (963, 675), (957, 705), (953, 740), (934, 827), (929, 860), (923, 884), (918, 909), (908, 941)]",97.38864537578692,"[2, 9, 7, 8, 1, 6, 5, 4, 3]","(0, 0.25)",THI009A,THI,A,English,Fri Aug 24 10:18:36 2018,Mouse
1,2,1,0,61,6,6,1,620,190,430,137,0,500,200,8000,"[(960, 540), (960, 540), (960, 540), (960, 540), (960, 540), (960, 540), (960, 540), (960, 540), (960, 540), (960, 540), (960, 540), (960, 540), (960, 540), (960, 540), (960, 540), (960, 540), (960, 540), (960, 540), (961, 539), (961, 537), (963, 533), (963, 532), (963, 526), (963, 525), (963, 519), (963, 515), (962, 512), (962, 509), (960, 507), (960, 506), (958, 503), (956, 501), (955, 500), (953, 498), (950, 497), (946, 496), (944, 495), (940, 494), (929, 493), (923, 492), (916, 490), (906, 488), (888, 483), (877, 477), (866, 472), (856, 468), (832, 460), (821, 454), (811, 450), (800, 445), (782, 437), (774, 432), (762, 427), (755, 420), (734, 403), (721, 389), (705, 364), (694, 343), (674, 312), (665, 298), (656, 286), (646, 274)]",220.26906137622075,"[2, 9, 7, 8, 1, 6, 5, 4, 3]","(0, 0.25)",THI009A,THI,A,English,Fri Aug 24 10:18:36 2018,Mouse
1,2,1,0,62,7,7,1,1691,281,1410,136,0,500,200,8000,"[(960, 540), (960, 540), (960, 540), (960, 540), (960, 540), (960, 540), (960, 540), (960, 540), (960, 540), (960, 540), (960, 540), (960, 540), (960, 540), (960, 540), (960, 540), (960, 540), (960, 540), (960, 540), (960, 540), (960, 540), (960, 540), (960, 540), (960, 540), (960, 540), (960, 540), (960, 540), (960, 540), (960, 540), (960, 538), (961, 534), (961, 532), (962, 531), (962, 531), (962, 531), (962, 531), (962, 531), (962, 531), (962, 531), (962, 531), (962, 531), (962, 531), (962, 531), (962, 531), (962, 531), (962, 531), (962, 531), (963, 533), (963, 533), (964, 537), (965, 538), (965, 541), (965, 543), (968, 546), (968, 546), (968, 546), (968, 546), (968, 546), (968, 546), (968, 546), (968, 546), (968, 546), (968, 546), (968, 546), (968, 546), (968, 546), (968, 546), (968, 546), (968, 546), (968, 546), (968, 546), (968, 546), (968, 546), (968, 546), (968, 546), (968, 546), (968, 546), (968, 546), (968, 546), (968, 546), (968, 546), (968, 546), (968, 546), (968, 546), (968, 546), (968, 546), (968, 546), (968, 546), (968, 546), (968, 546), (968, 546), (968, 546), (968, 546), (968, 546), (968, 546), (968, 546), (968, 546), (968, 546), (968, 546), (968, 546), (968, 546), (968, 546), (968, 546), (968, 546), (968, 546), (968, 546), (968, 546), (968, 546), (968, 546), (968, 546), (968, 546), (968, 546), (968, 546), (968, 546), (968, 546), (968, 546), (968, 546), (968, 546), (968, 546), (968, 546), (968, 546), (968, 546), (968, 546), (968, 546), (968, 546), (968, 546), (968, 546), (968, 546), (968, 546), (968, 546), (968, 546), (968, 546), (968, 546), (967, 551), (965, 553), (962, 557), (960, 564), (957, 573), (954, 579), (952, 586), (949, 596), (943, 608), (941, 614), (939, 619), (937, 624), (937, 631), (936, 637), (935, 640), (935, 644), (934, 650), (934, 651), (934, 654), (934, 654), (934, 655), (934, 655), (934, 657), (933, 661), (932, 670), (930, 678), (929, 689), (929, 704), (924, 733), (922, 745), (922, 757), (922, 768), (921, 794), (917, 812), (916, 835), (909, 862), (901, 918), (900, 938)]",98.57299836361139,"[2, 9, 7, 8, 1, 6, 5, 4, 3]","(0, 0.25)",THI009A,THI,A,English,Fri Aug 24 10:18:36 2018,Mouse
1,2,1,0,63,8,4,0,-870,700,170,135,0,500,200,8000,"[(960, 540), (960, 540), (960, 540), (960, 540), (960, 540), (960, 540), (960, 540), (960, 540), (960, 540), (960, 540), (960, 540), (960, 540), (960, 540), (960, 540), (960, 540), (960, 540), (960, 540), (960, 540), (960, 540), (960, 540), (960, 540), (960, 540), (960, 540), (960, 540), (960, 540), (960, 540), (960, 540), (960, 540), (960, 540), (960, 540), (960, 540), (960, 540), (960, 540), (960, 540), (960, 540), (960, 540), (960, 540), (960, 540), (960, 540), (960, 540), (960, 540), (960, 540), (960, 540), (960, 540), (960, 540), (960, 540), (960, 540), (960, 540), (960, 540), (960, 540), (960, 540), (960, 540), (960, 540), (960, 540), (960, 540), (960, 540), (960, 540), (960, 540), (960, 540), (960, 540), (960, 540), (960, 540), (960, 540), (960, 540), (960, 540), (960, 540), (960, 540), (960, 540), (960, 540), (960, 538), (962, 537), (966, 534), (972, 529), (982, 514), (986, 508), (990, 499), (999, 484), (1020, 422), (1034, 367), (1040, 308), (1050, 261), (1066, 227), (1074, 217), (1080, 206), (1086, 197), (1096, 173), (1102, 158)]",290.3914971954855,"[2, 9, 7, 8, 1, 6, 5, 4, 3]","(0, 0.25)",THI009A,THI,A,English,Fri Aug 24 10:18:36 2018,Mouse
1,2,1,0,64,4,4,1,582,291,291,136,0,500,200,8000,"[(960, 540), (960, 540), (960, 540), (960, 540), (960, 540), (960, 540), (960, 540), (960, 540), (960, 540), (960, 540), (960, 540), (960, 540), (960, 540), (960, 540), (960, 540), (960, 540), (960, 540), (960, 540), (960, 540), (960, 540), (960, 540), (960, 540), (960, 540), (960, 540), (960, 540), (960, 540), (960, 540), (960, 540), (960, 540), (960, 539), (968, 527), (971, 521), (975, 512), (980, 502), (991, 486), (995, 474), (999, 457), (1004, 444), (1009, 423), (1012, 417), (1015, 412), (1019, 405), (1027, 391), (1031, 385), (1035, 378), (1039, 372), (1048, 358), (1053, 352), (1058, 347), (1061, 343), (1077, 330), (1088, 321), (1104, 307), (1121, 294), (1159, 261), (1172, 248), (1186, 235), (1198, 224), (1217, 207)]",307.6599462889469,"[2, 9, 7, 8, 1, 6, 5, 4, 3]","(0, 0.25)",THI009A,THI,A,English,Fri Aug 24 10:18:36 2018,Mouse
1,2,1,0,65,9,8,0,-2379,1720,659,136,0,500,200,8000,"[(960, 540), (960, 540), (960, 540), (960, 540), (960, 540), (960, 540), (960, 540), (960, 540), (960, 540), (960, 540), (960, 540), (960, 540), (960, 540), (960, 540), (960, 540), (960, 540), (960, 540), (960, 540), (960, 540), (960, 540), (960, 540), (960, 540), (960, 540), (960, 540), (960, 540), (960, 540), (960, 540), (960, 540), (960, 540), (960, 540), (960, 540), (960, 540), (960, 540), (960, 540), (960, 540), (960, 540), (960, 540), (960, 540), (960, 540), (960, 540), (960, 540), (960, 540), (960, 540), (960, 540), (960, 540), (960, 540), (960, 540), (960, 540), (960, 540), (960, 540), (960, 540), (960, 540), (960, 540), (960, 540), (960, 540), (960, 540), (960, 540), (960, 540), (960, 540), (960, 540), (960, 540), (960, 540), (960, 540), (960, 540), (960, 540), (960, 540), (960, 540), (960, 540), (960, 540), (960, 540), (960, 540), (960, 540), (960, 540), (960, 540), (960, 540), (960, 540), (960, 540), (960, 540), (960, 540), (960, 540), (960, 540), (960, 540), (960, 540), (960, 540), (960, 540), (960, 540), (960, 540), (960, 540), (960, 540), (960, 540), (960, 540), (960, 540), (960, 540), (960, 540), (960, 540), (960, 540), (960, 540), (960, 540), (960, 540), (960, 540), (960, 540), (960, 540), (960, 540), (960, 540), (960, 540), (960, 540), (960, 540), (960, 540), (960, 540), (960, 540), (960, 540), (960, 540), (960, 540), (960, 540), (960, 540), (960, 540), (960, 540), (960, 540), (960, 540), (960, 540), (960, 540), (960, 540), (960, 540), (960, 540), (960, 540), (960, 540), (960, 540), (960, 540), (960, 540), (960, 540), (960, 540), (960, 540), (960, 540), (960, 540), (960, 540), (960, 540), (960, 540), (960, 540), (960, 540), (960, 540), (960, 540), (960, 540), (960, 540), (960, 540), (960, 540), (960, 540), (960, 540), (960, 540), (960, 540), (960, 540), (960, 540), (960, 540), (960, 540), (960, 540), (960, 540), (960, 540), (960, 540), (960, 540), (960, 540), (960, 540), (960, 540), (960, 540), (960, 540), (960, 540), (960, 540), (960, 540), (960, 540), (960, 540), (960, 540), (960, 540), (960, 540), (959, 542), (957, 546), (952, 550), (950, 552), (948, 554), (948, 555), (947, 555), (944, 558), (943, 559), (940, 562), (938, 564), (935, 566), (933, 569), (928, 574), (917, 591), (909, 600), (901, 607), (891, 616), (882, 624), (861, 639), (850, 646), (840, 654), (830, 662), (808, 678), (799, 686), (792, 693), (785, 699), (773, 707), (769, 710), (767, 713), (764, 715), (763, 716), (763, 716), (763, 716), (763, 716), (763, 716), (763, 716), (763, 716), (763, 716), (763, 716), (763, 716), (763, 716), (763, 716), (763, 716), (763, 716), (763, 715), (763, 714), (763, 712), (763, 712), (763, 711), (763, 711), (762, 710), (762, 710), (762, 710), (762, 710), (762, 710), (761, 709), (761, 709), (760, 709), (752, 714), (746, 720), (737, 726), (722, 735), (685, 762), (666, 774), (647, 784), (635, 793)]",142.1006143999883,"[2, 9, 7, 8, 1, 6, 5, 4, 3]","(0, 0.25)",THI009A,THI,A,English,Fri Aug 24 10:18:36 2018,Mouse
1,2,1,0,66,7,7,1,1180,820,360,137,0,500,200,8000,"[(960, 540), (960, 540), (960, 540), (960, 540), (960, 540), (960, 540), (960, 540), (960, 540), (960, 540), (960, 540), (960, 540), (960, 540), (960, 540), (960, 540), (960, 540), (960, 540), (960, 540), (960, 540), (960, 540), (960, 540), (960, 540), (960, 540), (960, 540), (960, 540), (960, 540), (960, 540), (960, 540), (960, 540), (960, 540), (960, 540), (960, 540), (960, 540), (960, 540), (960, 540), (960, 540), (960, 540), (960, 540), (960, 540), (960, 540), (960, 540), (960, 540), (960, 540), (960, 540), (960, 540), (960, 540), (960, 540), (960, 540), (960, 540), (960, 540), (960, 540), (960, 540), (960, 540), (960, 540), (960, 540), (960, 540), (960, 540), (960, 540), (960, 540), (960, 540), (960, 540), (960, 540), (960, 540), (960, 540), (960, 540), (960, 540), (960, 540), (960, 540), (960, 540), (960, 540), (960, 540), (960, 540), (960, 540), (960, 540), (960, 540), (960, 540), (960, 540), (960, 540), (960, 540), (960, 540), (960, 540), (960, 540), (960, 541), (960, 541), (960, 542), (960, 544), (960, 546), (960, 546), (960, 548), (960, 548), (959, 550), (959, 550), (959, 552), (959, 554), (959, 554), (958, 556), (958, 561), (958, 563), (957, 567), (954, 573), (949, 585), (947, 592), (942, 601), (938, 610), (932, 640), (929, 658), (927, 676), (921, 714), (914, 791), (910, 807), (908, 816), (905, 822), (903, 846), (903, 860), (903, 875), (903, 888), (902, 917), (902, 928), (902, 936)]",98.33256009637418,"[2, 9, 7, 8, 1, 6, 5, 4, 3]","(0, 0.25)",THI009A,THI,A,English,Fri Aug 24 10:18:36 2018,Mouse
1,2,1,0,67,7,7,1,720,370,350,137,0,500,200,8000,"[(960, 540), (960, 540), (960, 540), (960, 540), (960, 540), (960, 540), (960, 540), (960, 540), (960, 540), (960, 540), (960, 540), (960, 540), (960, 540), (960, 540), (960, 540), (960, 540), (960, 540), (960, 540), (960, 540), (960, 540), (960, 540), (960, 540), (960, 540), (960, 540), (960, 540), (960, 540), (960, 540), (960, 540), (960, 540), (960, 540), (960, 540), (960, 540), (960, 540), (960, 540), (960, 540), (960, 540), (958, 541), (954, 547), (951, 553), (948, 560), (940, 584), (936, 598), (934, 613), (930, 635), (924, 671), (923, 692), (921, 707), (918, 723), (918, 752), (918, 762), (918, 772), (918, 780), (917, 799), (915, 810), (915, 817), (913, 826), (912, 836), (911, 840), (910, 845), (910, 850), (907, 865), (906, 873), (905, 879), (905, 884), (903, 893), (902, 896), (902, 900), (902, 903), (901, 916), (898, 924), (896, 931), (893, 943)]",99.43926555755468,"[2, 9, 7, 8, 1, 6, 5, 4, 3]","(0, 0.25)",THI009A,THI,A,English,Fri Aug 24 10:18:36 2018,Mouse
1,2,1,0,68,2,2,1,900,600,300,136,0,500,200,8000,"[(960, 540), (960, 540), (960, 540), (960, 540), (960, 540), (960, 540), (960, 540), (960, 540), (960, 540), (960, 540), (960, 540), (960, 540), (960, 540), (960, 540), (960, 540), (960, 540), (960, 540), (960, 540), (960, 540), (960, 540), (960, 540), (960, 540), (960, 540), (960, 540), (960, 540), (960, 540), (960, 540), (960, 540), (960, 540), (960, 540), (960, 540), (960, 540), (960, 540), (960, 540), (960, 540), (960, 540), (960, 540), (960, 540), (960, 540), (960, 540), (960, 540), (960, 540), (960, 540), (960, 540), (960, 540), (960, 540), (960, 540), (960, 540), (960, 540), (960, 540), (960, 540), (960, 540), (960, 540), (960, 540), (960, 540), (960, 540), (960, 540), (960, 540), (960, 540), (962, 540), (968, 544), (975, 550), (983, 555), (1000, 565), (1012, 570), (1023, 577), (1038, 586), (1061, 594), (1072, 600), (1080, 603), (1084, 605), (1094, 609), (1098, 612), (1102, 614), (1108, 618), (1124, 627), (1131, 630), (1139, 634), (1150, 637), (1167, 644), (1178, 647), (1190, 653), (1204, 659), (1234, 670), (1254, 677), (1272, 684), (1287, 690), (1311, 702), (1321, 706), (1331, 711)]",24.745753096876683,"[2, 9, 7, 8, 1, 6, 5, 4, 3]","(0, 0.25)",THI009A,THI,A,English,Fri Aug 24 10:18:36 2018,Mouse
1,2,1,0,69,4,4,1,820,500,320,135,0,500,200,8000,"[(960, 540), (960, 540), (960, 540), (960, 540), (960, 540), (960, 540), (960, 540), (960, 540), (960, 540), (960, 540), (960, 540), (960, 540), (960, 540), (960, 540), (960, 540), (960, 540), (960, 540), (960, 540), (960, 540), (960, 540), (960, 540), (960, 540), (960, 540), (960, 540), (960, 540), (960, 540), (960, 540), (960, 540), (960, 540), (960, 540), (960, 540), (960, 540), (960, 540), (960, 540), (960, 540), (960, 540), (960, 540), (960, 540), (960, 540), (960, 540), (960, 540), (960, 540), (960, 540), (960, 540), (960, 540), (960, 540), (960, 540), (960, 540), (960, 540), (961, 539), (961, 521), (961, 510), (964, 492), (966, 480), (967, 470), (969, 460), (971, 443), (972, 438), (975, 424), (978, 410), (982, 396), (983, 391), (985, 389), (987, 386), (993, 376), (996, 372), (999, 369), (1002, 366), (1012, 357), (1016, 353), (1022, 348), (1027, 343), (1041, 331), (1050, 322), (1057, 315), (1066, 304), (1085, 282), (1097, 271), (1118, 251), (1139, 236), (1169, 208), (1189, 192)]",303.34675471354655,"[2, 9, 7, 8, 1, 6, 5, 4, 3]","(0, 0.25)",THI009A,THI,A,English,Fri Aug 24 10:18:36 2018,Mouse
1,2,1,0,70,1,3,0,-701,481,220,134,0,500,200,8000,"[(960, 540), (960, 540), (960, 540), (960, 540), (960, 540), (960, 540), (960, 540), (960, 540), (960, 540), (960, 540), (960, 540), (960, 540), (960, 540), (960, 540), (960, 540), (960, 540), (960, 540), (960, 540), (960, 540), (960, 540), (960, 540), (960, 540), (960, 540), (960, 540), (960, 540), (960, 540), (960, 540), (960, 540), (960, 540), (960, 540), (960, 540), (960, 540), (960, 540), (960, 540), (960, 540), (960, 540), (960, 540), (960, 540), (960, 540), (960, 540), (960, 540), (960, 540), (960, 540), (960, 540), (960, 540), (960, 540), (960, 540), (960, 540), (962, 540), (967, 538), (981, 531), (987, 529), (1003, 524), (1015, 522), (1046, 512), (1062, 507), (1076, 503), (1096, 498), (1147, 482), (1172, 472), (1195, 466), (1215, 458), (1254, 446), (1274, 441), (1290, 437), (1305, 432), (1324, 429), (1331, 428), (1336, 427), (1339, 426), (1344, 424)]",343.19130837379316,"[2, 9, 7, 8, 1, 6, 5, 4, 3]","(0, 0.25)",THI009A,THI,A,English,Fri Aug 24 10:18:36 2018,Mouse
