NativeLangNumber,LanuageNumber,SessionNumber,Block,TrialNum,ConditionNumber,Response,Accuracy,RT,MovementOnsetTime,TimeInMotion,SignalContrast,SignalContrastNumber,StimDisplayTime,MaskTime,MaxResponseTime,MousePositionXY,MouseAngle,WheelOrder,NoiseMuSigma,ParticipantID,LanuageTested,SessionTested,NativeLanuage,Date,ResponseDevice
1,2,1,0,1,6,6,1,669,629,40,153,0,500,200,8000,"[(960, 540), (960, 540), (960, 540), (960, 540), (960, 540), (960, 540), (960, 540), (960, 540), (960, 540), (960, 540), (960, 540), (960, 540), (960, 540), (960, 540), (960, 540), (960, 540), (960, 540), (960, 540), (960, 540), (960, 540), (960, 540), (960, 540), (960, 540), (960, 540), (960, 540), (960, 540), (960, 540), (960, 540), (960, 540), (960, 540), (960, 540), (960, 540), (960, 540), (960, 540), (960, 540), (960, 540), (960, 540), (960, 540), (960, 540), (960, 540), (960, 540), (960, 540), (960, 540), (960, 540), (960, 540), (960, 540), (960, 540), (960, 540), (960, 540), (960, 540), (960, 540), (960, 540), (960, 540), (960, 540), (960, 540), (960, 540), (960, 540), (960, 540), (960, 540), (960, 540), (960, 540), (960, 540), (957, 462), (944, 405), (925, 341), (915, 284), (896, 140)]",260.9097230791777,"[1, 9, 3, 8, 5, 7, 6, 2, 4]","(0, 0.25)",THI002A,THI,A,English,Mon Aug 06 16:09:14 2018,Mouse
1,2,1,0,2,6,6,1,329,289,40,153,0,500,200,8000,"[(960, 540), (960, 540), (960, 540), (960, 540), (960, 540), (960, 540), (960, 540), (960, 540), (960, 540), (960, 540), (960, 540), (960, 540), (960, 540), (960, 540), (960, 540), (960, 540), (960, 540), (960, 540), (960, 540), (960, 540), (960, 540), (960, 540), (960, 540), (960, 540), (960, 540), (960, 540), (960, 540), (960, 540), (958, 517), (953, 466), (926, 294), (912, 209), (902, 133)]",261.88960723554237,"[1, 9, 3, 8, 5, 7, 6, 2, 4]","(0, 0.25)",THI002A,THI,A,English,Mon Aug 06 16:09:14 2018,Mouse
1,2,1,0,3,8,8,1,929,849,80,152,0,500,200,8000,"[(960, 540), (960, 540), (960, 540), (960, 540), (960, 540), (960, 540), (960, 540), (960, 540), (960, 540), (960, 540), (960, 540), (960, 540), (960, 540), (960, 540), (960, 540), (960, 540), (960, 540), (960, 540), (960, 540), (960, 540), (960, 540), (960, 540), (960, 540), (960, 540), (960, 540), (960, 540), (960, 540), (960, 540), (960, 540), (960, 540), (960, 540), (960, 540), (960, 540), (960, 540), (960, 540), (960, 540), (960, 540), (960, 540), (960, 540), (960, 540), (960, 540), (960, 540), (960, 540), (960, 540), (960, 540), (960, 540), (960, 540), (960, 540), (960, 540), (960, 540), (960, 540), (960, 540), (960, 540), (960, 540), (960, 540), (960, 540), (960, 540), (960, 540), (960, 540), (960, 540), (960, 540), (960, 540), (960, 540), (960, 540), (960, 540), (960, 540), (960, 540), (960, 540), (960, 540), (960, 540), (960, 540), (960, 540), (960, 540), (960, 540), (960, 540), (960, 540), (960, 540), (960, 540), (960, 540), (960, 540), (960, 540), (960, 540), (960, 540), (960, 540), (960, 541), (960, 542), (958, 544), (954, 550), (930, 590), (902, 635), (861, 693), (826, 758), (736, 883)]",123.146995832256,"[1, 9, 3, 8, 5, 7, 6, 2, 4]","(0, 0.25)",THI002A,THI,A,English,Mon Aug 06 16:09:14 2018,Mouse
1,2,1,0,4,8,8,1,311,271,40,151,0,500,200,8000,"[(960, 540), (960, 540), (960, 540), (960, 540), (960, 540), (960, 540), (960, 540), (960, 540), (960, 540), (960, 540), (960, 540), (960, 540), (960, 540), (960, 540), (960, 540), (960, 540), (960, 540), (960, 540), (960, 540), (960, 540), (960, 540), (960, 540), (960, 540), (960, 540), (960, 540), (960, 540), (960, 540), (943, 567), (912, 606), (867, 657), (802, 715), (653, 822)]",137.43045031157524,"[1, 9, 3, 8, 5, 7, 6, 2, 4]","(0, 0.25)",THI002A,THI,A,English,Mon Aug 06 16:09:14 2018,Mouse
1,2,1,0,5,6,6,1,1711,1591,120,150,0,500,200,8000,"[(960, 540), (960, 540), (960, 540), (960, 540), (960, 540), (960, 540), (960, 540), (960, 540), (960, 540), (960, 540), (960, 540), (960, 540), (960, 540), (960, 540), (960, 540), (960, 540), (960, 540), (960, 540), (960, 540), (960, 540), (960, 540), (960, 540), (960, 540), (960, 540), (960, 540), (960, 540), (960, 540), (960, 540), (960, 540), (960, 540), (960, 540), (960, 540), (960, 540), (960, 540), (960, 540), (960, 540), (960, 540), (960, 540), (960, 540), (960, 540), (960, 540), (960, 540), (960, 540), (960, 540), (960, 540), (960, 540), (960, 540), (960, 540), (960, 540), (960, 540), (960, 540), (960, 540), (960, 540), (960, 540), (960, 540), (960, 540), (960, 540), (960, 540), (960, 540), (960, 540), (960, 540), (960, 540), (960, 540), (960, 540), (960, 540), (960, 540), (960, 540), (960, 540), (960, 540), (960, 540), (960, 540), (960, 540), (960, 540), (960, 540), (960, 540), (960, 540), (960, 540), (960, 540), (960, 540), (960, 540), (960, 540), (960, 540), (960, 540), (960, 540), (960, 540), (960, 540), (960, 540), (960, 540), (960, 540), (960, 540), (960, 540), (960, 540), (960, 540), (960, 540), (960, 540), (960, 540), (960, 540), (960, 540), (960, 540), (960, 540), (960, 540), (960, 540), (960, 540), (960, 540), (960, 540), (960, 540), (960, 540), (960, 540), (960, 540), (960, 540), (960, 540), (960, 540), (960, 540), (960, 540), (960, 540), (960, 540), (960, 540), (960, 540), (960, 540), (960, 540), (960, 540), (960, 540), (960, 540), (960, 540), (960, 540), (960, 540), (960, 540), (960, 540), (960, 540), (960, 540), (960, 540), (960, 540), (960, 540), (960, 540), (960, 540), (960, 540), (960, 540), (960, 540), (960, 540), (960, 540), (960, 540), (960, 540), (960, 540), (960, 540), (960, 540), (960, 540), (960, 540), (960, 540), (960, 540), (960, 540), (960, 540), (960, 540), (960, 540), (960, 540), (960, 540), (960, 540), (960, 540), (960, 540), (960, 540), (948, 536), (935, 529), (915, 514), (886, 488), (846, 434), (828, 402), (812, 372), (805, 352), (802, 311), (801, 274), (801, 247), (805, 206), (805, 115)]",249.96278983080703,"[1, 9, 3, 8, 5, 7, 6, 2, 4]","(0, 0.25)",THI002A,THI,A,English,Mon Aug 06 16:09:14 2018,Mouse
1,2,1,0,6,7,7,1,510,470,40,149,0,500,200,8000,"[(960, 540), (960, 540), (960, 540), (960, 540), (960, 540), (960, 540), (960, 540), (960, 540), (960, 540), (960, 540), (960, 540), (960, 540), (960, 540), (960, 540), (960, 540), (960, 540), (960, 540), (960, 540), (960, 540), (960, 540), (960, 540), (960, 540), (960, 540), (960, 540), (960, 540), (960, 540), (960, 540), (960, 540), (960, 540), (960, 540), (960, 540), (960, 540), (960, 540), (960, 540), (960, 540), (960, 540), (960, 540), (960, 540), (960, 540), (960, 540), (960, 540), (960, 540), (960, 540), (960, 540), (960, 540), (960, 540), (916, 506), (871, 467), (817, 420), (758, 369), (633, 256)]",220.97436482142535,"[1, 9, 3, 8, 5, 7, 6, 2, 4]","(0, 0.25)",THI002A,THI,A,English,Mon Aug 06 16:09:14 2018,Mouse
1,2,1,0,7,6,6,1,300,150,150,148,0,500,200,8000,"[(960, 540), (960, 540), (960, 540), (960, 540), (960, 540), (960, 540), (960, 540), (960, 540), (960, 540), (960, 540), (960, 540), (960, 540), (960, 540), (960, 540), (959, 539), (959, 539), (959, 539), (959, 539), (959, 538), (958, 537), (957, 534), (956, 529), (949, 496), (944, 464), (938, 426), (933, 381), (919, 278), (905, 228), (893, 181), (881, 132)]",259.0415709658531,"[1, 9, 3, 8, 5, 7, 6, 2, 4]","(0, 0.25)",THI002A,THI,A,English,Mon Aug 06 16:09:14 2018,Mouse
1,2,1,0,8,4,4,1,2009,669,1340,147,0,500,200,8000,"[(960, 540), (960, 540), (960, 540), (960, 540), (960, 540), (960, 540), (960, 540), (960, 540), (960, 540), (960, 540), (960, 540), (960, 540), (960, 540), (960, 540), (960, 540), (960, 540), (960, 540), (960, 540), (960, 540), (960, 540), (960, 540), (960, 540), (960, 540), (960, 540), (960, 540), (960, 540), (960, 540), (960, 540), (960, 540), (960, 540), (960, 540), (960, 540), (960, 540), (960, 540), (960, 540), (960, 540), (960, 540), (960, 540), (960, 540), (960, 540), (960, 540), (960, 540), (960, 540), (960, 540), (960, 540), (960, 540), (960, 540), (960, 540), (960, 540), (960, 540), (960, 540), (960, 540), (960, 540), (960, 540), (960, 540), (960, 540), (960, 540), (960, 540), (960, 540), (960, 540), (960, 540), (960, 540), (960, 540), (960, 540), (960, 540), (960, 540), (958, 546), (935, 570), (913, 594), (879, 622), (847, 650), (785, 696), (774, 704), (764, 711), (760, 713), (759, 714), (759, 714), (759, 714), (759, 714), (759, 714), (759, 714), (758, 714), (761, 710), (764, 704), (766, 701), (768, 699), (769, 697), (772, 693), (775, 690), (777, 686), (777, 684), (781, 678), (785, 673), (787, 670), (790, 668), (793, 664), (796, 661), (796, 660), (797, 659), (797, 659), (798, 658), (799, 657), (799, 657), (800, 657), (800, 656), (800, 656), (801, 656), (802, 654), (803, 654), (803, 652), (804, 651), (807, 645), (811, 639), (818, 630), (826, 617), (843, 596), (848, 588), (853, 579), (856, 575), (860, 569), (861, 565), (862, 563), (862, 562), (863, 560), (863, 560), (863, 560), (863, 560), (863, 560), (863, 560), (863, 560), (863, 560), (863, 560), (863, 560), (863, 560), (863, 560), (863, 560), (863, 560), (863, 560), (863, 560), (863, 560), (864, 559), (864, 558), (866, 556), (873, 552), (878, 549), (888, 544), (898, 540), (914, 532), (920, 529), (922, 529), (922, 529), (922, 529), (922, 529), (922, 529), (922, 529), (922, 529), (922, 529), (922, 529), (922, 529), (922, 529), (922, 529), (922, 529), (922, 529), (919, 534), (914, 542), (908, 550), (900, 562), (872, 596), (845, 633), (817, 674), (789, 708), (736, 767), (716, 784), (703, 796), (695, 802), (688, 808), (686, 809), (685, 810), (685, 810), (685, 810), (685, 810), (685, 810), (685, 810), (685, 810), (685, 810), (685, 810), (685, 809), (692, 796), (700, 784), (709, 773), (717, 762), (746, 735), (772, 714), (803, 688), (855, 655), (973, 586), (1029, 548), (1089, 516), (1165, 475), (1289, 395), (1340, 353)]",333.79795840815694,"[1, 9, 3, 8, 5, 7, 6, 2, 4]","(0, 0.25)",THI002A,THI,A,English,Mon Aug 06 16:09:14 2018,Mouse
1,2,1,0,9,3,3,1,1220,1140,80,146,0,500,200,8000,"[(960, 540), (960, 540), (960, 540), (960, 540), (960, 540), (960, 540), (960, 540), (960, 540), (960, 540), (960, 540), (960, 540), (960, 540), (960, 540), (960, 540), (960, 540), (960, 540), (960, 540), (960, 540), (960, 540), (960, 540), (960, 540), (960, 540), (960, 540), (960, 540), (960, 540), (960, 540), (960, 540), (960, 540), (960, 540), (960, 540), (960, 540), (960, 540), (960, 540), (960, 540), (960, 540), (960, 540), (960, 540), (960, 540), (960, 540), (960, 540), (960, 540), (960, 540), (960, 540), (960, 540), (960, 540), (960, 540), (960, 540), (960, 540), (960, 540), (960, 540), (960, 540), (960, 540), (960, 540), (960, 540), (960, 540), (960, 540), (960, 540), (960, 540), (960, 540), (960, 540), (960, 540), (960, 540), (960, 540), (960, 540), (960, 540), (960, 540), (960, 540), (960, 540), (960, 540), (960, 540), (960, 540), (960, 540), (960, 540), (960, 540), (960, 540), (960, 540), (960, 540), (960, 540), (960, 540), (960, 540), (960, 540), (960, 540), (960, 540), (960, 540), (960, 540), (960, 540), (960, 540), (960, 540), (960, 540), (960, 540), (960, 540), (960, 540), (960, 540), (960, 540), (960, 540), (960, 540), (960, 540), (960, 540), (960, 540), (960, 540), (960, 540), (960, 540), (960, 540), (960, 540), (960, 540), (960, 540), (960, 540), (960, 540), (960, 540), (960, 540), (960, 540), (960, 540), (960, 540), (961, 548), (962, 555), (962, 565), (962, 582), (962, 663), (955, 725), (944, 798), (933, 866), (918, 1026)]",94.9392155421262,"[1, 9, 3, 8, 5, 7, 6, 2, 4]","(0, 0.25)",THI002A,THI,A,English,Mon Aug 06 16:09:14 2018,Mouse
1,2,1,0,10,1,1,1,451,411,40,145,0,500,200,8000,"[(960, 540), (960, 540), (960, 540), (960, 540), (960, 540), (960, 540), (960, 540), (960, 540), (960, 540), (960, 540), (960, 540), (960, 540), (960, 540), (960, 540), (960, 540), (960, 540), (960, 540), (960, 540), (960, 540), (960, 540), (960, 540), (960, 540), (960, 540), (960, 540), (960, 540), (960, 540), (960, 540), (960, 540), (960, 540), (960, 540), (960, 540), (960, 540), (960, 540), (960, 540), (960, 540), (960, 540), (960, 540), (960, 540), (960, 540), (960, 540), (965, 540), (986, 540), (1130, 559), (1248, 578), (1373, 592)]",7.176234254966899,"[1, 9, 3, 8, 5, 7, 6, 2, 4]","(0, 0.25)",THI002A,THI,A,English,Mon Aug 06 16:09:14 2018,Mouse
1,2,1,0,11,1,1,1,340,290,50,144,0,500,200,8000,"[(960, 540), (960, 540), (960, 540), (960, 540), (960, 540), (960, 540), (960, 540), (960, 540), (960, 540), (960, 540), (960, 540), (960, 540), (960, 540), (960, 540), (960, 540), (960, 540), (960, 540), (960, 540), (960, 540), (960, 540), (960, 540), (960, 540), (960, 540), (960, 540), (960, 540), (960, 540), (960, 540), (960, 540), (980, 548), (1019, 559), (1087, 572), (1163, 583), (1346, 610), (1441, 621)]",9.558877188266344,"[1, 9, 3, 8, 5, 7, 6, 2, 4]","(0, 0.25)",THI002A,THI,A,English,Mon Aug 06 16:09:14 2018,Mouse
1,2,1,0,12,1,1,1,279,19,260,143,0,500,200,8000,"[(961, 540), (964, 540), (966, 540), (967, 540), (969, 540), (971, 540), (973, 540), (973, 540), (973, 540), (973, 540), (973, 540), (973, 540), (973, 540), (973, 540), (973, 540), (973, 540), (973, 540), (973, 540), (973, 540), (973, 540), (973, 540), (974, 541), (976, 543), (983, 548), (1000, 557), (1129, 606), (1223, 631), (1343, 657)]",16.98702257693283,"[1, 9, 3, 8, 5, 7, 6, 2, 4]","(0, 0.25)",THI002A,THI,A,English,Mon Aug 06 16:09:14 2018,Mouse
1,2,1,0,13,9,9,1,950,890,60,142,0,500,200,8000,"[(960, 540), (960, 540), (960, 540), (960, 540), (960, 540), (960, 540), (960, 540), (960, 540), (960, 540), (960, 540), (960, 540), (960, 540), (960, 540), (960, 540), (960, 540), (960, 540), (960, 540), (960, 540), (960, 540), (960, 540), (960, 540), (960, 540), (960, 540), (960, 540), (960, 540), (960, 540), (960, 540), (960, 540), (960, 540), (960, 540), (960, 540), (960, 540), (960, 540), (960, 540), (960, 540), (960, 540), (960, 540), (960, 540), (960, 540), (960, 540), (960, 540), (960, 540), (960, 540), (960, 540), (960, 540), (960, 540), (960, 540), (960, 540), (960, 540), (960, 540), (960, 540), (960, 540), (960, 540), (960, 540), (960, 540), (960, 540), (960, 540), (960, 540), (960, 540), (960, 540), (960, 540), (960, 540), (960, 540), (960, 540), (960, 540), (960, 540), (960, 540), (960, 540), (960, 540), (960, 540), (960, 540), (960, 540), (960, 540), (960, 540), (960, 540), (960, 540), (960, 540), (960, 540), (960, 540), (960, 540), (960, 540), (960, 540), (960, 540), (960, 540), (960, 540), (960, 540), (960, 540), (960, 540), (961, 541), (967, 556), (981, 588), (1001, 641), (1053, 775), (1084, 848), (1121, 914)]",66.70902681969423,"[1, 9, 3, 8, 5, 7, 6, 2, 4]","(0, 0.25)",THI002A,THI,A,English,Mon Aug 06 16:09:14 2018,Mouse
1,2,1,0,14,7,7,1,1380,1310,70,141,0,500,200,8000,"[(960, 540), (960, 540), (960, 540), (960, 540), (960, 540), (960, 540), (960, 540), (960, 540), (960, 540), (960, 540), (960, 540), (960, 540), (960, 540), (960, 540), (960, 540), (960, 540), (960, 540), (960, 540), (960, 540), (960, 540), (960, 540), (960, 540), (960, 540), (960, 540), (960, 540), (960, 540), (960, 540), (960, 540), (960, 540), (960, 540), (960, 540), (960, 540), (960, 540), (960, 540), (960, 540), (960, 540), (960, 540), (960, 540), (960, 540), (960, 540), (960, 540), (960, 540), (960, 540), (960, 540), (960, 540), (960, 540), (960, 540), (960, 540), (960, 540), (960, 540), (960, 540), (960, 540), (960, 540), (960, 540), (960, 540), (960, 540), (960, 540), (960, 540), (960, 540), (960, 540), (960, 540), (960, 540), (960, 540), (960, 540), (960, 540), (960, 540), (960, 540), (960, 540), (960, 540), (960, 540), (960, 540), (960, 540), (960, 540), (960, 540), (960, 540), (960, 540), (960, 540), (960, 540), (960, 540), (960, 540), (960, 540), (960, 540), (960, 540), (960, 540), (960, 540), (960, 540), (960, 540), (960, 540), (960, 540), (960, 540), (960, 540), (960, 540), (960, 540), (960, 540), (960, 540), (960, 540), (960, 540), (960, 540), (960, 540), (960, 540), (960, 540), (960, 540), (960, 540), (960, 540), (960, 540), (960, 540), (960, 540), (960, 540), (960, 540), (960, 540), (960, 540), (960, 540), (960, 540), (960, 540), (960, 540), (960, 540), (960, 540), (960, 540), (960, 540), (960, 540), (960, 540), (960, 540), (960, 540), (960, 540), (960, 540), (960, 540), (960, 540), (960, 540), (960, 540), (960, 540), (958, 538), (941, 524), (879, 478), (840, 455), (794, 431), (742, 404), (615, 344), (563, 313)]",209.76042124218446,"[1, 9, 3, 8, 5, 7, 6, 2, 4]","(0, 0.25)",THI002A,THI,A,English,Mon Aug 06 16:09:14 2018,Mouse
1,2,1,0,15,7,7,1,311,221,90,140,0,500,200,8000,"[(960, 540), (960, 540), (960, 540), (960, 540), (960, 540), (960, 540), (960, 540), (960, 540), (960, 540), (960, 540), (960, 540), (960, 540), (960, 540), (960, 540), (960, 540), (960, 540), (960, 540), (960, 540), (960, 540), (960, 540), (960, 540), (960, 540), (961, 537), (957, 533), (945, 522), (927, 507), (878, 466), (849, 439), (807, 407), (754, 366), (649, 302), (598, 277)]",215.99913031500546,"[1, 9, 3, 8, 5, 7, 6, 2, 4]","(0, 0.25)",THI002A,THI,A,English,Mon Aug 06 16:09:14 2018,Mouse
1,2,1,0,16,1,1,1,340,240,100,139,0,500,200,8000,"[(960, 540), (960, 540), (960, 540), (960, 540), (960, 540), (960, 540), (960, 540), (960, 540), (960, 540), (960, 540), (960, 540), (960, 540), (960, 540), (960, 540), (960, 540), (960, 540), (960, 540), (960, 540), (960, 540), (960, 540), (960, 540), (960, 540), (960, 540), (962, 541), (969, 546), (986, 552), (1006, 559), (1034, 567), (1067, 576), (1160, 596), (1215, 606), (1264, 615), (1316, 627), (1400, 654)]",14.525416465768425,"[1, 9, 3, 8, 5, 7, 6, 2, 4]","(0, 0.25)",THI002A,THI,A,English,Mon Aug 06 16:09:14 2018,Mouse
1,2,1,0,17,2,3,0,-2022,1672,350,138,0,500,200,8000,"[(960, 540), (960, 540), (960, 540), (960, 540), (960, 540), (960, 540), (960, 540), (960, 540), (960, 540), (960, 540), (960, 540), (960, 540), (960, 540), (960, 540), (960, 540), (960, 540), (960, 540), (960, 540), (960, 540), (960, 540), (960, 540), (960, 540), (960, 540), (960, 540), (960, 540), (960, 540), (960, 540), (960, 540), (960, 540), (960, 540), (960, 540), (960, 540), (960, 540), (960, 540), (960, 540), (960, 540), (960, 540), (960, 540), (960, 540), (960, 540), (960, 540), (960, 540), (960, 540), (960, 540), (960, 540), (960, 540), (960, 540), (960, 540), (960, 540), (960, 540), (960, 540), (960, 540), (960, 540), (960, 540), (960, 540), (960, 540), (960, 540), (960, 540), (960, 540), (960, 540), (960, 540), (960, 540), (960, 540), (960, 540), (960, 540), (960, 540), (960, 540), (960, 540), (960, 540), (960, 540), (960, 540), (960, 540), (960, 540), (960, 540), (960, 540), (960, 540), (960, 540), (960, 540), (960, 540), (960, 540), (960, 540), (960, 540), (960, 540), (960, 540), (960, 540), (960, 540), (960, 540), (960, 540), (960, 540), (960, 540), (960, 540), (960, 540), (960, 540), (960, 540), (960, 540), (960, 540), (960, 540), (960, 540), (960, 540), (960, 540), (960, 540), (960, 540), (960, 540), (960, 540), (960, 540), (960, 540), (960, 540), (960, 540), (960, 540), (960, 540), (960, 540), (960, 540), (960, 540), (960, 540), (960, 540), (960, 540), (960, 540), (960, 540), (960, 540), (960, 540), (960, 540), (960, 540), (960, 540), (960, 540), (960, 540), (960, 540), (960, 540), (960, 540), (960, 540), (960, 540), (960, 540), (960, 540), (960, 540), (960, 540), (960, 540), (960, 540), (960, 540), (960, 540), (960, 540), (960, 540), (960, 540), (960, 540), (960, 540), (960, 540), (960, 540), (960, 540), (960, 540), (960, 540), (960, 540), (960, 540), (960, 540), (960, 540), (960, 540), (960, 540), (960, 540), (960, 540), (960, 540), (960, 540), (960, 540), (960, 540), (960, 540), (960, 540), (960, 540), (960, 540), (960, 540), (960, 540), (960, 540), (959, 547), (960, 551), (963, 557), (965, 561), (966, 566), (967, 568), (968, 568), (968, 569), (968, 570), (968, 570), (968, 570), (968, 570), (968, 570), (968, 570), (968, 570), (968, 570), (968, 570), (968, 570), (968, 570), (968, 570), (968, 570), (968, 570), (968, 570), (968, 571), (969, 576), (969, 580), (969, 589), (969, 600), (969, 630), (969, 653), (969, 678), (969, 703), (946, 781), (934, 831), (916, 886), (901, 947)]",98.24831906297723,"[1, 9, 3, 8, 5, 7, 6, 2, 4]","(0, 0.25)",THI002A,THI,A,English,Mon Aug 06 16:09:14 2018,Mouse
1,2,1,0,18,8,8,1,771,721,50,139,0,500,200,8000,"[(960, 540), (960, 540), (960, 540), (960, 540), (960, 540), (960, 540), (960, 540), (960, 540), (960, 540), (960, 540), (960, 540), (960, 540), (960, 540), (960, 540), (960, 540), (960, 540), (960, 540), (960, 540), (960, 540), (960, 540), (960, 540), (960, 540), (960, 540), (960, 540), (960, 540), (960, 540), (960, 540), (960, 540), (960, 540), (960, 540), (960, 540), (960, 540), (960, 540), (960, 540), (960, 540), (960, 540), (960, 540), (960, 540), (960, 540), (960, 540), (960, 540), (960, 540), (960, 540), (960, 540), (960, 540), (960, 540), (960, 540), (960, 540), (960, 540), (960, 540), (960, 540), (960, 540), (960, 540), (960, 540), (960, 540), (960, 540), (960, 540), (960, 540), (960, 540), (960, 540), (960, 540), (960, 540), (960, 540), (960, 540), (960, 540), (960, 540), (960, 540), (960, 540), (960, 540), (960, 540), (960, 540), (960, 540), (944, 568), (909, 615), (866, 668), (818, 730), (712, 851), (657, 906)]",129.62029840087462,"[1, 9, 3, 8, 5, 7, 6, 2, 4]","(0, 0.25)",THI002A,THI,A,English,Mon Aug 06 16:09:14 2018,Mouse
1,2,1,0,19,7,7,1,1289,1149,140,139,0,500,200,8000,"[(960, 540), (960, 540), (960, 540), (960, 540), (960, 540), (960, 540), (960, 540), (960, 540), (960, 540), (960, 540), (960, 540), (960, 540), (960, 540), (960, 540), (960, 540), (960, 540), (960, 540), (960, 540), (960, 540), (960, 540), (960, 540), (960, 540), (960, 540), (960, 540), (960, 540), (960, 540), (960, 540), (960, 540), (960, 540), (960, 540), (960, 540), (960, 540), (960, 540), (960, 540), (960, 540), (960, 540), (960, 540), (960, 540), (960, 540), (960, 540), (960, 540), (960, 540), (960, 540), (960, 540), (960, 540), (960, 540), (960, 540), (960, 540), (960, 540), (960, 540), (960, 540), (960, 540), (960, 540), (960, 540), (960, 540), (960, 540), (960, 540), (960, 540), (960, 540), (960, 540), (960, 540), (960, 540), (960, 540), (960, 540), (960, 540), (960, 540), (960, 540), (960, 540), (960, 540), (960, 540), (960, 540), (960, 540), (960, 540), (960, 540), (960, 540), (960, 540), (960, 540), (960, 540), (960, 540), (960, 540), (960, 540), (960, 540), (960, 540), (960, 540), (960, 540), (960, 540), (960, 540), (960, 540), (960, 540), (960, 540), (960, 540), (960, 540), (960, 540), (960, 540), (960, 540), (960, 540), (960, 540), (960, 540), (960, 540), (960, 540), (960, 540), (960, 540), (960, 540), (960, 540), (960, 540), (960, 540), (960, 540), (960, 540), (960, 540), (960, 540), (960, 540), (960, 540), (960, 540), (960, 540), (959, 540), (958, 540), (955, 540), (950, 539), (944, 538), (938, 536), (930, 530), (905, 506), (886, 478), (859, 442), (823, 402), (743, 334), (702, 306), (660, 281), (625, 260)]",219.88958243896877,"[1, 9, 3, 8, 5, 7, 6, 2, 4]","(0, 0.25)",THI002A,THI,A,English,Mon Aug 06 16:09:14 2018,Mouse
1,2,1,0,20,2,7,0,-349,279,70,138,0,500,200,8000,"[(960, 540), (960, 540), (960, 540), (960, 540), (960, 540), (960, 540), (960, 540), (960, 540), (960, 540), (960, 540), (960, 540), (960, 540), (960, 540), (960, 540), (960, 540), (960, 540), (960, 540), (960, 540), (960, 540), (960, 540), (960, 540), (960, 540), (960, 540), (960, 540), (960, 540), (960, 540), (960, 540), (959, 540), (948, 536), (927, 523), (889, 502), (763, 437), (693, 406), (617, 373), (542, 342)]",205.34617594194668,"[1, 9, 3, 8, 5, 7, 6, 2, 4]","(0, 0.25)",THI002A,THI,A,English,Mon Aug 06 16:09:14 2018,Mouse
1,2,1,0,21,4,8,0,-920,50,870,139,0,500,200,8000,"[(960, 540), (960, 540), (960, 540), (960, 540), (961, 541), (961, 541), (961, 541), (961, 541), (961, 541), (961, 541), (961, 541), (961, 541), (961, 541), (961, 541), (961, 541), (961, 541), (961, 541), (961, 541), (961, 541), (961, 541), (961, 541), (961, 541), (961, 541), (961, 541), (961, 541), (961, 541), (961, 541), (961, 541), (961, 541), (961, 541), (961, 541), (961, 541), (961, 541), (961, 541), (961, 541), (961, 541), (961, 541), (961, 541), (961, 541), (961, 541), (961, 541), (961, 541), (961, 541), (961, 541), (961, 541), (961, 541), (961, 541), (961, 541), (961, 541), (961, 541), (961, 541), (961, 541), (961, 541), (961, 541), (961, 541), (961, 541), (961, 541), (961, 541), (961, 541), (961, 541), (961, 541), (961, 541), (961, 541), (961, 541), (961, 541), (961, 541), (961, 541), (961, 541), (961, 541), (961, 541), (961, 541), (961, 541), (961, 541), (961, 541), (961, 541), (961, 541), (961, 541), (961, 541), (961, 541), (961, 541), (961, 541), (961, 541), (957, 548), (933, 578), (914, 606), (884, 648), (851, 697), (798, 768), (779, 796), (761, 816), (743, 833), (693, 867)]",129.23211110208587,"[1, 9, 3, 8, 5, 7, 6, 2, 4]","(0, 0.25)",THI002A,THI,A,English,Mon Aug 06 16:09:14 2018,Mouse
1,2,1,0,22,1,1,1,411,351,60,140,0,500,200,8000,"[(960, 540), (960, 540), (960, 540), (960, 540), (960, 540), (960, 540), (960, 540), (960, 540), (960, 540), (960, 540), (960, 540), (960, 540), (960, 540), (960, 540), (960, 540), (960, 540), (960, 540), (960, 540), (960, 540), (960, 540), (960, 540), (960, 540), (960, 540), (960, 540), (960, 540), (960, 540), (960, 540), (960, 540), (960, 540), (960, 540), (960, 540), (960, 540), (960, 540), (960, 540), (960, 540), (967, 539), (997, 548), (1050, 564), (1113, 577), (1256, 618), (1328, 637), (1405, 655)]",14.489762593884448,"[1, 9, 3, 8, 5, 7, 6, 2, 4]","(0, 0.25)",THI002A,THI,A,English,Mon Aug 06 16:09:14 2018,Mouse
1,2,1,0,23,9,9,1,609,549,60,140,0,500,200,8000,"[(960, 540), (960, 540), (960, 540), (960, 540), (960, 540), (960, 540), (960, 540), (960, 540), (960, 540), (960, 540), (960, 540), (960, 540), (960, 540), (960, 540), (960, 540), (960, 540), (960, 540), (960, 540), (960, 540), (960, 540), (960, 540), (960, 540), (960, 540), (960, 540), (960, 540), (960, 540), (960, 540), (960, 540), (960, 540), (960, 540), (960, 540), (960, 540), (960, 540), (960, 540), (960, 540), (960, 540), (960, 540), (960, 540), (960, 540), (960, 540), (960, 540), (960, 540), (960, 540), (960, 540), (960, 540), (960, 540), (960, 540), (960, 540), (960, 540), (960, 540), (960, 540), (960, 540), (960, 540), (960, 540), (964, 540), (976, 571), (1020, 683), (1062, 752), (1097, 818), (1139, 886), (1220, 995)]",60.25511870305778,"[1, 9, 3, 8, 5, 7, 6, 2, 4]","(0, 0.25)",THI002A,THI,A,English,Mon Aug 06 16:09:14 2018,Mouse
1,2,1,0,24,7,7,1,1037,987,50,139,0,500,200,8000,"[(960, 540), (960, 540), (960, 540), (960, 540), (960, 540), (960, 540), (960, 540), (960, 540), (960, 540), (960, 540), (960, 540), (960, 540), (960, 540), (960, 540), (960, 540), (960, 540), (960, 540), (960, 540), (960, 540), (960, 540), (960, 540), (960, 540), (960, 540), (960, 540), (960, 540), (960, 540), (960, 540), (960, 540), (960, 540), (960, 540), (960, 540), (960, 540), (960, 540), (960, 540), (960, 540), (960, 540), (960, 540), (960, 540), (960, 540), (960, 540), (960, 540), (960, 540), (960, 540), (960, 540), (960, 540), (960, 540), (960, 540), (960, 540), (960, 540), (960, 540), (960, 540), (960, 540), (960, 540), (960, 540), (960, 540), (960, 540), (960, 540), (960, 540), (960, 540), (960, 540), (960, 540), (960, 540), (960, 540), (960, 540), (960, 540), (960, 540), (960, 540), (960, 540), (960, 540), (960, 540), (960, 540), (960, 540), (960, 540), (960, 540), (960, 540), (960, 540), (960, 540), (960, 540), (960, 540), (960, 540), (960, 540), (960, 540), (960, 540), (960, 540), (960, 540), (960, 540), (960, 540), (960, 540), (960, 540), (960, 540), (960, 540), (960, 540), (960, 540), (960, 540), (960, 540), (960, 540), (960, 540), (960, 540), (931, 529), (891, 512), (843, 489), (781, 464), (634, 397), (557, 347)]",205.59014201919837,"[1, 9, 3, 8, 5, 7, 6, 2, 4]","(0, 0.25)",THI002A,THI,A,English,Mon Aug 06 16:09:14 2018,Mouse
1,2,1,0,25,7,7,1,499,449,50,138,0,500,200,8000,"[(960, 540), (960, 540), (960, 540), (960, 540), (960, 540), (960, 540), (960, 540), (960, 540), (960, 540), (960, 540), (960, 540), (960, 540), (960, 540), (960, 540), (960, 540), (960, 540), (960, 540), (960, 540), (960, 540), (960, 540), (960, 540), (960, 540), (960, 540), (960, 540), (960, 540), (960, 540), (960, 540), (960, 540), (960, 540), (960, 540), (960, 540), (960, 540), (960, 540), (960, 540), (960, 540), (960, 540), (960, 540), (960, 540), (960, 540), (960, 540), (960, 540), (960, 540), (960, 540), (960, 540), (954, 540), (870, 483), (799, 441), (726, 405), (658, 375), (517, 311)]",207.33579992246996,"[1, 9, 3, 8, 5, 7, 6, 2, 4]","(0, 0.25)",THI002A,THI,A,English,Mon Aug 06 16:09:14 2018,Mouse
1,2,1,0,26,5,5,1,559,519,40,137,0,500,200,8000,"[(960, 540), (960, 540), (960, 540), (960, 540), (960, 540), (960, 540), (960, 540), (960, 540), (960, 540), (960, 540), (960, 540), (960, 540), (960, 540), (960, 540), (960, 540), (960, 540), (960, 540), (960, 540), (960, 540), (960, 540), (960, 540), (960, 540), (960, 540), (960, 540), (960, 540), (960, 540), (960, 540), (960, 540), (960, 540), (960, 540), (960, 540), (960, 540), (960, 540), (960, 540), (960, 540), (960, 540), (960, 540), (960, 540), (960, 540), (960, 540), (960, 540), (960, 540), (960, 540), (960, 540), (960, 540), (960, 540), (960, 540), (960, 540), (960, 540), (960, 540), (960, 540), (938, 541), (892, 545), (832, 555), (661, 555), (551, 555)]",177.8996291511823,"[1, 9, 3, 8, 5, 7, 6, 2, 4]","(0, 0.25)",THI002A,THI,A,English,Mon Aug 06 16:09:14 2018,Mouse
1,2,1,0,27,3,9,0,-1150,1060,90,136,0,500,200,8000,"[(960, 540), (960, 540), (960, 540), (960, 540), (960, 540), (960, 540), (960, 540), (960, 540), (960, 540), (960, 540), (960, 540), (960, 540), (960, 540), (960, 540), (960, 540), (960, 540), (960, 540), (960, 540), (960, 540), (960, 540), (960, 540), (960, 540), (960, 540), (960, 540), (960, 540), (960, 540), (960, 540), (960, 540), (960, 540), (960, 540), (960, 540), (960, 540), (960, 540), (960, 540), (960, 540), (960, 540), (960, 540), (960, 540), (960, 540), (960, 540), (960, 540), (960, 540), (960, 540), (960, 540), (960, 540), (960, 540), (960, 540), (960, 540), (960, 540), (960, 540), (960, 540), (960, 540), (960, 540), (960, 540), (960, 540), (960, 540), (960, 540), (960, 540), (960, 540), (960, 540), (960, 540), (960, 540), (960, 540), (960, 540), (960, 540), (960, 540), (960, 540), (960, 540), (960, 540), (960, 540), (960, 540), (960, 540), (960, 540), (960, 540), (960, 540), (960, 540), (960, 540), (960, 540), (960, 540), (960, 540), (960, 540), (960, 540), (960, 540), (960, 540), (960, 540), (960, 540), (960, 540), (960, 540), (960, 540), (960, 540), (960, 540), (960, 540), (960, 540), (960, 540), (960, 540), (960, 540), (960, 540), (960, 540), (960, 540), (960, 540), (960, 540), (960, 540), (960, 540), (960, 540), (960, 540), (962, 549), (971, 559), (983, 575), (1005, 601), (1071, 653), (1111, 685), (1152, 715), (1192, 744), (1256, 807), (1283, 843)]",43.17008636049294,"[1, 9, 3, 8, 5, 7, 6, 2, 4]","(0, 0.25)",THI002A,THI,A,English,Mon Aug 06 16:09:14 2018,Mouse
1,2,1,0,28,6,6,1,1170,1080,90,137,0,500,200,8000,"[(960, 540), (960, 540), (960, 540), (960, 540), (960, 540), (960, 540), (960, 540), (960, 540), (960, 540), (960, 540), (960, 540), (960, 540), (960, 540), (960, 540), (960, 540), (960, 540), (960, 540), (960, 540), (960, 540), (960, 540), (960, 540), (960, 540), (960, 540), (960, 540), (960, 540), (960, 540), (960, 540), (960, 540), (960, 540), (960, 540), (960, 540), (960, 540), (960, 540), (960, 540), (960, 540), (960, 540), (960, 540), (960, 540), (960, 540), (960, 540), (960, 540), (960, 540), (960, 540), (960, 540), (960, 540), (960, 540), (960, 540), (960, 540), (960, 540), (960, 540), (960, 540), (960, 540), (960, 540), (960, 540), (960, 540), (960, 540), (960, 540), (960, 540), (960, 540), (960, 540), (960, 540), (960, 540), (960, 540), (960, 540), (960, 540), (960, 540), (960, 540), (960, 540), (960, 540), (960, 540), (960, 540), (960, 540), (960, 540), (960, 540), (960, 540), (960, 540), (960, 540), (960, 540), (960, 540), (960, 540), (960, 540), (960, 540), (960, 540), (960, 540), (960, 540), (960, 540), (960, 540), (960, 540), (960, 540), (960, 540), (960, 540), (960, 540), (960, 540), (960, 540), (960, 540), (960, 540), (960, 540), (960, 540), (960, 540), (960, 540), (960, 540), (960, 540), (960, 540), (960, 540), (960, 540), (960, 540), (960, 540), (960, 537), (959, 532), (958, 506), (958, 477), (950, 428), (943, 377), (928, 263), (918, 212), (910, 158), (907, 110)]",262.9734017269554,"[1, 9, 3, 8, 5, 7, 6, 2, 4]","(0, 0.25)",THI002A,THI,A,English,Mon Aug 06 16:09:14 2018,Mouse
1,2,1,0,29,9,3,0,-2100,1780,320,137,0,500,200,8000,"[(960, 540), (960, 540), (960, 540), (960, 540), (960, 540), (960, 540), (960, 540), (960, 540), (960, 540), (960, 540), (960, 540), (960, 540), (960, 540), (960, 540), (960, 540), (960, 540), (960, 540), (960, 540), (960, 540), (960, 540), (960, 540), (960, 540), (960, 540), (960, 540), (960, 540), (960, 540), (960, 540), (960, 540), (960, 540), (960, 540), (960, 540), (960, 540), (960, 540), (960, 540), (960, 540), (960, 540), (960, 540), (960, 540), (960, 540), (960, 540), (960, 540), (960, 540), (960, 540), (960, 540), (960, 540), (960, 540), (960, 540), (960, 540), (960, 540), (960, 540), (960, 540), (960, 540), (960, 540), (960, 540), (960, 540), (960, 540), (960, 540), (960, 540), (960, 540), (960, 540), (960, 540), (960, 540), (960, 540), (960, 540), (960, 540), (960, 540), (960, 540), (960, 540), (960, 540), (960, 540), (960, 540), (960, 540), (960, 540), (960, 540), (960, 540), (960, 540), (960, 540), (960, 540), (960, 540), (960, 540), (960, 540), (960, 540), (960, 540), (960, 540), (960, 540), (960, 540), (960, 540), (960, 540), (960, 540), (960, 540), (960, 540), (960, 540), (960, 540), (960, 540), (960, 540), (960, 540), (960, 540), (960, 540), (960, 540), (960, 540), (960, 540), (960, 540), (960, 540), (960, 540), (960, 540), (960, 540), (960, 540), (960, 540), (960, 540), (960, 540), (960, 540), (960, 540), (960, 540), (960, 540), (960, 540), (960, 540), (960, 540), (960, 540), (960, 540), (960, 540), (960, 540), (960, 540), (960, 540), (960, 540), (960, 540), (960, 540), (960, 540), (960, 540), (960, 540), (960, 540), (960, 540), (960, 540), (960, 540), (960, 540), (960, 540), (960, 540), (960, 540), (960, 540), (960, 540), (960, 540), (960, 540), (960, 540), (960, 540), (960, 540), (960, 540), (960, 540), (960, 540), (960, 540), (960, 540), (960, 540), (960, 540), (960, 540), (960, 540), (960, 540), (960, 540), (960, 540), (960, 540), (960, 540), (960, 540), (960, 540), (960, 540), (960, 540), (960, 540), (960, 540), (960, 540), (960, 540), (960, 540), (960, 540), (960, 540), (960, 540), (960, 540), (960, 540), (960, 540), (960, 540), (960, 540), (960, 540), (960, 540), (960, 552), (960, 565), (960, 595), (960, 610), (960, 622), (960, 633), (960, 652), (960, 656), (960, 659), (960, 661), (960, 661), (960, 661), (960, 661), (960, 661), (960, 661), (960, 661), (960, 661), (960, 661), (960, 661), (960, 661), (960, 661), (960, 661), (960, 661), (960, 661), (960, 661), (960, 661), (960, 661), (960, 668), (957, 685), (952, 723), (934, 829), (928, 891), (922, 950)]",95.29521293661712,"[1, 9, 3, 8, 5, 7, 6, 2, 4]","(0, 0.25)",THI002A,THI,A,English,Mon Aug 06 16:09:14 2018,Mouse
1,2,1,0,30,4,8,0,-599,539,60,138,0,500,200,8000,"[(960, 540), (960, 540), (960, 540), (960, 540), (960, 540), (960, 540), (960, 540), (960, 540), (960, 540), (960, 540), (960, 540), (960, 540), (960, 540), (960, 540), (960, 540), (960, 540), (960, 540), (960, 540), (960, 540), (960, 540), (960, 540), (960, 540), (960, 540), (960, 540), (960, 540), (960, 540), (960, 540), (960, 540), (960, 540), (960, 540), (960, 540), (960, 540), (960, 540), (960, 540), (960, 540), (960, 540), (960, 540), (960, 540), (960, 540), (960, 540), (960, 540), (960, 540), (960, 540), (960, 540), (960, 540), (960, 540), (960, 540), (960, 540), (960, 540), (960, 540), (960, 540), (960, 540), (960, 540), (954, 541), (937, 553), (908, 579), (828, 647), (773, 704), (714, 761), (643, 830)]",137.5468978351636,"[1, 9, 3, 8, 5, 7, 6, 2, 4]","(0, 0.25)",THI002A,THI,A,English,Mon Aug 06 16:09:14 2018,Mouse
1,2,1,0,31,8,8,1,680,630,50,139,0,500,200,8000,"[(960, 540), (960, 540), (960, 540), (960, 540), (960, 540), (960, 540), (960, 540), (960, 540), (960, 540), (960, 540), (960, 540), (960, 540), (960, 540), (960, 540), (960, 540), (960, 540), (960, 540), (960, 540), (960, 540), (960, 540), (960, 540), (960, 540), (960, 540), (960, 540), (960, 540), (960, 540), (960, 540), (960, 540), (960, 540), (960, 540), (960, 540), (960, 540), (960, 540), (960, 540), (960, 540), (960, 540), (960, 540), (960, 540), (960, 540), (960, 540), (960, 540), (960, 540), (960, 540), (960, 540), (960, 540), (960, 540), (960, 540), (960, 540), (960, 540), (960, 540), (960, 540), (960, 540), (960, 540), (960, 540), (960, 540), (960, 540), (960, 540), (960, 540), (960, 540), (960, 540), (960, 540), (960, 540), (957, 541), (931, 570), (900, 602), (859, 648), (799, 707), (662, 822)]",136.5801724728,"[1, 9, 3, 8, 5, 7, 6, 2, 4]","(0, 0.25)",THI002A,THI,A,English,Mon Aug 06 16:09:14 2018,Mouse
1,2,1,0,32,8,8,1,309,249,60,139,0,500,200,8000,"[(960, 540), (960, 540), (960, 540), (960, 540), (960, 540), (960, 540), (960, 540), (960, 540), (960, 540), (960, 540), (960, 540), (960, 540), (960, 540), (960, 540), (960, 540), (960, 540), (960, 540), (960, 540), (960, 540), (960, 540), (960, 540), (960, 540), (960, 540), (960, 540), (956, 541), (946, 549), (901, 586), (850, 629), (794, 669), (741, 710), (620, 785)]",144.22392228210535,"[1, 9, 3, 8, 5, 7, 6, 2, 4]","(0, 0.25)",THI002A,THI,A,English,Mon Aug 06 16:09:14 2018,Mouse
1,2,1,0,33,2,2,1,531,431,100,138,0,500,200,8000,"[(960, 540), (960, 540), (960, 540), (960, 540), (960, 540), (960, 540), (960, 540), (960, 540), (960, 540), (960, 540), (960, 540), (960, 540), (960, 540), (960, 540), (960, 540), (960, 540), (960, 540), (960, 540), (960, 540), (960, 540), (960, 540), (960, 540), (960, 540), (960, 540), (960, 540), (960, 540), (960, 540), (960, 540), (960, 540), (960, 540), (960, 540), (960, 540), (960, 540), (960, 540), (960, 540), (960, 540), (960, 540), (960, 540), (960, 540), (960, 540), (960, 540), (960, 540), (960, 540), (965, 532), (972, 519), (980, 504), (984, 492), (1002, 439), (1015, 394), (1027, 347), (1038, 303), (1063, 217), (1073, 176), (1080, 138)]",286.620756913892,"[1, 9, 3, 8, 5, 7, 6, 2, 4]","(0, 0.25)",THI002A,THI,A,English,Mon Aug 06 16:09:14 2018,Mouse
1,2,1,0,34,9,9,1,460,160,300,137,0,500,200,8000,"[(960, 540), (960, 540), (960, 540), (960, 540), (960, 540), (960, 540), (960, 540), (960, 540), (960, 540), (960, 540), (960, 540), (960, 540), (960, 540), (960, 540), (960, 540), (959, 540), (958, 540), (956, 540), (955, 540), (954, 540), (954, 540), (954, 540), (954, 540), (954, 540), (954, 540), (954, 540), (954, 540), (954, 540), (954, 540), (954, 540), (954, 540), (954, 540), (953, 544), (955, 551), (960, 561), (963, 574), (983, 615), (991, 633), (1003, 653), (1011, 663), (1031, 693), (1045, 718), (1056, 749), (1067, 795), (1087, 894), (1095, 945)]",71.56505117707799,"[1, 9, 3, 8, 5, 7, 6, 2, 4]","(0, 0.25)",THI002A,THI,A,English,Mon Aug 06 16:09:14 2018,Mouse
1,2,1,0,35,4,4,1,681,81,600,136,0,500,200,8000,"[(960, 540), (960, 540), (960, 540), (960, 540), (960, 540), (960, 540), (960, 540), (960, 540), (960, 539), (960, 539), (960, 539), (960, 538), (960, 538), (960, 538), (960, 537), (960, 537), (960, 537), (960, 537), (960, 537), (960, 537), (960, 537), (960, 537), (960, 537), (960, 537), (960, 537), (960, 537), (960, 537), (960, 537), (960, 537), (960, 537), (960, 536), (960, 536), (960, 536), (960, 536), (960, 536), (960, 536), (960, 536), (960, 536), (960, 536), (960, 536), (960, 536), (960, 536), (960, 536), (960, 536), (960, 535), (960, 535), (961, 534), (961, 534), (961, 534), (961, 534), (962, 534), (963, 534), (964, 533), (964, 533), (966, 533), (967, 531), (968, 531), (969, 530), (970, 528), (975, 526), (982, 524), (993, 521), (1029, 510), (1070, 499), (1120, 487), (1164, 472), (1260, 438), (1303, 418), (1345, 401)]",340.1484427302791,"[1, 9, 3, 8, 5, 7, 6, 2, 4]","(0, 0.25)",THI002A,THI,A,English,Mon Aug 06 16:09:14 2018,Mouse
1,2,1,0,36,9,9,1,400,310,90,135,0,500,200,8000,"[(960, 540), (960, 540), (960, 540), (960, 540), (960, 540), (960, 540), (960, 540), (960, 540), (960, 540), (960, 540), (960, 540), (960, 540), (960, 540), (960, 540), (960, 540), (960, 540), (960, 540), (960, 540), (960, 540), (960, 540), (960, 540), (960, 540), (960, 540), (960, 540), (960, 540), (960, 540), (960, 540), (960, 540), (960, 540), (960, 540), (959, 544), (963, 555), (982, 591), (996, 613), (1016, 644), (1040, 677), (1102, 746), (1142, 787), (1185, 826), (1233, 863)]",49.79546383658662,"[1, 9, 3, 8, 5, 7, 6, 2, 4]","(0, 0.25)",THI002A,THI,A,English,Mon Aug 06 16:09:14 2018,Mouse
1,2,1,0,37,7,7,1,2160,1840,320,134,0,500,200,8000,"[(960, 540), (960, 540), (960, 540), (960, 540), (960, 540), (960, 540), (960, 540), (960, 540), (960, 540), (960, 540), (960, 540), (960, 540), (960, 540), (960, 540), (960, 540), (960, 540), (960, 540), (960, 540), (960, 540), (960, 540), (960, 540), (960, 540), (960, 540), (960, 540), (960, 540), (960, 540), (960, 540), (960, 540), (960, 540), (960, 540), (960, 540), (960, 540), (960, 540), (960, 540), (960, 540), (960, 540), (960, 540), (960, 540), (960, 540), (960, 540), (960, 540), (960, 540), (960, 540), (960, 540), (960, 540), (960, 540), (960, 540), (960, 540), (960, 540), (960, 540), (960, 540), (960, 540), (960, 540), (960, 540), (960, 540), (960, 540), (960, 540), (960, 540), (960, 540), (960, 540), (960, 540), (960, 540), (960, 540), (960, 540), (960, 540), (960, 540), (960, 540), (960, 540), (960, 540), (960, 540), (960, 540), (960, 540), (960, 540), (960, 540), (960, 540), (960, 540), (960, 540), (960, 540), (960, 540), (960, 540), (960, 540), (960, 540), (960, 540), (960, 540), (960, 540), (960, 540), (960, 540), (960, 540), (960, 540), (960, 540), (960, 540), (960, 540), (960, 540), (960, 540), (960, 540), (960, 540), (960, 540), (960, 540), (960, 540), (960, 540), (960, 540), (960, 540), (960, 540), (960, 540), (960, 540), (960, 540), (960, 540), (960, 540), (960, 540), (960, 540), (960, 540), (960, 540), (960, 540), (960, 540), (960, 540), (960, 540), (960, 540), (960, 540), (960, 540), (960, 540), (960, 540), (960, 540), (960, 540), (960, 540), (960, 540), (960, 540), (960, 540), (960, 540), (960, 540), (960, 540), (960, 540), (960, 540), (960, 540), (960, 540), (960, 540), (960, 540), (960, 540), (960, 540), (960, 540), (960, 540), (960, 540), (960, 540), (960, 540), (960, 540), (960, 540), (960, 540), (960, 540), (960, 540), (960, 540), (960, 540), (960, 540), (960, 540), (960, 540), (960, 540), (960, 540), (960, 540), (960, 540), (960, 540), (960, 540), (960, 540), (960, 540), (960, 540), (960, 540), (960, 540), (960, 540), (960, 540), (960, 540), (960, 540), (960, 540), (960, 540), (960, 540), (960, 540), (960, 540), (960, 540), (960, 540), (960, 540), (960, 540), (960, 540), (960, 540), (960, 540), (960, 540), (960, 540), (960, 540), (960, 542), (960, 542), (960, 542), (960, 542), (960, 542), (960, 542), (960, 542), (960, 542), (960, 542), (960, 542), (960, 542), (960, 542), (960, 542), (960, 542), (960, 542), (960, 542), (960, 542), (959, 542), (959, 542), (958, 542), (956, 542), (955, 542), (954, 542), (953, 542), (943, 541), (931, 536), (909, 523), (878, 501), (799, 433), (753, 394), (695, 353), (640, 315), (519, 246)]",213.69006752597977,"[1, 9, 3, 8, 5, 7, 6, 2, 4]","(0, 0.25)",THI002A,THI,A,English,Mon Aug 06 16:09:14 2018,Mouse
1,2,1,0,38,4,9,0,-1951,1861,90,133,0,500,200,8000,"[(960, 540), (960, 540), (960, 540), (960, 540), (960, 540), (960, 540), (960, 540), (960, 540), (960, 540), (960, 540), (960, 540), (960, 540), (960, 540), (960, 540), (960, 540), (960, 540), (960, 540), (960, 540), (960, 540), (960, 540), (960, 540), (960, 540), (960, 540), (960, 540), (960, 540), (960, 540), (960, 540), (960, 540), (960, 540), (960, 540), (960, 540), (960, 540), (960, 540), (960, 540), (960, 540), (960, 540), (960, 540), (960, 540), (960, 540), (960, 540), (960, 540), (960, 540), (960, 540), (960, 540), (960, 540), (960, 540), (960, 540), (960, 540), (960, 540), (960, 540), (960, 540), (960, 540), (960, 540), (960, 540), (960, 540), (960, 540), (960, 540), (960, 540), (960, 540), (960, 540), (960, 540), (960, 540), (960, 540), (960, 540), (960, 540), (960, 540), (960, 540), (960, 540), (960, 540), (960, 540), (960, 540), (960, 540), (960, 540), (960, 540), (960, 540), (960, 540), (960, 540), (960, 540), (960, 540), (960, 540), (960, 540), (960, 540), (960, 540), (960, 540), (960, 540), (960, 540), (960, 540), (960, 540), (960, 540), (960, 540), (960, 540), (960, 540), (960, 540), (960, 540), (960, 540), (960, 540), (960, 540), (960, 540), (960, 540), (960, 540), (960, 540), (960, 540), (960, 540), (960, 540), (960, 540), (960, 540), (960, 540), (960, 540), (960, 540), (960, 540), (960, 540), (960, 540), (960, 540), (960, 540), (960, 540), (960, 540), (960, 540), (960, 540), (960, 540), (960, 540), (960, 540), (960, 540), (960, 540), (960, 540), (960, 540), (960, 540), (960, 540), (960, 540), (960, 540), (960, 540), (960, 540), (960, 540), (960, 540), (960, 540), (960, 540), (960, 540), (960, 540), (960, 540), (960, 540), (960, 540), (960, 540), (960, 540), (960, 540), (960, 540), (960, 540), (960, 540), (960, 540), (960, 540), (960, 540), (960, 540), (960, 540), (960, 540), (960, 540), (960, 540), (960, 540), (960, 540), (960, 540), (960, 540), (960, 540), (960, 540), (960, 540), (960, 540), (960, 540), (960, 540), (960, 540), (960, 540), (960, 540), (960, 540), (960, 540), (960, 540), (960, 540), (960, 540), (960, 540), (960, 540), (960, 540), (960, 540), (960, 540), (960, 540), (960, 540), (960, 540), (960, 540), (960, 540), (960, 540), (960, 540), (960, 540), (961, 541), (965, 568), (967, 591), (968, 623), (978, 664), (1022, 755), (1052, 797), (1083, 837), (1126, 878), (1215, 941)]",57.547302149927226,"[1, 9, 3, 8, 5, 7, 6, 2, 4]","(0, 0.25)",THI002A,THI,A,English,Mon Aug 06 16:09:14 2018,Mouse
1,2,1,0,39,8,4,0,-890,700,190,134,0,500,200,8000,"[(960, 540), (960, 540), (960, 540), (960, 540), (960, 540), (960, 540), (960, 540), (960, 540), (960, 540), (960, 540), (960, 540), (960, 540), (960, 540), (960, 540), (960, 540), (960, 540), (960, 540), (960, 540), (960, 540), (960, 540), (960, 540), (960, 540), (960, 540), (960, 540), (960, 540), (960, 540), (960, 540), (960, 540), (960, 540), (960, 540), (960, 540), (960, 540), (960, 540), (960, 540), (960, 540), (960, 540), (960, 540), (960, 540), (960, 540), (960, 540), (960, 540), (960, 540), (960, 540), (960, 540), (960, 540), (960, 540), (960, 540), (960, 540), (960, 540), (960, 540), (960, 540), (960, 540), (960, 540), (960, 540), (960, 540), (960, 540), (960, 540), (960, 540), (960, 540), (960, 540), (960, 540), (960, 540), (960, 540), (960, 540), (960, 540), (960, 540), (960, 540), (960, 540), (960, 540), (962, 538), (978, 533), (984, 531), (987, 530), (990, 529), (991, 529), (991, 529), (991, 529), (991, 529), (991, 529), (992, 529), (995, 527), (999, 526), (1014, 521), (1027, 515), (1048, 507), (1084, 496), (1214, 458), (1305, 437), (1393, 410)]",343.28861682985047,"[1, 9, 3, 8, 5, 7, 6, 2, 4]","(0, 0.25)",THI002A,THI,A,English,Mon Aug 06 16:09:14 2018,Mouse
1,2,1,0,40,5,5,1,300,220,80,135,0,500,200,8000,"[(960, 540), (960, 540), (960, 540), (960, 540), (960, 540), (960, 540), (960, 540), (960, 540), (960, 540), (960, 540), (960, 540), (960, 540), (960, 540), (960, 540), (960, 540), (960, 540), (960, 540), (960, 540), (960, 540), (960, 540), (960, 540), (959, 539), (958, 539), (954, 539), (939, 539), (924, 539), (891, 539), (822, 539), (645, 539), (540, 539)]",180.13641826486852,"[1, 9, 3, 8, 5, 7, 6, 2, 4]","(0, 0.25)",THI002A,THI,A,English,Mon Aug 06 16:09:14 2018,Mouse
1,2,1,0,41,5,5,1,319,259,60,135,0,500,200,8000,"[(960, 540), (960, 540), (960, 540), (960, 540), (960, 540), (960, 540), (960, 540), (960, 540), (960, 540), (960, 540), (960, 540), (960, 540), (960, 540), (960, 540), (960, 540), (960, 540), (960, 540), (960, 540), (960, 540), (960, 540), (960, 540), (960, 540), (960, 540), (960, 540), (960, 540), (954, 540), (938, 544), (913, 545), (871, 547), (727, 547), (644, 547), (555, 547)]",179.00980117079564,"[1, 9, 3, 8, 5, 7, 6, 2, 4]","(0, 0.25)",THI002A,THI,A,English,Mon Aug 06 16:09:14 2018,Mouse
1,2,1,0,42,1,1,1,500,450,50,134,0,500,200,8000,"[(960, 540), (960, 540), (960, 540), (960, 540), (960, 540), (960, 540), (960, 540), (960, 540), (960, 540), (960, 540), (960, 540), (960, 540), (960, 540), (960, 540), (960, 540), (960, 540), (960, 540), (960, 540), (960, 540), (960, 540), (960, 540), (960, 540), (960, 540), (960, 540), (960, 540), (960, 540), (960, 540), (960, 540), (960, 540), (960, 540), (960, 540), (960, 540), (960, 540), (960, 540), (960, 540), (960, 540), (960, 540), (960, 540), (960, 540), (960, 540), (960, 540), (960, 540), (960, 540), (960, 540), (972, 540), (1003, 545), (1063, 553), (1131, 564), (1324, 589), (1428, 605)]",7.907162702958458,"[1, 9, 3, 8, 5, 7, 6, 2, 4]","(0, 0.25)",THI002A,THI,A,English,Mon Aug 06 16:09:14 2018,Mouse
1,2,1,0,43,4,9,0,-710,510,200,133,0,500,200,8000,"[(960, 540), (960, 540), (960, 540), (960, 540), (960, 540), (960, 540), (960, 540), (960, 540), (960, 540), (960, 540), (960, 540), (960, 540), (960, 540), (960, 540), (960, 540), (960, 540), (960, 540), (960, 540), (960, 540), (960, 540), (960, 540), (960, 540), (960, 540), (960, 540), (960, 540), (960, 540), (960, 540), (960, 540), (960, 540), (960, 540), (960, 540), (960, 540), (960, 540), (960, 540), (960, 540), (960, 540), (960, 540), (960, 540), (960, 540), (960, 540), (960, 540), (960, 540), (960, 540), (960, 540), (960, 540), (960, 540), (960, 540), (960, 540), (960, 540), (960, 540), (961, 540), (961, 540), (961, 540), (961, 540), (961, 540), (961, 540), (961, 540), (961, 540), (961, 540), (961, 540), (961, 540), (961, 540), (961, 540), (961, 540), (961, 541), (965, 547), (975, 564), (994, 607), (1025, 677), (1096, 866), (1143, 967)]",66.80140948635182,"[1, 9, 3, 8, 5, 7, 6, 2, 4]","(0, 0.25)",THI002A,THI,A,English,Mon Aug 06 16:09:14 2018,Mouse
1,2,1,0,44,7,9,0,-1061,980,81,134,0,500,200,8000,"[(960, 540), (960, 540), (960, 540), (960, 540), (960, 540), (960, 540), (960, 540), (960, 540), (960, 540), (960, 540), (960, 540), (960, 540), (960, 540), (960, 540), (960, 540), (960, 540), (960, 540), (960, 540), (960, 540), (960, 540), (960, 540), (960, 540), (960, 540), (960, 540), (960, 540), (960, 540), (960, 540), (960, 540), (960, 540), (960, 540), (960, 540), (960, 540), (960, 540), (960, 540), (960, 540), (960, 540), (960, 540), (960, 540), (960, 540), (960, 540), (960, 540), (960, 540), (960, 540), (960, 540), (960, 540), (960, 540), (960, 540), (960, 540), (960, 540), (960, 540), (960, 540), (960, 540), (960, 540), (960, 540), (960, 540), (960, 540), (960, 540), (960, 540), (960, 540), (960, 540), (960, 540), (960, 540), (960, 540), (960, 540), (960, 540), (960, 540), (960, 540), (960, 540), (960, 540), (960, 540), (960, 540), (960, 540), (960, 540), (960, 540), (960, 540), (960, 540), (960, 540), (960, 540), (960, 540), (960, 540), (960, 540), (960, 540), (960, 540), (960, 540), (960, 540), (960, 540), (960, 540), (960, 540), (960, 540), (960, 540), (960, 540), (960, 540), (960, 540), (960, 540), (960, 540), (960, 540), (960, 540), (961, 546), (962, 569), (966, 598), (971, 633), (1009, 734), (1041, 789), (1079, 839), (1119, 880), (1203, 942)]",58.84797761916001,"[1, 9, 3, 8, 5, 7, 6, 2, 4]","(0, 0.25)",THI002A,THI,A,English,Mon Aug 06 16:09:14 2018,Mouse
1,2,1,0,45,4,4,1,1270,1230,40,135,0,500,200,8000,"[(960, 540), (960, 540), (960, 540), (960, 540), (960, 540), (960, 540), (960, 540), (960, 540), (960, 540), (960, 540), (960, 540), (960, 540), (960, 540), (960, 540), (960, 540), (960, 540), (960, 540), (960, 540), (960, 540), (960, 540), (960, 540), (960, 540), (960, 540), (960, 540), (960, 540), (960, 540), (960, 540), (960, 540), (960, 540), (960, 540), (960, 540), (960, 540), (960, 540), (960, 540), (960, 540), (960, 540), (960, 540), (960, 540), (960, 540), (960, 540), (960, 540), (960, 540), (960, 540), (960, 540), (960, 540), (960, 540), (960, 540), (960, 540), (960, 540), (960, 540), (960, 540), (960, 540), (960, 540), (960, 540), (960, 540), (960, 540), (960, 540), (960, 540), (960, 540), (960, 540), (960, 540), (960, 540), (960, 540), (960, 540), (960, 540), (960, 540), (960, 540), (960, 540), (960, 540), (960, 540), (960, 540), (960, 540), (960, 540), (960, 540), (960, 540), (960, 540), (960, 540), (960, 540), (960, 540), (960, 540), (960, 540), (960, 540), (960, 540), (960, 540), (960, 540), (960, 540), (960, 540), (960, 540), (960, 540), (960, 540), (960, 540), (960, 540), (960, 540), (960, 540), (960, 540), (960, 540), (960, 540), (960, 540), (960, 540), (960, 540), (960, 540), (960, 540), (960, 540), (960, 540), (960, 540), (960, 540), (960, 540), (960, 540), (960, 540), (960, 540), (960, 540), (960, 540), (960, 540), (960, 540), (960, 540), (960, 540), (960, 540), (960, 540), (960, 540), (960, 540), (960, 540), (960, 540), (986, 527), (1042, 502), (1123, 471), (1215, 434), (1388, 363)]",337.53239054346506,"[1, 9, 3, 8, 5, 7, 6, 2, 4]","(0, 0.25)",THI002A,THI,A,English,Mon Aug 06 16:09:14 2018,Mouse
1,2,1,0,46,5,4,0,-910,790,120,135,0,500,200,8000,"[(960, 540), (960, 540), (960, 540), (960, 540), (960, 540), (960, 540), (960, 540), (960, 540), (960, 540), (960, 540), (960, 540), (960, 540), (960, 540), (960, 540), (960, 540), (960, 540), (960, 540), (960, 540), (960, 540), (960, 540), (960, 540), (960, 540), (960, 540), (960, 540), (960, 540), (960, 540), (960, 540), (960, 540), (960, 540), (960, 540), (960, 540), (960, 540), (960, 540), (960, 540), (960, 540), (960, 540), (960, 540), (960, 540), (960, 540), (960, 540), (960, 540), (960, 540), (960, 540), (960, 540), (960, 540), (960, 540), (960, 540), (960, 540), (960, 540), (960, 540), (960, 540), (960, 540), (960, 540), (960, 540), (960, 540), (960, 540), (960, 540), (960, 540), (960, 540), (960, 540), (960, 540), (960, 540), (960, 540), (960, 540), (960, 540), (960, 540), (960, 540), (960, 540), (960, 540), (960, 540), (960, 540), (960, 540), (960, 540), (960, 540), (960, 540), (960, 540), (960, 540), (960, 540), (959, 540), (964, 540), (980, 530), (1004, 517), (1051, 488), (1076, 470), (1103, 454), (1141, 435), (1221, 401), (1252, 389), (1285, 373), (1311, 363), (1346, 348)]",333.55381956422195,"[1, 9, 3, 8, 5, 7, 6, 2, 4]","(0, 0.25)",THI002A,THI,A,English,Mon Aug 06 16:09:14 2018,Mouse
1,2,1,0,47,9,9,1,319,269,50,136,0,500,200,8000,"[(960, 540), (960, 540), (960, 540), (960, 540), (960, 540), (960, 540), (960, 540), (960, 540), (960, 540), (960, 540), (960, 540), (960, 540), (960, 540), (960, 540), (960, 540), (960, 540), (960, 540), (960, 540), (960, 540), (960, 540), (960, 540), (960, 540), (960, 540), (960, 540), (960, 540), (960, 540), (960, 569), (963, 615), (969, 674), (984, 748), (1044, 896), (1084, 967)]",73.80680184027534,"[1, 9, 3, 8, 5, 7, 6, 2, 4]","(0, 0.25)",THI002A,THI,A,English,Mon Aug 06 16:09:14 2018,Mouse
1,2,1,0,48,6,6,1,2020,1950,70,136,0,500,200,8000,"[(960, 540), (960, 540), (960, 540), (960, 540), (960, 540), (960, 540), (960, 540), (960, 540), (960, 540), (960, 540), (960, 540), (960, 540), (960, 540), (960, 540), (960, 540), (960, 540), (960, 540), (960, 540), (960, 540), (960, 540), (960, 540), (960, 540), (960, 540), (960, 540), (960, 540), (960, 540), (960, 540), (960, 540), (960, 540), (960, 540), (960, 540), (960, 540), (960, 540), (960, 540), (960, 540), (960, 540), (960, 540), (960, 540), (960, 540), (960, 540), (960, 540), (960, 540), (960, 540), (960, 540), (960, 540), (960, 540), (960, 540), (960, 540), (960, 540), (960, 540), (960, 540), (960, 540), (960, 540), (960, 540), (960, 540), (960, 540), (960, 540), (960, 540), (960, 540), (960, 540), (960, 540), (960, 540), (960, 540), (960, 540), (960, 540), (960, 540), (960, 540), (960, 540), (960, 540), (960, 540), (960, 540), (960, 540), (960, 540), (960, 540), (960, 540), (960, 540), (960, 540), (960, 540), (960, 540), (960, 540), (960, 540), (960, 540), (960, 540), (960, 540), (960, 540), (960, 540), (960, 540), (960, 540), (960, 540), (960, 540), (960, 540), (960, 540), (960, 540), (960, 540), (960, 540), (960, 540), (960, 540), (960, 540), (960, 540), (960, 540), (960, 540), (960, 540), (960, 540), (960, 540), (960, 540), (960, 540), (960, 540), (960, 540), (960, 540), (960, 540), (960, 540), (960, 540), (960, 540), (960, 540), (960, 540), (960, 540), (960, 540), (960, 540), (960, 540), (960, 540), (960, 540), (960, 540), (960, 540), (960, 540), (960, 540), (960, 540), (960, 540), (960, 540), (960, 540), (960, 540), (960, 540), (960, 540), (960, 540), (960, 540), (960, 540), (960, 540), (960, 540), (960, 540), (960, 540), (960, 540), (960, 540), (960, 540), (960, 540), (960, 540), (960, 540), (960, 540), (960, 540), (960, 540), (960, 540), (960, 540), (960, 540), (960, 540), (960, 540), (960, 540), (960, 540), (960, 540), (960, 540), (960, 540), (960, 540), (960, 540), (960, 540), (960, 540), (960, 540), (960, 540), (960, 540), (960, 540), (960, 540), (960, 540), (960, 540), (960, 540), (960, 540), (960, 540), (960, 540), (960, 540), (960, 540), (960, 540), (960, 540), (960, 540), (960, 540), (960, 540), (960, 540), (960, 540), (960, 540), (960, 540), (960, 540), (960, 540), (960, 540), (960, 540), (960, 540), (960, 540), (960, 540), (960, 540), (960, 540), (960, 540), (960, 541), (960, 537), (957, 513), (936, 394), (919, 335), (907, 273), (894, 212), (878, 104)]",259.3486107035434,"[1, 9, 3, 8, 5, 7, 6, 2, 4]","(0, 0.25)",THI002A,THI,A,English,Mon Aug 06 16:09:14 2018,Mouse
1,2,1,0,49,3,9,0,-360,310,50,135,0,500,200,8000,"[(960, 540), (960, 540), (960, 540), (960, 540), (960, 540), (960, 540), (960, 540), (960, 540), (960, 540), (960, 540), (960, 540), (960, 540), (960, 540), (960, 540), (960, 540), (960, 540), (960, 540), (960, 540), (960, 540), (960, 540), (960, 540), (960, 540), (960, 540), (960, 540), (960, 540), (960, 540), (960, 540), (960, 540), (960, 540), (960, 540), (983, 588), (1001, 636), (1033, 696), (1072, 759), (1166, 874), (1207, 917)]",56.768288932020646,"[1, 9, 3, 8, 5, 7, 6, 2, 4]","(0, 0.25)",THI002A,THI,A,English,Mon Aug 06 16:09:14 2018,Mouse
1,2,1,0,50,4,4,1,542,472,70,136,0,500,200,8000,"[(960, 540), (960, 540), (960, 540), (960, 540), (960, 540), (960, 540), (960, 540), (960, 540), (960, 540), (960, 540), (960, 540), (960, 540), (960, 540), (960, 540), (960, 540), (960, 540), (960, 540), (960, 540), (960, 540), (960, 540), (960, 540), (960, 540), (960, 540), (960, 540), (960, 540), (960, 540), (960, 540), (960, 540), (960, 540), (960, 540), (960, 540), (960, 540), (960, 540), (960, 540), (960, 540), (960, 540), (960, 540), (960, 540), (960, 540), (960, 540), (960, 540), (960, 540), (960, 540), (960, 540), (960, 540), (960, 540), (960, 540), (960, 537), (966, 533), (985, 528), (1063, 504), (1129, 487), (1217, 460), (1324, 434), (1528, 383)]",344.5487512505688,"[1, 9, 3, 8, 5, 7, 6, 2, 4]","(0, 0.25)",THI002A,THI,A,English,Mon Aug 06 16:09:14 2018,Mouse
1,2,1,0,51,7,3,0,-2010,1910,100,136,0,500,200,8000,"[(960, 540), (960, 540), (960, 540), (960, 540), (960, 540), (960, 540), (960, 540), (960, 540), (960, 540), (960, 540), (960, 540), (960, 540), (960, 540), (960, 540), (960, 540), (960, 540), (960, 540), (960, 540), (960, 540), (960, 540), (960, 540), (960, 540), (960, 540), (960, 540), (960, 540), (960, 540), (960, 540), (960, 540), (960, 540), (960, 540), (960, 540), (960, 540), (960, 540), (960, 540), (960, 540), (960, 540), (960, 540), (960, 540), (960, 540), (960, 540), (960, 540), (960, 540), (960, 540), (960, 540), (960, 540), (960, 540), (960, 540), (960, 540), (960, 540), (960, 540), (960, 540), (960, 540), (960, 540), (960, 540), (960, 540), (960, 540), (960, 540), (960, 540), (960, 540), (960, 540), (960, 540), (960, 540), (960, 540), (960, 540), (960, 540), (960, 540), (960, 540), (960, 540), (960, 540), (960, 540), (960, 540), (960, 540), (960, 540), (960, 540), (960, 540), (960, 540), (960, 540), (960, 540), (960, 540), (960, 540), (960, 540), (960, 540), (960, 540), (960, 540), (960, 540), (960, 540), (960, 540), (960, 540), (960, 540), (960, 540), (960, 540), (960, 540), (960, 540), (960, 540), (960, 540), (960, 540), (960, 540), (960, 540), (960, 540), (960, 540), (960, 540), (960, 540), (960, 540), (960, 540), (960, 540), (960, 540), (960, 540), (960, 540), (960, 540), (960, 540), (960, 540), (960, 540), (960, 540), (960, 540), (960, 540), (960, 540), (960, 540), (960, 540), (960, 540), (960, 540), (960, 540), (960, 540), (960, 540), (960, 540), (960, 540), (960, 540), (960, 540), (960, 540), (960, 540), (960, 540), (960, 540), (960, 540), (960, 540), (960, 540), (960, 540), (960, 540), (960, 540), (960, 540), (960, 540), (960, 540), (960, 540), (960, 540), (960, 540), (960, 540), (960, 540), (960, 540), (960, 540), (960, 540), (960, 540), (960, 540), (960, 540), (960, 540), (960, 540), (960, 540), (960, 540), (960, 540), (960, 540), (960, 540), (960, 540), (960, 540), (960, 540), (960, 540), (960, 540), (960, 540), (960, 540), (960, 540), (960, 540), (960, 540), (960, 540), (960, 540), (960, 540), (960, 540), (960, 540), (960, 540), (960, 540), (960, 540), (960, 540), (960, 540), (960, 540), (960, 540), (960, 540), (960, 540), (960, 540), (960, 540), (960, 540), (960, 540), (960, 540), (960, 540), (960, 540), (960, 540), (958, 558), (954, 576), (951, 608), (943, 651), (934, 737), (930, 771), (930, 802), (930, 827), (930, 888), (927, 915), (926, 943)]",94.82246690569667,"[1, 9, 3, 8, 5, 7, 6, 2, 4]","(0, 0.25)",THI002A,THI,A,English,Mon Aug 06 16:09:14 2018,Mouse
1,2,1,0,52,2,2,1,450,370,80,137,0,500,200,8000,"[(960, 540), (960, 540), (960, 540), (960, 540), (960, 540), (960, 540), (960, 540), (960, 540), (960, 540), (960, 540), (960, 540), (960, 540), (960, 540), (960, 540), (960, 540), (960, 540), (960, 540), (960, 540), (960, 540), (960, 540), (960, 540), (960, 540), (960, 540), (960, 540), (960, 540), (960, 540), (960, 540), (960, 540), (960, 540), (960, 540), (960, 540), (960, 540), (960, 540), (960, 540), (960, 540), (960, 540), (972, 533), (980, 525), (988, 517), (1005, 497), (1054, 437), (1081, 398), (1114, 351), (1140, 304), (1191, 209)]",304.9106176845061,"[1, 9, 3, 8, 5, 7, 6, 2, 4]","(0, 0.25)",THI002A,THI,A,English,Mon Aug 06 16:09:14 2018,Mouse
1,2,1,0,53,5,5,1,280,220,60,137,0,500,200,8000,"[(960, 540), (960, 540), (960, 540), (960, 540), (960, 540), (960, 540), (960, 540), (960, 540), (960, 540), (960, 540), (960, 540), (960, 540), (960, 540), (960, 540), (960, 540), (960, 540), (960, 540), (960, 540), (960, 540), (960, 540), (960, 540), (953, 539), (903, 539), (862, 539), (801, 539), (732, 539), (571, 539), (483, 539)]",180.12011676220996,"[1, 9, 3, 8, 5, 7, 6, 2, 4]","(0, 0.25)",THI002A,THI,A,English,Mon Aug 06 16:09:14 2018,Mouse
1,2,1,0,54,2,2,1,620,540,80,136,0,500,200,8000,"[(960, 540), (960, 540), (960, 540), (960, 540), (960, 540), (960, 540), (960, 540), (960, 540), (960, 540), (960, 540), (960, 540), (960, 540), (960, 540), (960, 540), (960, 540), (960, 540), (960, 540), (960, 540), (960, 540), (960, 540), (960, 540), (960, 540), (960, 540), (960, 540), (960, 540), (960, 540), (960, 540), (960, 540), (960, 540), (960, 540), (960, 540), (960, 540), (960, 540), (960, 540), (960, 540), (960, 540), (960, 540), (960, 540), (960, 540), (960, 540), (960, 540), (960, 540), (960, 540), (960, 540), (960, 540), (960, 540), (960, 540), (960, 540), (960, 540), (960, 540), (960, 540), (960, 540), (960, 540), (960, 531), (967, 511), (977, 480), (989, 448), (1029, 355), (1049, 312), (1069, 264), (1086, 224), (1112, 166)]",292.1176663269875,"[1, 9, 3, 8, 5, 7, 6, 2, 4]","(0, 0.25)",THI002A,THI,A,English,Mon Aug 06 16:09:14 2018,Mouse
1,2,1,0,55,8,6,0,-2912,631,2281,135,0,500,200,8000,"[(960, 540), (960, 540), (960, 540), (960, 540), (960, 540), (960, 540), (960, 540), (960, 540), (960, 540), (960, 540), (960, 540), (960, 540), (960, 540), (960, 540), (960, 540), (960, 540), (960, 540), (960, 540), (960, 540), (960, 540), (960, 540), (960, 540), (960, 540), (960, 540), (960, 540), (960, 540), (960, 540), (960, 540), (960, 540), (960, 540), (960, 540), (960, 540), (960, 540), (960, 540), (960, 540), (960, 540), (960, 540), (960, 540), (960, 540), (960, 540), (960, 540), (960, 540), (960, 540), (960, 540), (960, 540), (960, 540), (960, 540), (960, 540), (960, 540), (960, 540), (960, 540), (960, 540), (960, 540), (960, 540), (960, 540), (960, 540), (960, 540), (960, 540), (960, 540), (960, 540), (960, 540), (960, 540), (960, 540), (961, 540), (961, 540), (961, 540), (961, 540), (961, 540), (961, 540), (961, 540), (961, 540), (961, 540), (961, 540), (961, 540), (961, 540), (961, 540), (961, 540), (961, 540), (961, 540), (961, 540), (961, 540), (961, 540), (961, 540), (961, 540), (961, 540), (961, 540), (961, 540), (961, 540), (961, 540), (961, 541), (961, 541), (961, 541), (961, 541), (961, 541), (961, 541), (961, 541), (961, 541), (961, 541), (961, 541), (961, 541), (961, 541), (961, 541), (961, 541), (961, 541), (961, 541), (961, 541), (963, 541), (963, 541), (963, 541), (963, 541), (963, 541), (963, 541), (963, 541), (963, 541), (963, 541), (963, 541), (963, 541), (963, 541), (963, 541), (963, 541), (963, 541), (963, 541), (963, 541), (963, 541), (963, 541), (963, 541), (963, 541), (963, 541), (963, 541), (963, 541), (963, 541), (963, 541), (963, 541), (963, 541), (963, 541), (963, 541), (963, 541), (963, 541), (963, 541), (963, 541), (963, 541), (963, 541), (963, 541), (963, 541), (963, 541), (963, 541), (963, 541), (963, 541), (963, 541), (963, 541), (963, 541), (963, 541), (963, 541), (963, 541), (963, 541), (963, 541), (963, 541), (963, 541), (963, 541), (963, 541), (963, 541), (963, 541), (963, 541), (963, 541), (963, 541), (963, 541), (963, 541), (963, 541), (963, 541), (963, 541), (963, 541), (963, 541), (963, 541), (963, 541), (963, 541), (963, 541), (963, 541), (963, 541), (963, 541), (963, 541), (963, 541), (963, 541), (963, 541), (963, 541), (963, 541), (963, 541), (963, 541), (963, 541), (963, 541), (963, 541), (963, 541), (963, 541), (963, 541), (963, 541), (963, 541), (963, 541), (963, 541), (963, 541), (963, 541), (963, 541), (963, 541), (963, 541), (963, 541), (963, 541), (963, 541), (963, 541), (963, 541), (963, 541), (963, 541), (963, 541), (963, 541), (963, 541), (963, 541), (963, 541), (963, 541), (963, 541), (963, 541), (963, 541), (963, 541), (963, 541), (963, 541), (963, 541), (963, 541), (963, 541), (963, 541), (963, 541), (963, 541), (963, 541), (963, 541), (963, 541), (963, 541), (963, 541), (963, 541), (963, 541), (963, 541), (963, 541), (963, 541), (963, 541), (963, 541), (963, 541), (963, 541), (963, 541), (963, 541), (963, 541), (963, 541), (963, 541), (963, 541), (963, 541), (963, 541), (963, 541), (963, 541), (963, 541), (963, 541), (963, 541), (963, 541), (963, 541), (963, 541), (964, 541), (965, 541), (967, 542), (967, 542), (967, 542), (967, 542), (967, 542), (968, 543), (968, 543), (968, 543), (969, 543), (969, 543), (969, 543), (969, 543), (969, 543), (969, 543), (969, 543), (969, 543), (969, 544), (969, 544), (969, 544), (969, 544), (969, 544), (969, 544), (969, 544), (969, 544), (969, 544), (969, 544), (967, 543), (961, 522), (924, 424), (892, 356), (858, 283), (822, 225), (724, 110)]",241.24038146627748,"[1, 9, 3, 8, 5, 7, 6, 2, 4]","(0, 0.25)",THI002A,THI,A,English,Mon Aug 06 16:09:14 2018,Mouse
1,2,1,0,56,4,5,0,-950,900,50,136,0,500,200,8000,"[(960, 540), (960, 540), (960, 540), (960, 540), (960, 540), (960, 540), (960, 540), (960, 540), (960, 540), (960, 540), (960, 540), (960, 540), (960, 540), (960, 540), (960, 540), (960, 540), (960, 540), (960, 540), (960, 540), (960, 540), (960, 540), (960, 540), (960, 540), (960, 540), (960, 540), (960, 540), (960, 540), (960, 540), (960, 540), (960, 540), (960, 540), (960, 540), (960, 540), (960, 540), (960, 540), (960, 540), (960, 540), (960, 540), (960, 540), (960, 540), (960, 540), (960, 540), (960, 540), (960, 540), (960, 540), (960, 540), (960, 540), (960, 540), (960, 540), (960, 540), (960, 540), (960, 540), (960, 540), (960, 540), (960, 540), (960, 540), (960, 540), (960, 540), (960, 540), (960, 540), (960, 540), (960, 540), (960, 540), (960, 540), (960, 540), (960, 540), (960, 540), (960, 540), (960, 540), (960, 540), (960, 540), (960, 540), (960, 540), (960, 540), (960, 540), (960, 540), (960, 540), (960, 540), (960, 540), (960, 540), (960, 540), (960, 540), (960, 540), (960, 540), (960, 540), (960, 540), (960, 540), (960, 540), (960, 540), (950, 544), (851, 551), (782, 551), (694, 551), (603, 551), (428, 551)]",178.8154816143465,"[1, 9, 3, 8, 5, 7, 6, 2, 4]","(0, 0.25)",THI002A,THI,A,English,Mon Aug 06 16:09:14 2018,Mouse
1,2,1,0,57,5,5,1,270,30,240,137,0,500,200,8000,"[(960, 540), (960, 540), (960, 539), (960, 539), (960, 539), (960, 539), (960, 539), (960, 539), (960, 539), (960, 539), (960, 539), (960, 539), (960, 539), (960, 539), (960, 539), (960, 539), (960, 539), (960, 538), (959, 538), (957, 538), (950, 538), (939, 538), (866, 542), (792, 542), (701, 542), (593, 542), (372, 542)]",179.80511714776142,"[1, 9, 3, 8, 5, 7, 6, 2, 4]","(0, 0.25)",THI002A,THI,A,English,Mon Aug 06 16:09:14 2018,Mouse
1,2,1,0,58,7,9,0,-3619,3299,320,137,0,500,200,8000,"[(960, 540), (960, 540), (960, 540), (960, 540), (960, 540), (960, 540), (960, 540), (960, 540), (960, 540), (960, 540), (960, 540), (960, 540), (960, 540), (960, 540), (960, 540), (960, 540), (960, 540), (960, 540), (960, 540), (960, 540), (960, 540), (960, 540), (960, 540), (960, 540), (960, 540), (960, 540), (960, 540), (960, 540), (960, 540), (960, 540), (960, 540), (960, 540), (960, 540), (960, 540), (960, 540), (960, 540), (960, 540), (960, 540), (960, 540), (960, 540), (960, 540), (960, 540), (960, 540), (960, 540), (960, 540), (960, 540), (960, 540), (960, 540), (960, 540), (960, 540), (960, 540), (960, 540), (960, 540), (960, 540), (960, 540), (960, 540), (960, 540), (960, 540), (960, 540), (960, 540), (960, 540), (960, 540), (960, 540), (960, 540), (960, 540), (960, 540), (960, 540), (960, 540), (960, 540), (960, 540), (960, 540), (960, 540), (960, 540), (960, 540), (960, 540), (960, 540), (960, 540), (960, 540), (960, 540), (960, 540), (960, 540), (960, 540), (960, 540), (960, 540), (960, 540), (960, 540), (960, 540), (960, 540), (960, 540), (960, 540), (960, 540), (960, 540), (960, 540), (960, 540), (960, 540), (960, 540), (960, 540), (960, 540), (960, 540), (960, 540), (960, 540), (960, 540), (960, 540), (960, 540), (960, 540), (960, 540), (960, 540), (960, 540), (960, 540), (960, 540), (960, 540), (960, 540), (960, 540), (960, 540), (960, 540), (960, 540), (960, 540), (960, 540), (960, 540), (960, 540), (960, 540), (960, 540), (960, 540), (960, 540), (960, 540), (960, 540), (960, 540), (960, 540), (960, 540), (960, 540), (960, 540), (960, 540), (960, 540), (960, 540), (960, 540), (960, 540), (960, 540), (960, 540), (960, 540), (960, 540), (960, 540), (960, 540), (960, 540), (960, 540), (960, 540), (960, 540), (960, 540), (960, 540), (960, 540), (960, 540), (960, 540), (960, 540), (960, 540), (960, 540), (960, 540), (960, 540), (960, 540), (960, 540), (960, 540), (960, 540), (960, 540), (960, 540), (960, 540), (960, 540), (960, 540), (960, 540), (960, 540), (960, 540), (960, 540), (960, 540), (960, 540), (960, 540), (960, 540), (960, 540), (960, 540), (960, 540), (960, 540), (960, 540), (960, 540), (960, 540), (960, 540), (960, 540), (960, 540), (960, 540), (960, 540), (960, 540), (960, 540), (960, 540), (960, 540), (960, 540), (960, 540), (960, 540), (960, 540), (960, 540), (960, 540), (960, 540), (960, 540), (960, 540), (960, 540), (960, 540), (960, 540), (960, 540), (960, 540), (960, 540), (960, 540), (960, 540), (960, 540), (960, 540), (960, 540), (960, 540), (960, 540), (960, 540), (960, 540), (960, 540), (960, 540), (960, 540), (960, 540), (960, 540), (960, 540), (960, 540), (960, 540), (960, 540), (960, 540), (960, 540), (960, 540), (960, 540), (960, 540), (960, 540), (960, 540), (960, 540), (960, 540), (960, 540), (960, 540), (960, 540), (960, 540), (960, 540), (960, 540), (960, 540), (960, 540), (960, 540), (960, 540), (960, 540), (960, 540), (960, 540), (960, 540), (960, 540), (960, 540), (960, 540), (960, 540), (960, 540), (960, 540), (960, 540), (960, 540), (960, 540), (960, 540), (960, 540), (960, 540), (960, 540), (960, 540), (960, 540), (960, 540), (960, 540), (960, 540), (960, 540), (960, 540), (960, 540), (960, 540), (960, 540), (960, 540), (960, 540), (960, 540), (960, 540), (960, 540), (960, 540), (960, 540), (960, 540), (960, 540), (960, 540), (960, 540), (960, 540), (960, 540), (960, 540), (960, 540), (960, 540), (960, 540), (960, 540), (960, 540), (960, 540), (960, 540), (960, 540), (960, 540), (960, 540), (960, 540), (960, 540), (960, 540), (960, 540), (960, 540), (960, 540), (960, 540), (960, 540), (960, 540), (960, 540), (960, 540), (960, 540), (960, 540), (960, 540), (960, 540), (960, 540), (960, 540), (960, 540), (960, 540), (960, 540), (960, 540), (960, 540), (960, 540), (960, 540), (960, 540), (960, 540), (960, 540), (960, 540), (960, 540), (960, 540), (960, 540), (960, 540), (960, 540), (960, 540), (960, 540), (960, 540), (960, 540), (962, 540), (966, 540), (968, 540), (969, 540), (970, 540), (973, 540), (973, 541), (973, 541), (973, 543), (973, 546), (973, 546), (973, 547), (973, 548), (974, 549), (974, 551), (974, 554), (974, 558), (977, 572), (979, 583), (982, 596), (988, 612), (1001, 638), (1014, 655), (1023, 669), (1032, 679), (1053, 703), (1068, 717), (1088, 733), (1113, 750), (1165, 789), (1190, 810), (1209, 826), (1229, 842)]",48.307635448459315,"[1, 9, 3, 8, 5, 7, 6, 2, 4]","(0, 0.25)",THI002A,THI,A,English,Mon Aug 06 16:09:14 2018,Mouse
1,2,1,0,59,7,7,1,960,910,50,138,0,500,200,8000,"[(960, 540), (960, 540), (960, 540), (960, 540), (960, 540), (960, 540), (960, 540), (960, 540), (960, 540), (960, 540), (960, 540), (960, 540), (960, 540), (960, 540), (960, 540), (960, 540), (960, 540), (960, 540), (960, 540), (960, 540), (960, 540), (960, 540), (960, 540), (960, 540), (960, 540), (960, 540), (960, 540), (960, 540), (960, 540), (960, 540), (960, 540), (960, 540), (960, 540), (960, 540), (960, 540), (960, 540), (960, 540), (960, 540), (960, 540), (960, 540), (960, 540), (960, 540), (960, 540), (960, 540), (960, 540), (960, 540), (960, 540), (960, 540), (960, 540), (960, 540), (960, 540), (960, 540), (960, 540), (960, 540), (960, 540), (960, 540), (960, 540), (960, 540), (960, 540), (960, 540), (960, 540), (960, 540), (960, 540), (960, 540), (960, 540), (960, 540), (960, 540), (960, 540), (960, 540), (960, 540), (960, 540), (960, 540), (960, 540), (960, 540), (960, 540), (960, 540), (960, 540), (960, 540), (960, 540), (960, 540), (960, 540), (960, 540), (960, 540), (960, 540), (960, 540), (960, 540), (960, 540), (960, 540), (960, 540), (960, 540), (955, 537), (896, 510), (839, 483), (785, 460), (720, 427), (601, 352)]",207.64001140211627,"[1, 9, 3, 8, 5, 7, 6, 2, 4]","(0, 0.25)",THI002A,THI,A,English,Mon Aug 06 16:09:14 2018,Mouse
1,2,1,0,60,3,3,1,1362,1312,50,138,0,500,200,8000,"[(960, 540), (960, 540), (960, 540), (960, 540), (960, 540), (960, 540), (960, 540), (960, 540), (960, 540), (960, 540), (960, 540), (960, 540), (960, 540), (960, 540), (960, 540), (960, 540), (960, 540), (960, 540), (960, 540), (960, 540), (960, 540), (960, 540), (960, 540), (960, 540), (960, 540), (960, 540), (960, 540), (960, 540), (960, 540), (960, 540), (960, 540), (960, 540), (960, 540), (960, 540), (960, 540), (960, 540), (960, 540), (960, 540), (960, 540), (960, 540), (960, 540), (960, 540), (960, 540), (960, 540), (960, 540), (960, 540), (960, 540), (960, 540), (960, 540), (960, 540), (960, 540), (960, 540), (960, 540), (960, 540), (960, 540), (960, 540), (960, 540), (960, 540), (960, 540), (960, 540), (960, 540), (960, 540), (960, 540), (960, 540), (960, 540), (960, 540), (960, 540), (960, 540), (960, 540), (960, 540), (960, 540), (960, 540), (960, 540), (960, 540), (960, 540), (960, 540), (960, 540), (960, 540), (960, 540), (960, 540), (960, 540), (960, 540), (960, 540), (960, 540), (960, 540), (960, 540), (960, 540), (960, 540), (960, 540), (960, 540), (960, 540), (960, 540), (960, 540), (960, 540), (960, 540), (960, 540), (960, 540), (960, 540), (960, 540), (960, 540), (960, 540), (960, 540), (960, 540), (960, 540), (960, 540), (960, 540), (960, 540), (960, 540), (960, 540), (960, 540), (960, 540), (960, 540), (960, 540), (960, 540), (960, 540), (960, 540), (960, 540), (960, 540), (960, 540), (960, 540), (960, 540), (960, 540), (960, 540), (960, 540), (960, 540), (960, 540), (960, 540), (960, 540), (960, 540), (960, 540), (960, 540), (951, 620), (941, 680), (935, 734), (927, 793), (920, 913), (920, 963)]",95.40197716927088,"[1, 9, 3, 8, 5, 7, 6, 2, 4]","(0, 0.25)",THI002A,THI,A,English,Mon Aug 06 16:09:14 2018,Mouse
1,2,1,0,61,1,1,1,309,229,80,137,0,500,200,8000,"[(960, 540), (960, 540), (960, 540), (960, 540), (960, 540), (960, 540), (960, 540), (960, 540), (960, 540), (960, 540), (960, 540), (960, 540), (960, 540), (960, 540), (960, 540), (960, 540), (960, 540), (960, 540), (960, 540), (960, 540), (960, 540), (960, 540), (962, 541), (971, 543), (991, 549), (1080, 564), (1134, 570), (1191, 578), (1240, 586), (1326, 615), (1355, 625)]",12.144278049567005,"[1, 9, 3, 8, 5, 7, 6, 2, 4]","(0, 0.25)",THI002A,THI,A,English,Mon Aug 06 16:09:14 2018,Mouse
1,2,1,0,62,2,2,1,399,339,60,136,0,500,200,8000,"[(960, 540), (960, 540), (960, 540), (960, 540), (960, 540), (960, 540), (960, 540), (960, 540), (960, 540), (960, 540), (960, 540), (960, 540), (960, 540), (960, 540), (960, 540), (960, 540), (960, 540), (960, 540), (960, 540), (960, 540), (960, 540), (960, 540), (960, 540), (960, 540), (960, 540), (960, 540), (960, 540), (960, 540), (960, 540), (960, 540), (960, 540), (960, 540), (960, 540), (962, 533), (975, 509), (992, 469), (1010, 419), (1053, 291), (1082, 221), (1112, 156)]",291.59531044896767,"[1, 9, 3, 8, 5, 7, 6, 2, 4]","(0, 0.25)",THI002A,THI,A,English,Mon Aug 06 16:09:14 2018,Mouse
1,2,1,0,63,8,3,0,-2090,2000,90,135,0,500,200,8000,"[(960, 540), (960, 540), (960, 540), (960, 540), (960, 540), (960, 540), (960, 540), (960, 540), (960, 540), (960, 540), (960, 540), (960, 540), (960, 540), (960, 540), (960, 540), (960, 540), (960, 540), (960, 540), (960, 540), (960, 540), (960, 540), (960, 540), (960, 540), (960, 540), (960, 540), (960, 540), (960, 540), (960, 540), (960, 540), (960, 540), (960, 540), (960, 540), (960, 540), (960, 540), (960, 540), (960, 540), (960, 540), (960, 540), (960, 540), (960, 540), (960, 540), (960, 540), (960, 540), (960, 540), (960, 540), (960, 540), (960, 540), (960, 540), (960, 540), (960, 540), (960, 540), (960, 540), (960, 540), (960, 540), (960, 540), (960, 540), (960, 540), (960, 540), (960, 540), (960, 540), (960, 540), (960, 540), (960, 540), (960, 540), (960, 540), (960, 540), (960, 540), (960, 540), (960, 540), (960, 540), (960, 540), (960, 540), (960, 540), (960, 540), (960, 540), (960, 540), (960, 540), (960, 540), (960, 540), (960, 540), (960, 540), (960, 540), (960, 540), (960, 540), (960, 540), (960, 540), (960, 540), (960, 540), (960, 540), (960, 540), (960, 540), (960, 540), (960, 540), (960, 540), (960, 540), (960, 540), (960, 540), (960, 540), (960, 540), (960, 540), (960, 540), (960, 540), (960, 540), (960, 540), (960, 540), (960, 540), (960, 540), (960, 540), (960, 540), (960, 540), (960, 540), (960, 540), (960, 540), (960, 540), (960, 540), (960, 540), (960, 540), (960, 540), (960, 540), (960, 540), (960, 540), (960, 540), (960, 540), (960, 540), (960, 540), (960, 540), (960, 540), (960, 540), (960, 540), (960, 540), (960, 540), (960, 540), (960, 540), (960, 540), (960, 540), (960, 540), (960, 540), (960, 540), (960, 540), (960, 540), (960, 540), (960, 540), (960, 540), (960, 540), (960, 540), (960, 540), (960, 540), (960, 540), (960, 540), (960, 540), (960, 540), (960, 540), (960, 540), (960, 540), (960, 540), (960, 540), (960, 540), (960, 540), (960, 540), (960, 540), (960, 540), (960, 540), (960, 540), (960, 540), (960, 540), (960, 540), (960, 540), (960, 540), (960, 540), (960, 540), (960, 540), (960, 540), (960, 540), (960, 540), (960, 540), (960, 540), (960, 540), (960, 540), (960, 540), (960, 540), (960, 540), (960, 540), (960, 540), (960, 540), (960, 540), (960, 540), (960, 540), (960, 540), (960, 540), (960, 540), (960, 540), (960, 540), (960, 540), (960, 540), (960, 540), (960, 540), (960, 540), (960, 540), (960, 540), (957, 555), (949, 608), (946, 640), (938, 681), (935, 723), (920, 799), (912, 845), (907, 886), (898, 927), (890, 983)]",98.97926806374959,"[1, 9, 3, 8, 5, 7, 6, 2, 4]","(0, 0.25)",THI002A,THI,A,English,Mon Aug 06 16:09:14 2018,Mouse
1,2,1,0,64,5,5,1,1390,1250,140,136,0,500,200,8000,"[(960, 540), (960, 540), (960, 540), (960, 540), (960, 540), (960, 540), (960, 540), (960, 540), (960, 540), (960, 540), (960, 540), (960, 540), (960, 540), (960, 540), (960, 540), (960, 540), (960, 540), (960, 540), (960, 540), (960, 540), (960, 540), (960, 540), (960, 540), (960, 540), (960, 540), (960, 540), (960, 540), (960, 540), (960, 540), (960, 540), (960, 540), (960, 540), (960, 540), (960, 540), (960, 540), (960, 540), (960, 540), (960, 540), (960, 540), (960, 540), (960, 540), (960, 540), (960, 540), (960, 540), (960, 540), (960, 540), (960, 540), (960, 540), (960, 540), (960, 540), (960, 540), (960, 540), (960, 540), (960, 540), (960, 540), (960, 540), (960, 540), (960, 540), (960, 540), (960, 540), (960, 540), (960, 540), (960, 540), (960, 540), (960, 540), (960, 540), (960, 540), (960, 540), (960, 540), (960, 540), (960, 540), (960, 540), (960, 540), (960, 540), (960, 540), (960, 540), (960, 540), (960, 540), (960, 540), (960, 540), (960, 540), (960, 540), (960, 540), (960, 540), (960, 540), (960, 540), (960, 540), (960, 540), (960, 540), (960, 540), (960, 540), (960, 540), (960, 540), (960, 540), (960, 540), (960, 540), (960, 540), (960, 540), (960, 540), (960, 540), (960, 540), (960, 540), (960, 540), (960, 540), (960, 540), (960, 540), (960, 540), (960, 540), (960, 540), (960, 540), (960, 540), (960, 540), (960, 540), (960, 540), (960, 540), (960, 540), (960, 540), (960, 540), (960, 540), (960, 540), (960, 540), (960, 540), (960, 540), (960, 540), (960, 539), (960, 539), (959, 539), (958, 539), (958, 539), (957, 539), (951, 541), (945, 543), (934, 545), (919, 549), (840, 553), (782, 553), (715, 553), (635, 553), (466, 553)]",178.49256424122504,"[1, 9, 3, 8, 5, 7, 6, 2, 4]","(0, 0.25)",THI002A,THI,A,English,Mon Aug 06 16:09:14 2018,Mouse
1,2,1,0,65,5,5,1,271,231,40,136,0,500,200,8000,"[(960, 540), (960, 540), (960, 540), (960, 540), (960, 540), (960, 540), (960, 540), (960, 540), (960, 540), (960, 540), (960, 540), (960, 540), (960, 540), (960, 540), (960, 540), (960, 540), (960, 540), (960, 540), (960, 540), (960, 540), (960, 540), (960, 540), (960, 540), (939, 540), (881, 540), (815, 540), (732, 540), (544, 540)]",180.0,"[1, 9, 3, 8, 5, 7, 6, 2, 4]","(0, 0.25)",THI002A,THI,A,English,Mon Aug 06 16:09:14 2018,Mouse
1,2,1,0,66,9,9,1,831,761,70,135,0,500,200,8000,"[(960, 540), (960, 540), (960, 540), (960, 540), (960, 540), (960, 540), (960, 540), (960, 540), (960, 540), (960, 540), (960, 540), (960, 540), (960, 540), (960, 540), (960, 540), (960, 540), (960, 540), (960, 540), (960, 540), (960, 540), (960, 540), (960, 540), (960, 540), (960, 540), (960, 540), (960, 540), (960, 540), (960, 540), (960, 540), (960, 540), (960, 540), (960, 540), (960, 540), (960, 540), (960, 540), (960, 540), (960, 540), (960, 540), (960, 540), (960, 540), (960, 540), (960, 540), (960, 540), (960, 540), (960, 540), (960, 540), (960, 540), (960, 540), (960, 540), (960, 540), (960, 540), (960, 540), (960, 540), (960, 540), (960, 540), (960, 540), (960, 540), (960, 540), (960, 540), (960, 540), (960, 540), (960, 540), (960, 540), (960, 540), (960, 540), (960, 540), (960, 540), (960, 540), (960, 540), (960, 540), (960, 540), (960, 540), (960, 540), (960, 540), (960, 540), (960, 540), (963, 547), (968, 563), (974, 588), (1019, 664), (1058, 712), (1098, 760), (1139, 806), (1212, 888)]",54.090276920822326,"[1, 9, 3, 8, 5, 7, 6, 2, 4]","(0, 0.25)",THI002A,THI,A,English,Mon Aug 06 16:09:14 2018,Mouse
1,2,1,0,67,2,2,1,310,250,60,134,0,500,200,8000,"[(960, 540), (960, 540), (960, 540), (960, 540), (960, 540), (960, 540), (960, 540), (960, 540), (960, 540), (960, 540), (960, 540), (960, 540), (960, 540), (960, 540), (960, 540), (960, 540), (960, 540), (960, 540), (960, 540), (960, 540), (960, 540), (960, 540), (960, 540), (960, 540), (963, 541), (985, 529), (1053, 442), (1105, 370), (1162, 292), (1207, 226), (1279, 128)]",307.7496101542351,"[1, 9, 3, 8, 5, 7, 6, 2, 4]","(0, 0.25)",THI002A,THI,A,English,Mon Aug 06 16:09:14 2018,Mouse
1,2,1,0,68,6,4,0,-1479,1399,80,133,0,500,200,8000,"[(960, 540), (960, 540), (960, 540), (960, 540), (960, 540), (960, 540), (960, 540), (960, 540), (960, 540), (960, 540), (960, 540), (960, 540), (960, 540), (960, 540), (960, 540), (960, 540), (960, 540), (960, 540), (960, 540), (960, 540), (960, 540), (960, 540), (960, 540), (960, 540), (960, 540), (960, 540), (960, 540), (960, 540), (960, 540), (960, 540), (960, 540), (960, 540), (960, 540), (960, 540), (960, 540), (960, 540), (960, 540), (960, 540), (960, 540), (960, 540), (960, 540), (960, 540), (960, 540), (960, 540), (960, 540), (960, 540), (960, 540), (960, 540), (960, 540), (960, 540), (960, 540), (960, 540), (960, 540), (960, 540), (960, 540), (960, 540), (960, 540), (960, 540), (960, 540), (960, 540), (960, 540), (960, 540), (960, 540), (960, 540), (960, 540), (960, 540), (960, 540), (960, 540), (960, 540), (960, 540), (960, 540), (960, 540), (960, 540), (960, 540), (960, 540), (960, 540), (960, 540), (960, 540), (960, 540), (960, 540), (960, 540), (960, 540), (960, 540), (960, 540), (960, 540), (960, 540), (960, 540), (960, 540), (960, 540), (960, 540), (960, 540), (960, 540), (960, 540), (960, 540), (960, 540), (960, 540), (960, 540), (960, 540), (960, 540), (960, 540), (960, 540), (960, 540), (960, 540), (960, 540), (960, 540), (960, 540), (960, 540), (960, 540), (960, 540), (960, 540), (960, 540), (960, 540), (960, 540), (960, 540), (960, 540), (960, 540), (960, 540), (960, 540), (960, 540), (960, 540), (960, 540), (960, 540), (960, 540), (960, 540), (960, 540), (960, 540), (960, 540), (960, 540), (960, 540), (960, 540), (960, 540), (960, 540), (960, 540), (960, 540), (960, 540), (960, 540), (960, 540), (960, 540), (960, 540), (963, 539), (966, 538), (971, 535), (994, 528), (1014, 521), (1059, 506), (1126, 480), (1294, 412), (1383, 377)]",338.9261913680859,"[1, 9, 3, 8, 5, 7, 6, 2, 4]","(0, 0.25)",THI002A,THI,A,English,Mon Aug 06 16:09:14 2018,Mouse
1,2,1,0,69,6,3,0,-1031,501,530,134,0,500,200,8000,"[(960, 540), (960, 540), (960, 540), (960, 540), (960, 540), (960, 540), (960, 540), (960, 540), (960, 540), (960, 540), (960, 540), (960, 540), (960, 540), (960, 540), (960, 540), (960, 540), (960, 540), (960, 540), (960, 540), (960, 540), (960, 540), (960, 540), (960, 540), (960, 540), (960, 540), (960, 540), (960, 540), (960, 540), (960, 540), (960, 540), (960, 540), (960, 540), (960, 540), (960, 540), (960, 540), (960, 540), (960, 540), (960, 540), (960, 540), (960, 540), (960, 540), (960, 540), (960, 540), (960, 540), (960, 540), (960, 540), (960, 540), (960, 540), (960, 540), (960, 540), (958, 543), (958, 543), (958, 545), (958, 545), (958, 545), (958, 546), (958, 546), (958, 546), (958, 546), (958, 547), (958, 547), (958, 547), (958, 547), (958, 547), (958, 547), (958, 547), (958, 547), (958, 547), (958, 547), (958, 547), (958, 547), (958, 547), (958, 547), (958, 547), (958, 547), (958, 547), (958, 547), (958, 547), (958, 547), (958, 547), (958, 547), (958, 547), (958, 547), (958, 547), (958, 547), (958, 547), (958, 547), (958, 547), (958, 547), (958, 547), (958, 547), (958, 547), (958, 547), (958, 547), (958, 547), (958, 552), (958, 557), (958, 568), (953, 606), (950, 644), (944, 695), (934, 757), (897, 901), (877, 975)]",100.80245434086837,"[1, 9, 3, 8, 5, 7, 6, 2, 4]","(0, 0.25)",THI002A,THI,A,English,Mon Aug 06 16:09:14 2018,Mouse
1,2,1,0,70,4,4,1,1099,1029,70,135,0,500,200,8000,"[(960, 540), (960, 540), (960, 540), (960, 540), (960, 540), (960, 540), (960, 540), (960, 540), (960, 540), (960, 540), (960, 540), (960, 540), (960, 540), (960, 540), (960, 540), (960, 540), (960, 540), (960, 540), (960, 540), (960, 540), (960, 540), (960, 540), (960, 540), (960, 540), (960, 540), (960, 540), (960, 540), (960, 540), (960, 540), (960, 540), (960, 540), (960, 540), (960, 540), (960, 540), (960, 540), (960, 540), (960, 540), (960, 540), (960, 540), (960, 540), (960, 540), (960, 540), (960, 540), (960, 540), (960, 540), (960, 540), (960, 540), (960, 540), (960, 540), (960, 540), (960, 540), (960, 540), (960, 540), (960, 540), (960, 540), (960, 540), (960, 540), (960, 540), (960, 540), (960, 540), (960, 540), (960, 540), (960, 540), (960, 540), (960, 540), (960, 540), (960, 540), (960, 540), (960, 540), (960, 540), (960, 540), (960, 540), (960, 540), (960, 540), (960, 540), (960, 540), (960, 540), (960, 540), (960, 540), (960, 540), (960, 540), (960, 540), (960, 540), (960, 540), (960, 540), (960, 540), (960, 540), (960, 540), (960, 540), (960, 540), (960, 540), (960, 540), (960, 540), (960, 540), (960, 540), (960, 540), (960, 540), (960, 540), (960, 540), (960, 540), (960, 540), (960, 540), (963, 537), (976, 532), (992, 524), (1061, 499), (1121, 487), (1190, 465), (1263, 457), (1407, 435)]",346.78091509298343,"[1, 9, 3, 8, 5, 7, 6, 2, 4]","(0, 0.25)",THI002A,THI,A,English,Mon Aug 06 16:09:14 2018,Mouse
1,2,1,0,71,5,8,0,-761,681,80,135,0,500,200,8000,"[(960, 540), (960, 540), (960, 540), (960, 540), (960, 540), (960, 540), (960, 540), (960, 540), (960, 540), (960, 540), (960, 540), (960, 540), (960, 540), (960, 540), (960, 540), (960, 540), (960, 540), (960, 540), (960, 540), (960, 540), (960, 540), (960, 540), (960, 540), (960, 540), (960, 540), (960, 540), (960, 540), (960, 540), (960, 540), (960, 540), (960, 540), (960, 540), (960, 540), (960, 540), (960, 540), (960, 540), (960, 540), (960, 540), (960, 540), (960, 540), (960, 540), (960, 540), (960, 540), (960, 540), (960, 540), (960, 540), (960, 540), (960, 540), (960, 540), (960, 540), (960, 540), (960, 540), (960, 540), (960, 540), (960, 540), (960, 540), (960, 540), (960, 540), (960, 540), (960, 540), (960, 540), (960, 540), (960, 540), (960, 540), (960, 540), (960, 540), (960, 540), (960, 540), (956, 542), (950, 549), (938, 565), (892, 642), (860, 699), (830, 749), (800, 790), (751, 855), (726, 884)]",124.2248126077165,"[1, 9, 3, 8, 5, 7, 6, 2, 4]","(0, 0.25)",THI002A,THI,A,English,Mon Aug 06 16:09:14 2018,Mouse
1,2,1,0,72,2,2,1,260,170,90,136,0,500,200,8000,"[(960, 540), (960, 540), (960, 540), (960, 540), (960, 540), (960, 540), (960, 540), (960, 540), (960, 540), (960, 540), (960, 540), (960, 540), (960, 540), (960, 540), (960, 540), (960, 540), (961, 540), (975, 514), (982, 494), (998, 462), (1018, 414), (1066, 326), (1089, 286), (1114, 247), (1139, 211), (1206, 133)]",301.1497140528097,"[1, 9, 3, 8, 5, 7, 6, 2, 4]","(0, 0.25)",THI002A,THI,A,English,Mon Aug 06 16:09:14 2018,Mouse
1,2,1,0,73,3,3,1,2179,1629,550,136,0,500,200,8000,"[(960, 540), (960, 540), (960, 540), (960, 540), (960, 540), (960, 540), (960, 540), (960, 540), (960, 540), (960, 540), (960, 540), (960, 540), (960, 540), (960, 540), (960, 540), (960, 540), (960, 540), (960, 540), (960, 540), (960, 540), (960, 540), (960, 540), (960, 540), (960, 540), (960, 540), (960, 540), (960, 540), (960, 540), (960, 540), (960, 540), (960, 540), (960, 540), (960, 540), (960, 540), (960, 540), (960, 540), (960, 540), (960, 540), (960, 540), (960, 540), (960, 540), (960, 540), (960, 540), (960, 540), (960, 540), (960, 540), (960, 540), (960, 540), (960, 540), (960, 540), (960, 540), (960, 540), (960, 540), (960, 540), (960, 540), (960, 540), (960, 540), (960, 540), (960, 540), (960, 540), (960, 540), (960, 540), (960, 540), (960, 540), (960, 540), (960, 540), (960, 540), (960, 540), (960, 540), (960, 540), (960, 540), (960, 540), (960, 540), (960, 540), (960, 540), (960, 540), (960, 540), (960, 540), (960, 540), (960, 540), (960, 540), (960, 540), (960, 540), (960, 540), (960, 540), (960, 540), (960, 540), (960, 540), (960, 540), (960, 540), (960, 540), (960, 540), (960, 540), (960, 540), (960, 540), (960, 540), (960, 540), (960, 540), (960, 540), (960, 540), (960, 540), (960, 540), (960, 540), (960, 540), (960, 540), (960, 540), (960, 540), (960, 540), (960, 540), (960, 540), (960, 540), (960, 540), (960, 540), (960, 540), (960, 540), (960, 540), (960, 540), (960, 540), (960, 540), (960, 540), (960, 540), (960, 540), (960, 540), (960, 540), (960, 540), (960, 540), (960, 540), (960, 540), (960, 540), (960, 540), (960, 540), (960, 540), (960, 540), (960, 540), (960, 540), (960, 540), (960, 540), (960, 540), (960, 540), (960, 540), (960, 540), (960, 540), (960, 540), (960, 540), (960, 540), (960, 540), (960, 540), (960, 540), (960, 540), (960, 540), (960, 540), (960, 540), (960, 540), (960, 540), (960, 540), (960, 540), (960, 540), (960, 540), (960, 540), (960, 540), (960, 540), (960, 540), (960, 542), (959, 542), (959, 542), (959, 542), (959, 542), (959, 542), (959, 542), (959, 542), (959, 542), (959, 542), (959, 542), (959, 542), (959, 542), (959, 542), (959, 542), (959, 542), (959, 542), (959, 543), (959, 543), (959, 543), (959, 543), (959, 543), (959, 543), (959, 543), (959, 543), (959, 543), (959, 543), (959, 543), (959, 543), (959, 543), (959, 543), (959, 543), (959, 543), (959, 543), (959, 543), (959, 543), (959, 543), (959, 543), (959, 543), (959, 543), (959, 543), (959, 543), (959, 543), (959, 543), (959, 543), (959, 543), (959, 545), (959, 551), (945, 602), (933, 654), (917, 705), (902, 760), (881, 853), (873, 894), (869, 923), (866, 947)]",103.00489774991009,"[1, 9, 3, 8, 5, 7, 6, 2, 4]","(0, 0.25)",THI002A,THI,A,English,Mon Aug 06 16:09:14 2018,Mouse
1,2,1,0,74,4,4,1,631,581,50,135,0,500,200,8000,"[(960, 540), (960, 540), (960, 540), (960, 540), (960, 540), (960, 540), (960, 540), (960, 540), (960, 540), (960, 540), (960, 540), (960, 540), (960, 540), (960, 540), (960, 540), (960, 540), (960, 540), (960, 540), (960, 540), (960, 540), (960, 540), (960, 540), (960, 540), (960, 540), (960, 540), (960, 540), (960, 540), (960, 540), (960, 540), (960, 540), (960, 540), (960, 540), (960, 540), (960, 540), (960, 540), (960, 540), (960, 540), (960, 540), (960, 540), (960, 540), (960, 540), (960, 540), (960, 540), (960, 540), (960, 540), (960, 540), (960, 540), (960, 540), (960, 540), (960, 540), (960, 540), (960, 540), (960, 540), (960, 540), (960, 540), (960, 540), (960, 540), (960, 540), (965, 539), (976, 534), (1057, 509), (1134, 487), (1251, 468), (1366, 450)]",347.5010805403613,"[1, 9, 3, 8, 5, 7, 6, 2, 4]","(0, 0.25)",THI002A,THI,A,English,Mon Aug 06 16:09:14 2018,Mouse
1,2,1,0,75,6,1,0,-560,490,70,134,0,500,200,8000,"[(960, 540), (960, 540), (960, 540), (960, 540), (960, 540), (960, 540), (960, 540), (960, 540), (960, 540), (960, 540), (960, 540), (960, 540), (960, 540), (960, 540), (960, 540), (960, 540), (960, 540), (960, 540), (960, 540), (960, 540), (960, 540), (960, 540), (960, 540), (960, 540), (960, 540), (960, 540), (960, 540), (960, 540), (960, 540), (960, 540), (960, 540), (960, 540), (960, 540), (960, 540), (960, 540), (960, 540), (960, 540), (960, 540), (960, 540), (960, 540), (960, 540), (960, 540), (960, 540), (960, 540), (960, 540), (960, 540), (960, 540), (960, 540), (962, 540), (969, 540), (981, 541), (1049, 582), (1098, 613), (1153, 644), (1205, 676), (1328, 745)]",29.12065869226248,"[1, 9, 3, 8, 5, 7, 6, 2, 4]","(0, 0.25)",THI002A,THI,A,English,Mon Aug 06 16:09:14 2018,Mouse
1,2,1,0,76,3,3,1,468,387,81,135,0,500,200,8000,"[(960, 540), (960, 540), (960, 540), (960, 540), (960, 540), (960, 540), (960, 540), (960, 540), (960, 540), (960, 540), (960, 540), (960, 540), (960, 540), (960, 540), (960, 540), (960, 540), (960, 540), (960, 540), (960, 540), (960, 540), (960, 540), (960, 540), (960, 540), (960, 540), (960, 540), (960, 540), (960, 540), (960, 540), (960, 540), (960, 540), (960, 540), (960, 540), (960, 540), (960, 540), (960, 540), (960, 540), (960, 540), (960, 540), (955, 553), (951, 572), (945, 613), (938, 659), (926, 761), (918, 804), (911, 850), (905, 896), (896, 968)]",98.50457924087881,"[1, 9, 3, 8, 5, 7, 6, 2, 4]","(0, 0.25)",THI002A,THI,A,English,Mon Aug 06 16:09:14 2018,Mouse
1,2,1,0,77,1,1,1,389,309,80,135,0,500,200,8000,"[(960, 540), (960, 540), (960, 540), (960, 540), (960, 540), (960, 540), (960, 540), (960, 540), (960, 540), (960, 540), (960, 540), (960, 540), (960, 540), (960, 540), (960, 540), (960, 540), (960, 540), (960, 540), (960, 540), (960, 540), (960, 540), (960, 540), (960, 540), (960, 540), (960, 540), (960, 540), (960, 540), (960, 540), (960, 540), (960, 540), (967, 543), (981, 554), (1006, 573), (1037, 594), (1121, 639), (1170, 659), (1220, 678), (1273, 692), (1377, 720)]",23.347668528091084,"[1, 9, 3, 8, 5, 7, 6, 2, 4]","(0, 0.25)",THI002A,THI,A,English,Mon Aug 06 16:09:14 2018,Mouse
1,2,1,0,78,4,4,1,918,638,280,134,0,500,200,8000,"[(960, 540), (960, 540), (960, 540), (960, 540), (960, 540), (960, 540), (960, 540), (960, 540), (960, 540), (960, 540), (960, 540), (960, 540), (960, 540), (960, 540), (960, 540), (960, 540), (960, 540), (960, 540), (960, 540), (960, 540), (960, 540), (960, 540), (960, 540), (960, 540), (960, 540), (960, 540), (960, 540), (960, 540), (960, 540), (960, 540), (960, 540), (960, 540), (960, 540), (960, 540), (960, 540), (960, 540), (960, 540), (960, 540), (960, 540), (960, 540), (960, 540), (960, 540), (960, 540), (960, 540), (960, 540), (960, 540), (960, 540), (960, 540), (960, 540), (960, 540), (960, 540), (960, 540), (960, 540), (960, 540), (960, 540), (960, 540), (960, 540), (960, 540), (960, 540), (960, 540), (960, 540), (960, 540), (960, 540), (960, 541), (960, 543), (959, 544), (959, 545), (959, 545), (959, 545), (959, 545), (959, 545), (959, 545), (959, 545), (959, 545), (959, 545), (959, 545), (959, 545), (959, 545), (959, 545), (959, 545), (959, 545), (959, 545), (959, 545), (960, 545), (967, 539), (978, 532), (1013, 515), (1042, 503), (1081, 488), (1141, 475), (1285, 438), (1356, 421)]",343.2742115105448,"[1, 9, 3, 8, 5, 7, 6, 2, 4]","(0, 0.25)",THI002A,THI,A,English,Mon Aug 06 16:09:14 2018,Mouse
1,2,1,0,79,6,1,0,-359,259,100,133,0,500,200,8000,"[(960, 540), (960, 540), (960, 540), (960, 540), (960, 540), (960, 540), (960, 540), (960, 540), (960, 540), (960, 540), (960, 540), (960, 540), (960, 540), (960, 540), (960, 540), (960, 540), (960, 540), (960, 540), (960, 540), (960, 540), (960, 540), (960, 540), (960, 540), (960, 540), (960, 540), (964, 540), (971, 540), (982, 541), (1000, 546), (1060, 567), (1098, 588), (1139, 611), (1181, 641), (1267, 704), (1311, 727), (1352, 751)]",28.29203892756563,"[1, 9, 3, 8, 5, 7, 6, 2, 4]","(0, 0.25)",THI002A,THI,A,English,Mon Aug 06 16:09:14 2018,Mouse
1,2,1,0,80,3,3,1,261,171,90,134,0,500,200,8000,"[(960, 540), (960, 540), (960, 540), (960, 540), (960, 540), (960, 540), (960, 540), (960, 540), (960, 540), (960, 540), (960, 540), (960, 540), (960, 540), (960, 540), (960, 540), (960, 540), (960, 540), (960, 541), (960, 543), (960, 550), (960, 561), (953, 625), (945, 677), (937, 747), (931, 809), (921, 919), (921, 958)]",95.33034704282409,"[1, 9, 3, 8, 5, 7, 6, 2, 4]","(0, 0.25)",THI002A,THI,A,English,Mon Aug 06 16:09:14 2018,Mouse
