NativeLangNumber,LanuageNumber,SessionNumber,Block,TrialNum,ConditionNumber,Response,Accuracy,RT,MovementOnsetTime,TimeInMotion,SignalContrast,SignalContrastNumber,StimDisplayTime,MaskTime,MaxResponseTime,MousePositionXY,MouseAngle,WheelOrder,NoiseMuSigma,ParticipantID,LanuageTested,SessionTested,NativeLanuage,Date,ResponseDevice
1,2,4,0,1,2,2,1,805,735,70,153,0,500,200,8000,"[(960, 540), (960, 540), (960, 540), (960, 540), (960, 540), (960, 540), (960, 540), (960, 540), (960, 540), (960, 540), (960, 540), (960, 540), (960, 540), (960, 540), (960, 540), (960, 540), (960, 540), (960, 540), (960, 540), (960, 540), (960, 540), (960, 540), (960, 540), (960, 540), (960, 540), (960, 540), (960, 540), (960, 540), (960, 540), (960, 540), (960, 540), (960, 540), (960, 540), (960, 540), (960, 540), (960, 540), (960, 540), (960, 540), (960, 540), (960, 540), (960, 540), (960, 540), (960, 540), (960, 540), (960, 540), (960, 540), (960, 540), (960, 540), (960, 540), (960, 540), (960, 540), (960, 540), (960, 540), (960, 540), (960, 540), (960, 540), (960, 540), (960, 540), (960, 540), (960, 540), (960, 540), (960, 540), (960, 540), (960, 540), (960, 540), (960, 540), (960, 540), (960, 540), (960, 540), (960, 540), (960, 540), (960, 540), (960, 540), (962, 526), (971, 505), (982, 479), (1025, 375), (1055, 315), (1082, 263), (1117, 213), (1189, 120)]",298.6009008106129,"[5, 1, 6, 4, 9, 8, 7, 2, 3]","(0, 0.25)",THI003D,THI,D,English,Tue Aug 14 11:58:26 2018,Mouse
1,2,4,0,2,7,7,1,398,228,170,153,0,500,200,8000,"[(960, 540), (960, 540), (960, 540), (960, 540), (960, 540), (960, 540), (960, 540), (960, 540), (960, 540), (960, 540), (960, 540), (960, 540), (960, 540), (960, 540), (960, 540), (960, 540), (960, 540), (960, 540), (960, 540), (960, 540), (960, 540), (960, 540), (959, 540), (959, 540), (959, 540), (959, 540), (959, 540), (959, 540), (959, 540), (959, 540), (959, 540), (959, 540), (959, 538), (957, 534), (955, 523), (946, 463), (936, 395), (914, 321), (892, 249), (851, 108)]",255.83899727467494,"[5, 1, 6, 4, 9, 8, 7, 2, 3]","(0, 0.25)",THI003D,THI,D,English,Tue Aug 14 11:58:26 2018,Mouse
1,2,4,0,3,4,4,1,760,670,90,152,0,500,200,8000,"[(960, 540), (960, 540), (960, 540), (960, 540), (960, 540), (960, 540), (960, 540), (960, 540), (960, 540), (960, 540), (960, 540), (960, 540), (960, 540), (960, 540), (960, 540), (960, 540), (960, 540), (960, 540), (960, 540), (960, 540), (960, 540), (960, 540), (960, 540), (960, 540), (960, 540), (960, 540), (960, 540), (960, 540), (960, 540), (960, 540), (960, 540), (960, 540), (960, 540), (960, 540), (960, 540), (960, 540), (960, 540), (960, 540), (960, 540), (960, 540), (960, 540), (960, 540), (960, 540), (960, 540), (960, 540), (960, 540), (960, 540), (960, 540), (960, 540), (960, 540), (960, 540), (960, 540), (960, 540), (960, 540), (960, 540), (960, 540), (960, 540), (960, 540), (960, 540), (960, 540), (960, 540), (960, 540), (960, 540), (960, 540), (960, 540), (960, 540), (957, 540), (953, 545), (943, 548), (920, 570), (906, 587), (880, 619), (844, 656), (802, 702), (708, 788), (657, 832)]",136.0591290519053,"[5, 1, 6, 4, 9, 8, 7, 2, 3]","(0, 0.25)",THI003D,THI,D,English,Tue Aug 14 11:58:26 2018,Mouse
1,2,4,0,4,7,2,0,-509,459,50,151,0,500,200,8000,"[(960, 540), (960, 540), (960, 540), (960, 540), (960, 540), (960, 540), (960, 540), (960, 540), (960, 540), (960, 540), (960, 540), (960, 540), (960, 540), (960, 540), (960, 540), (960, 540), (960, 540), (960, 540), (960, 540), (960, 540), (960, 540), (960, 540), (960, 540), (960, 540), (960, 540), (960, 540), (960, 540), (960, 540), (960, 540), (960, 540), (960, 540), (960, 540), (960, 540), (960, 540), (960, 540), (960, 540), (960, 540), (960, 540), (960, 540), (960, 540), (960, 540), (960, 540), (960, 540), (960, 540), (960, 540), (970, 525), (982, 494), (1007, 442), (1064, 302), (1098, 218), (1123, 130)]",291.6808377377469,"[5, 1, 6, 4, 9, 8, 7, 2, 3]","(0, 0.25)",THI003D,THI,D,English,Tue Aug 14 11:58:26 2018,Mouse
1,2,4,0,5,1,1,1,420,360,60,152,0,500,200,8000,"[(960, 540), (960, 540), (960, 540), (960, 540), (960, 540), (960, 540), (960, 540), (960, 540), (960, 540), (960, 540), (960, 540), (960, 540), (960, 540), (960, 540), (960, 540), (960, 540), (960, 540), (960, 540), (960, 540), (960, 540), (960, 540), (960, 540), (960, 540), (960, 540), (960, 540), (960, 540), (960, 540), (960, 540), (960, 540), (960, 540), (960, 540), (960, 540), (960, 540), (960, 540), (960, 540), (960, 543), (967, 562), (979, 589), (1014, 639), (1066, 714), (1161, 863), (1179, 911)]",59.446795370936165,"[5, 1, 6, 4, 9, 8, 7, 2, 3]","(0, 0.25)",THI003D,THI,D,English,Tue Aug 14 11:58:26 2018,Mouse
1,2,4,0,6,4,4,1,649,399,250,152,0,500,200,8000,"[(960, 540), (960, 540), (960, 540), (960, 540), (960, 540), (960, 540), (960, 540), (960, 540), (960, 540), (960, 540), (960, 540), (960, 540), (960, 540), (960, 540), (960, 540), (960, 540), (960, 540), (960, 540), (960, 540), (960, 540), (960, 540), (960, 540), (960, 540), (960, 540), (960, 540), (960, 540), (960, 540), (960, 540), (960, 540), (960, 540), (960, 540), (960, 540), (960, 540), (960, 540), (960, 540), (960, 540), (960, 540), (960, 540), (960, 540), (959, 540), (957, 541), (955, 542), (953, 544), (953, 544), (951, 545), (951, 545), (951, 545), (951, 545), (951, 545), (950, 546), (946, 549), (943, 550), (937, 553), (922, 563), (913, 568), (902, 576), (886, 588), (840, 624), (808, 650), (777, 674), (746, 696), (688, 735), (661, 750), (634, 763), (607, 779)]",145.8998850995939,"[5, 1, 6, 4, 9, 8, 7, 2, 3]","(0, 0.25)",THI003D,THI,D,English,Tue Aug 14 11:58:26 2018,Mouse
1,2,4,0,7,1,1,1,1189,849,340,151,0,500,200,8000,"[(960, 540), (960, 540), (960, 540), (960, 540), (960, 540), (960, 540), (960, 540), (960, 540), (960, 540), (960, 540), (960, 540), (960, 540), (960, 540), (960, 540), (960, 540), (960, 540), (960, 540), (960, 540), (960, 540), (960, 540), (960, 540), (960, 540), (960, 540), (960, 540), (960, 540), (960, 540), (960, 540), (960, 540), (960, 540), (960, 540), (960, 540), (960, 540), (960, 540), (960, 540), (960, 540), (960, 540), (960, 540), (960, 540), (960, 540), (960, 540), (960, 540), (960, 540), (960, 540), (960, 540), (960, 540), (960, 540), (960, 540), (960, 540), (960, 540), (960, 540), (960, 540), (960, 540), (960, 540), (960, 540), (960, 540), (960, 540), (960, 540), (960, 540), (960, 540), (960, 540), (960, 540), (960, 540), (960, 540), (960, 540), (960, 540), (960, 540), (960, 540), (960, 540), (960, 540), (960, 540), (960, 540), (960, 540), (960, 540), (960, 540), (960, 540), (960, 540), (960, 540), (960, 540), (960, 540), (960, 540), (960, 540), (960, 540), (960, 540), (960, 540), (960, 541), (960, 541), (960, 541), (960, 543), (960, 543), (960, 543), (960, 543), (960, 543), (960, 543), (960, 543), (960, 543), (960, 543), (960, 543), (960, 543), (960, 543), (960, 543), (960, 543), (960, 543), (960, 543), (960, 543), (960, 543), (960, 544), (960, 544), (960, 546), (960, 547), (960, 547), (960, 549), (960, 550), (960, 554), (960, 558), (966, 570), (1000, 643), (1032, 732), (1068, 821), (1123, 928)]",67.2125733888833,"[5, 1, 6, 4, 9, 8, 7, 2, 3]","(0, 0.25)",THI003D,THI,D,English,Tue Aug 14 11:58:26 2018,Mouse
1,2,4,0,8,2,2,1,4750,2210,2540,150,0,500,200,8000,"[(960, 540), (960, 540), (960, 540), (960, 540), (960, 540), (960, 540), (960, 540), (960, 540), (960, 540), (960, 540), (960, 540), (960, 540), (960, 540), (960, 540), (960, 540), (960, 540), (960, 540), (960, 540), (960, 540), (960, 540), (960, 540), (960, 540), (960, 540), (960, 540), (960, 540), (960, 540), (960, 540), (960, 540), (960, 540), (960, 540), (960, 540), (960, 540), (960, 540), (960, 540), (960, 540), (960, 540), (960, 540), (960, 540), (960, 540), (960, 540), (960, 540), (960, 540), (960, 540), (960, 540), (960, 540), (960, 540), (960, 540), (960, 540), (960, 540), (960, 540), (960, 540), (960, 540), (960, 540), (960, 540), (960, 540), (960, 540), (960, 540), (960, 540), (960, 540), (960, 540), (960, 540), (960, 540), (960, 540), (960, 540), (960, 540), (960, 540), (960, 540), (960, 540), (960, 540), (960, 540), (960, 540), (960, 540), (960, 540), (960, 540), (960, 540), (960, 540), (960, 540), (960, 540), (960, 540), (960, 540), (960, 540), (960, 540), (960, 540), (960, 540), (960, 540), (960, 540), (960, 540), (960, 540), (960, 540), (960, 540), (960, 540), (960, 540), (960, 540), (960, 540), (960, 540), (960, 540), (960, 540), (960, 540), (960, 540), (960, 540), (960, 540), (960, 540), (960, 540), (960, 540), (960, 540), (960, 540), (960, 540), (960, 540), (960, 540), (960, 540), (960, 540), (960, 540), (960, 540), (960, 540), (960, 540), (960, 540), (960, 540), (960, 540), (960, 540), (960, 540), (960, 540), (960, 540), (960, 540), (960, 540), (960, 540), (960, 540), (960, 540), (960, 540), (960, 540), (960, 540), (960, 540), (960, 540), (960, 540), (960, 540), (960, 540), (960, 540), (960, 540), (960, 540), (960, 540), (960, 540), (960, 540), (960, 540), (960, 540), (960, 540), (960, 540), (960, 540), (960, 540), (960, 540), (960, 540), (960, 540), (960, 540), (960, 540), (960, 540), (960, 540), (960, 540), (960, 540), (960, 540), (960, 540), (960, 540), (960, 540), (960, 540), (960, 540), (960, 540), (960, 540), (960, 540), (960, 540), (960, 540), (960, 540), (960, 540), (960, 540), (960, 540), (960, 540), (960, 540), (960, 540), (960, 540), (960, 540), (960, 540), (960, 540), (960, 540), (960, 540), (960, 540), (960, 540), (960, 540), (960, 540), (960, 540), (960, 540), (960, 540), (960, 540), (960, 540), (960, 540), (960, 540), (960, 540), (960, 540), (960, 540), (960, 540), (960, 540), (960, 540), (960, 540), (960, 540), (960, 540), (960, 540), (960, 540), (960, 540), (960, 540), (960, 540), (960, 540), (960, 540), (960, 540), (960, 540), (960, 540), (960, 540), (960, 540), (960, 540), (960, 540), (960, 540), (960, 540), (960, 540), (960, 540), (960, 540), (960, 540), (961, 538), (961, 538), (961, 537), (961, 537), (961, 536), (961, 536), (961, 536), (961, 536), (961, 536), (961, 536), (961, 536), (961, 536), (961, 536), (961, 536), (961, 536), (961, 536), (961, 536), (961, 536), (961, 536), (961, 536), (961, 536), (961, 536), (961, 536), (961, 536), (961, 536), (961, 536), (961, 536), (961, 536), (961, 536), (961, 536), (961, 536), (961, 536), (961, 536), (961, 536), (961, 536), (961, 536), (961, 536), (961, 536), (961, 536), (961, 536), (961, 536), (961, 536), (961, 536), (961, 536), (961, 536), (961, 536), (961, 536), (961, 536), (961, 536), (961, 536), (961, 536), (961, 536), (961, 536), (961, 536), (961, 536), (961, 536), (961, 536), (961, 536), (961, 536), (961, 536), (961, 536), (961, 536), (961, 536), (961, 536), (961, 536), (961, 536), (961, 536), (961, 536), (961, 536), (961, 536), (961, 536), (961, 536), (961, 536), (961, 536), (961, 536), (961, 536), (961, 536), (961, 536), (961, 536), (961, 536), (961, 536), (961, 536), (961, 536), (961, 536), (961, 536), (961, 536), (961, 536), (961, 536), (961, 536), (961, 536), (961, 536), (961, 536), (961, 536), (961, 536), (961, 536), (961, 536), (961, 536), (961, 536), (961, 536), (961, 536), (961, 536), (961, 536), (961, 536), (961, 536), (961, 536), (961, 536), (961, 536), (961, 536), (961, 536), (961, 536), (961, 536), (961, 536), (961, 536), (961, 536), (961, 536), (961, 536), (961, 536), (961, 536), (961, 536), (961, 536), (961, 536), (961, 536), (961, 536), (961, 536), (961, 536), (961, 536), (961, 536), (961, 536), (961, 536), (961, 536), (961, 536), (961, 536), (961, 536), (961, 536), (961, 536), (961, 536), (961, 536), (961, 536), (961, 536), (961, 536), (961, 536), (961, 536), (961, 536), (961, 536), (961, 536), (961, 536), (961, 536), (961, 536), (961, 536), (961, 536), (961, 536), (961, 536), (961, 536), (961, 536), (961, 536), (961, 536), (961, 536), (961, 536), (961, 536), (961, 536), (961, 536), (961, 536), (961, 536), (961, 536), (961, 536), (961, 536), (961, 536), (961, 536), (961, 536), (961, 536), (961, 536), (961, 536), (961, 536), (961, 536), (961, 536), (961, 536), (961, 536), (961, 536), (961, 536), (961, 536), (961, 536), (961, 536), (961, 536), (961, 536), (961, 536), (961, 536), (961, 536), (961, 536), (961, 536), (961, 536), (961, 536), (961, 536), (961, 536), (961, 536), (961, 536), (961, 536), (961, 536), (961, 536), (961, 536), (961, 536), (961, 536), (961, 536), (961, 536), (961, 536), (961, 536), (961, 536), (961, 536), (961, 536), (961, 536), (961, 536), (961, 536), (961, 536), (961, 536), (961, 536), (961, 536), (961, 536), (961, 536), (961, 536), (961, 536), (961, 536), (961, 536), (961, 536), (961, 536), (961, 536), (961, 536), (961, 536), (961, 536), (961, 536), (961, 536), (961, 536), (961, 536), (961, 536), (961, 536), (961, 536), (961, 536), (961, 536), (961, 536), (961, 536), (961, 536), (961, 536), (962, 534), (962, 534), (963, 533), (963, 531), (965, 529), (966, 526), (969, 521), (982, 501), (990, 487), (1001, 466), (1015, 441), (1060, 339), (1090, 274), (1121, 204), (1151, 144)]",295.7490932066487,"[5, 1, 6, 4, 9, 8, 7, 2, 3]","(0, 0.25)",THI003D,THI,D,English,Tue Aug 14 11:58:26 2018,Mouse
1,2,4,0,9,9,9,1,939,849,90,149,0,500,200,8000,"[(960, 540), (960, 540), (960, 540), (960, 540), (960, 540), (960, 540), (960, 540), (960, 540), (960, 540), (960, 540), (960, 540), (960, 540), (960, 540), (960, 540), (960, 540), (960, 540), (960, 540), (960, 540), (960, 540), (960, 540), (960, 540), (960, 540), (960, 540), (960, 540), (960, 540), (960, 540), (960, 540), (960, 540), (960, 540), (960, 540), (960, 540), (960, 540), (960, 540), (960, 540), (960, 540), (960, 540), (960, 540), (960, 540), (960, 540), (960, 540), (960, 540), (960, 540), (960, 540), (960, 540), (960, 540), (960, 540), (960, 540), (960, 540), (960, 540), (960, 540), (960, 540), (960, 540), (960, 540), (960, 540), (960, 540), (960, 540), (960, 540), (960, 540), (960, 540), (960, 540), (960, 540), (960, 540), (960, 540), (960, 540), (960, 540), (960, 540), (960, 540), (960, 540), (960, 540), (960, 540), (960, 540), (960, 540), (960, 540), (960, 540), (960, 540), (960, 540), (960, 540), (960, 540), (960, 540), (960, 540), (960, 540), (960, 540), (960, 540), (960, 540), (958, 541), (952, 542), (938, 542), (892, 542), (861, 542), (828, 542), (775, 542), (659, 542), (601, 542), (545, 542)]",179.72387789905451,"[5, 1, 6, 4, 9, 8, 7, 2, 3]","(0, 0.25)",THI003D,THI,D,English,Tue Aug 14 11:58:26 2018,Mouse
1,2,4,0,10,4,4,1,370,270,100,148,0,500,200,8000,"[(960, 540), (960, 540), (960, 540), (960, 540), (960, 540), (960, 540), (960, 540), (960, 540), (960, 540), (960, 540), (960, 540), (960, 540), (960, 540), (960, 540), (960, 540), (960, 540), (960, 540), (960, 540), (960, 540), (960, 540), (960, 540), (960, 540), (960, 540), (960, 540), (960, 540), (960, 540), (960, 541), (956, 545), (940, 558), (928, 567), (910, 584), (884, 605), (821, 652), (779, 684), (738, 714), (691, 743), (603, 796)]",144.35619095693306,"[5, 1, 6, 4, 9, 8, 7, 2, 3]","(0, 0.25)",THI003D,THI,D,English,Tue Aug 14 11:58:26 2018,Mouse
1,2,4,0,11,9,4,0,-229,29,200,147,0,500,200,8000,"[(960, 540), (960, 540), (960, 541), (960, 541), (960, 541), (960, 542), (960, 542), (960, 544), (960, 546), (959, 548), (954, 555), (952, 558), (947, 564), (943, 568), (926, 587), (916, 598), (896, 612), (873, 628), (811, 676), (767, 704), (719, 739), (673, 765), (581, 813)]",144.23416699978185,"[5, 1, 6, 4, 9, 8, 7, 2, 3]","(0, 0.25)",THI003D,THI,D,English,Tue Aug 14 11:58:26 2018,Mouse
1,2,4,0,12,4,4,1,390,250,140,148,0,500,200,8000,"[(960, 540), (960, 540), (960, 540), (960, 540), (960, 540), (960, 540), (960, 540), (960, 540), (960, 540), (960, 540), (960, 540), (960, 540), (960, 540), (960, 540), (960, 540), (960, 540), (960, 540), (960, 540), (960, 540), (960, 540), (960, 540), (960, 540), (960, 540), (960, 540), (959, 543), (956, 545), (939, 560), (926, 569), (908, 582), (888, 599), (841, 639), (815, 662), (791, 682), (765, 705), (724, 737), (703, 757), (680, 775), (655, 796), (610, 826)]",140.74626920979622,"[5, 1, 6, 4, 9, 8, 7, 2, 3]","(0, 0.25)",THI003D,THI,D,English,Tue Aug 14 11:58:26 2018,Mouse
1,2,4,0,13,6,6,1,509,389,120,148,0,500,200,8000,"[(960, 540), (960, 540), (960, 540), (960, 540), (960, 540), (960, 540), (960, 540), (960, 540), (960, 540), (960, 540), (960, 540), (960, 540), (960, 540), (960, 540), (960, 540), (960, 540), (960, 540), (960, 540), (960, 540), (960, 540), (960, 540), (960, 540), (960, 540), (960, 540), (960, 540), (960, 540), (960, 540), (960, 540), (960, 540), (960, 540), (960, 540), (960, 540), (960, 540), (960, 540), (960, 540), (960, 540), (960, 540), (960, 540), (960, 541), (957, 550), (955, 559), (951, 572), (948, 590), (935, 639), (927, 670), (916, 703), (905, 742), (880, 828), (869, 875), (855, 920), (842, 959)]",105.72843595521918,"[5, 1, 6, 4, 9, 8, 7, 2, 3]","(0, 0.25)",THI003D,THI,D,English,Tue Aug 14 11:58:26 2018,Mouse
1,2,4,0,14,2,2,1,580,500,80,147,0,500,200,8000,"[(960, 540), (960, 540), (960, 540), (960, 540), (960, 540), (960, 540), (960, 540), (960, 540), (960, 540), (960, 540), (960, 540), (960, 540), (960, 540), (960, 540), (960, 540), (960, 540), (960, 540), (960, 540), (960, 540), (960, 540), (960, 540), (960, 540), (960, 540), (960, 540), (960, 540), (960, 540), (960, 540), (960, 540), (960, 540), (960, 540), (960, 540), (960, 540), (960, 540), (960, 540), (960, 540), (960, 540), (960, 540), (960, 540), (960, 540), (960, 540), (960, 540), (960, 540), (960, 540), (960, 540), (960, 540), (960, 540), (960, 540), (960, 540), (960, 540), (961, 540), (979, 511), (994, 472), (1016, 421), (1039, 370), (1061, 324), (1106, 240), (1118, 190), (1126, 160)]",293.59773134916736,"[5, 1, 6, 4, 9, 8, 7, 2, 3]","(0, 0.25)",THI003D,THI,D,English,Tue Aug 14 11:58:26 2018,Mouse
1,2,4,0,15,8,8,1,1899,879,1020,146,0,500,200,8000,"[(960, 540), (960, 540), (960, 540), (960, 540), (960, 540), (960, 540), (960, 540), (960, 540), (960, 540), (960, 540), (960, 540), (960, 540), (960, 540), (960, 540), (960, 540), (960, 540), (960, 540), (960, 540), (960, 540), (960, 540), (960, 540), (960, 540), (960, 540), (960, 540), (960, 540), (960, 540), (960, 540), (960, 540), (960, 540), (960, 540), (960, 540), (960, 540), (960, 540), (960, 540), (960, 540), (960, 540), (960, 540), (960, 540), (960, 540), (960, 540), (960, 540), (960, 540), (960, 540), (960, 540), (960, 540), (960, 540), (960, 540), (960, 540), (960, 540), (960, 540), (960, 540), (960, 540), (960, 540), (960, 540), (960, 540), (960, 540), (960, 540), (960, 540), (960, 540), (960, 540), (960, 540), (960, 540), (960, 540), (960, 540), (960, 540), (960, 540), (960, 540), (960, 540), (960, 540), (960, 540), (960, 540), (960, 540), (960, 540), (960, 540), (960, 540), (960, 540), (960, 540), (960, 540), (960, 540), (960, 540), (960, 540), (960, 540), (960, 540), (960, 540), (960, 540), (960, 540), (960, 540), (963, 541), (965, 542), (965, 542), (965, 542), (965, 542), (965, 542), (965, 542), (965, 542), (965, 542), (965, 542), (965, 542), (965, 542), (965, 542), (965, 542), (965, 542), (965, 542), (965, 542), (965, 542), (965, 542), (965, 542), (965, 542), (965, 542), (965, 542), (965, 542), (965, 542), (965, 542), (965, 542), (965, 542), (965, 542), (965, 542), (965, 542), (965, 542), (959, 544), (958, 544), (958, 544), (958, 544), (958, 544), (958, 544), (958, 544), (958, 544), (958, 544), (958, 544), (958, 544), (958, 544), (958, 544), (958, 544), (958, 544), (958, 544), (958, 544), (958, 544), (958, 544), (958, 544), (958, 544), (958, 544), (958, 544), (958, 544), (958, 544), (958, 544), (958, 544), (958, 544), (958, 544), (958, 544), (958, 544), (958, 544), (958, 544), (958, 544), (958, 544), (958, 544), (958, 544), (958, 544), (958, 544), (958, 544), (958, 544), (958, 544), (958, 544), (958, 544), (958, 544), (958, 544), (958, 544), (958, 544), (958, 544), (958, 544), (958, 544), (958, 544), (958, 544), (958, 544), (958, 544), (958, 544), (958, 544), (958, 544), (958, 544), (958, 544), (958, 544), (947, 538), (941, 529), (934, 512), (920, 467), (895, 429), (866, 392), (832, 355), (749, 275), (704, 238), (656, 196)]",228.5322945838909,"[5, 1, 6, 4, 9, 8, 7, 2, 3]","(0, 0.25)",THI003D,THI,D,English,Tue Aug 14 11:58:26 2018,Mouse
1,2,4,0,16,3,3,1,1109,1029,80,145,0,500,200,8000,"[(960, 540), (960, 540), (960, 540), (960, 540), (960, 540), (960, 540), (960, 540), (960, 540), (960, 540), (960, 540), (960, 540), (960, 540), (960, 540), (960, 540), (960, 540), (960, 540), (960, 540), (960, 540), (960, 540), (960, 540), (960, 540), (960, 540), (960, 540), (960, 540), (960, 540), (960, 540), (960, 540), (960, 540), (960, 540), (960, 540), (960, 540), (960, 540), (960, 540), (960, 540), (960, 540), (960, 540), (960, 540), (960, 540), (960, 540), (960, 540), (960, 540), (960, 540), (960, 540), (960, 540), (960, 540), (960, 540), (960, 540), (960, 540), (960, 540), (960, 540), (960, 540), (960, 540), (960, 540), (960, 540), (960, 540), (960, 540), (960, 540), (960, 540), (960, 540), (960, 540), (960, 540), (960, 540), (960, 540), (960, 540), (960, 540), (960, 540), (960, 540), (960, 540), (960, 540), (960, 540), (960, 540), (960, 540), (960, 540), (960, 540), (960, 540), (960, 540), (960, 540), (960, 540), (960, 540), (960, 540), (960, 540), (960, 540), (960, 540), (960, 540), (960, 540), (960, 540), (960, 540), (960, 540), (960, 540), (960, 540), (960, 540), (960, 540), (960, 540), (960, 540), (960, 540), (960, 540), (960, 540), (960, 540), (960, 540), (960, 540), (960, 540), (960, 540), (965, 540), (975, 534), (1020, 511), (1058, 495), (1100, 477), (1157, 454), (1262, 420), (1319, 399), (1375, 374)]",338.1985905136482,"[5, 1, 6, 4, 9, 8, 7, 2, 3]","(0, 0.25)",THI003D,THI,D,English,Tue Aug 14 11:58:26 2018,Mouse
1,2,4,0,17,4,4,1,368,258,110,144,0,500,200,8000,"[(960, 540), (960, 540), (960, 540), (960, 540), (960, 540), (960, 540), (960, 540), (960, 540), (960, 540), (960, 540), (960, 540), (960, 540), (960, 540), (960, 540), (960, 540), (960, 540), (960, 540), (960, 540), (960, 540), (960, 540), (960, 540), (960, 540), (960, 540), (960, 540), (960, 540), (959, 541), (956, 543), (951, 548), (935, 562), (925, 572), (914, 586), (893, 612), (844, 669), (812, 702), (775, 733), (731, 763), (646, 829)]",137.3740872782273,"[5, 1, 6, 4, 9, 8, 7, 2, 3]","(0, 0.25)",THI003D,THI,D,English,Tue Aug 14 11:58:26 2018,Mouse
1,2,4,0,18,8,8,1,958,38,920,143,0,500,200,8000,"[(960, 540), (960, 540), (960, 540), (959, 540), (959, 540), (959, 540), (959, 540), (959, 540), (959, 540), (959, 540), (959, 540), (959, 540), (959, 540), (959, 540), (959, 540), (959, 540), (959, 540), (959, 540), (959, 540), (959, 540), (959, 540), (959, 540), (959, 540), (959, 540), (959, 540), (959, 540), (959, 540), (959, 540), (959, 540), (959, 540), (959, 540), (959, 540), (959, 540), (959, 540), (959, 540), (959, 540), (959, 540), (959, 540), (959, 540), (959, 540), (959, 540), (959, 540), (959, 540), (959, 540), (959, 540), (959, 540), (959, 540), (959, 540), (959, 540), (959, 540), (959, 540), (959, 540), (959, 540), (959, 540), (959, 540), (959, 540), (959, 540), (959, 540), (959, 540), (959, 540), (959, 540), (959, 540), (959, 540), (959, 540), (959, 540), (959, 540), (959, 540), (959, 540), (959, 540), (959, 540), (959, 540), (959, 540), (959, 540), (959, 540), (959, 540), (959, 540), (959, 540), (959, 540), (959, 540), (959, 540), (959, 540), (959, 540), (959, 540), (959, 540), (959, 540), (959, 540), (959, 540), (959, 540), (957, 540), (951, 536), (938, 523), (883, 477), (844, 448), (794, 412), (741, 374), (600, 283)]",215.52261976879595,"[5, 1, 6, 4, 9, 8, 7, 2, 3]","(0, 0.25)",THI003D,THI,D,English,Tue Aug 14 11:58:26 2018,Mouse
1,2,4,0,19,4,4,1,660,540,120,142,0,500,200,8000,"[(960, 540), (960, 540), (960, 540), (960, 540), (960, 540), (960, 540), (960, 540), (960, 540), (960, 540), (960, 540), (960, 540), (960, 540), (960, 540), (960, 540), (960, 540), (960, 540), (960, 540), (960, 540), (960, 540), (960, 540), (960, 540), (960, 540), (960, 540), (960, 540), (960, 540), (960, 540), (960, 540), (960, 540), (960, 540), (960, 540), (960, 540), (960, 540), (960, 540), (960, 540), (960, 540), (960, 540), (960, 540), (960, 540), (960, 540), (960, 540), (960, 540), (960, 540), (960, 540), (960, 540), (960, 540), (960, 540), (960, 540), (960, 540), (960, 540), (960, 540), (960, 540), (960, 540), (960, 540), (960, 541), (956, 544), (951, 549), (943, 555), (931, 564), (893, 594), (870, 616), (844, 637), (816, 656), (754, 704), (714, 733), (669, 773), (624, 812)]",141.00900595749454,"[5, 1, 6, 4, 9, 8, 7, 2, 3]","(0, 0.25)",THI003D,THI,D,English,Tue Aug 14 11:58:26 2018,Mouse
1,2,4,0,20,4,4,1,299,159,140,141,0,500,200,8000,"[(960, 540), (960, 540), (960, 540), (960, 540), (960, 540), (960, 540), (960, 540), (960, 540), (960, 540), (960, 540), (960, 540), (960, 540), (960, 540), (960, 540), (960, 540), (959, 541), (958, 541), (955, 542), (949, 545), (945, 548), (938, 553), (929, 560), (903, 584), (877, 602), (845, 630), (806, 658), (730, 716), (693, 747), (656, 776), (620, 801)]",142.48845922637025,"[5, 1, 6, 4, 9, 8, 7, 2, 3]","(0, 0.25)",THI003D,THI,D,English,Tue Aug 14 11:58:26 2018,Mouse
1,2,4,0,21,1,1,1,469,389,80,140,0,500,200,8000,"[(960, 540), (960, 540), (960, 540), (960, 540), (960, 540), (960, 540), (960, 540), (960, 540), (960, 540), (960, 540), (960, 540), (960, 540), (960, 540), (960, 540), (960, 540), (960, 540), (960, 540), (960, 540), (960, 540), (960, 540), (960, 540), (960, 540), (960, 540), (960, 540), (960, 540), (960, 540), (960, 540), (960, 540), (960, 540), (960, 540), (960, 540), (960, 540), (960, 540), (960, 540), (960, 540), (960, 540), (960, 540), (960, 540), (961, 542), (961, 558), (963, 571), (970, 594), (983, 635), (1027, 750), (1053, 815), (1087, 891), (1115, 958)]",69.65454477807499,"[5, 1, 6, 4, 9, 8, 7, 2, 3]","(0, 0.25)",THI003D,THI,D,English,Tue Aug 14 11:58:26 2018,Mouse
1,2,4,0,22,1,1,1,660,170,490,139,0,500,200,8000,"[(960, 540), (960, 540), (960, 540), (960, 540), (960, 540), (960, 540), (960, 540), (960, 540), (960, 540), (960, 540), (960, 540), (960, 540), (960, 540), (960, 540), (960, 540), (960, 540), (961, 544), (963, 554), (968, 568), (983, 614), (995, 640), (1009, 672), (1020, 698), (1041, 741), (1049, 754), (1060, 773), (1071, 787), (1088, 811), (1096, 820), (1104, 829), (1111, 836), (1120, 845), (1123, 849), (1124, 851), (1126, 854), (1129, 858), (1131, 860), (1132, 861), (1134, 861), (1138, 861), (1141, 859), (1143, 854), (1143, 853), (1143, 853), (1143, 853), (1143, 853), (1143, 853), (1143, 853), (1143, 853), (1143, 853), (1143, 853), (1143, 853), (1143, 853), (1143, 853), (1143, 853), (1143, 853), (1143, 853), (1143, 853), (1143, 853), (1143, 853), (1143, 853), (1143, 853), (1145, 853), (1155, 862), (1160, 875), (1163, 886)]",59.599629725788716,"[5, 1, 6, 4, 9, 8, 7, 2, 3]","(0, 0.25)",THI003D,THI,D,English,Tue Aug 14 11:58:26 2018,Mouse
1,2,4,0,23,2,2,1,610,560,50,138,0,500,200,8000,"[(960, 540), (960, 540), (960, 540), (960, 540), (960, 540), (960, 540), (960, 540), (960, 540), (960, 540), (960, 540), (960, 540), (960, 540), (960, 540), (960, 540), (960, 540), (960, 540), (960, 540), (960, 540), (960, 540), (960, 540), (960, 540), (960, 540), (960, 540), (960, 540), (960, 540), (960, 540), (960, 540), (960, 540), (960, 540), (960, 540), (960, 540), (960, 540), (960, 540), (960, 540), (960, 540), (960, 540), (960, 540), (960, 540), (960, 540), (960, 540), (960, 540), (960, 540), (960, 540), (960, 540), (960, 540), (960, 540), (960, 540), (960, 540), (960, 540), (960, 540), (960, 540), (960, 540), (960, 540), (960, 540), (960, 540), (966, 534), (1006, 468), (1042, 413), (1096, 349), (1159, 281), (1292, 129)]",308.93078834188344,"[5, 1, 6, 4, 9, 8, 7, 2, 3]","(0, 0.25)",THI003D,THI,D,English,Tue Aug 14 11:58:26 2018,Mouse
1,2,4,0,24,6,6,1,368,208,160,137,0,500,200,8000,"[(960, 540), (960, 540), (960, 540), (960, 540), (960, 540), (960, 540), (960, 540), (960, 540), (960, 540), (960, 540), (960, 540), (960, 540), (960, 540), (960, 540), (960, 540), (960, 540), (960, 540), (960, 540), (960, 540), (960, 540), (960, 539), (960, 539), (960, 538), (960, 538), (960, 538), (960, 538), (960, 538), (960, 538), (959, 537), (954, 542), (946, 552), (930, 602), (922, 651), (913, 711), (913, 780), (913, 926), (911, 1004)]",96.0282888082966,"[5, 1, 6, 4, 9, 8, 7, 2, 3]","(0, 0.25)",THI003D,THI,D,English,Tue Aug 14 11:58:26 2018,Mouse
1,2,4,0,25,6,6,1,400,339,61,136,0,500,200,8000,"[(960, 540), (960, 540), (960, 540), (960, 540), (960, 540), (960, 540), (960, 540), (960, 540), (960, 540), (960, 540), (960, 540), (960, 540), (960, 540), (960, 540), (960, 540), (960, 540), (960, 540), (960, 540), (960, 540), (960, 540), (960, 540), (960, 540), (960, 540), (960, 540), (960, 540), (960, 540), (960, 540), (960, 540), (960, 540), (960, 540), (960, 540), (960, 540), (960, 540), (954, 553), (950, 575), (943, 613), (937, 672), (918, 799), (900, 874), (883, 945)]",100.76479402869955,"[5, 1, 6, 4, 9, 8, 7, 2, 3]","(0, 0.25)",THI003D,THI,D,English,Tue Aug 14 11:58:26 2018,Mouse
1,2,4,0,26,5,5,1,1919,759,1160,135,0,500,200,8000,"[(960, 540), (960, 540), (960, 540), (960, 540), (960, 540), (960, 540), (960, 540), (960, 540), (960, 540), (960, 540), (960, 540), (960, 540), (960, 540), (960, 540), (960, 540), (960, 540), (960, 540), (960, 540), (960, 540), (960, 540), (960, 540), (960, 540), (960, 540), (960, 540), (960, 540), (960, 540), (960, 540), (960, 540), (960, 540), (960, 540), (960, 540), (960, 540), (960, 540), (960, 540), (960, 540), (960, 540), (960, 540), (960, 540), (960, 540), (960, 540), (960, 540), (960, 540), (960, 540), (960, 540), (960, 540), (960, 540), (960, 540), (960, 540), (960, 540), (960, 540), (960, 540), (960, 540), (960, 540), (960, 540), (960, 540), (960, 540), (960, 540), (960, 540), (960, 540), (960, 540), (960, 540), (960, 540), (960, 540), (960, 540), (960, 540), (960, 540), (960, 540), (960, 540), (960, 540), (960, 540), (960, 540), (960, 540), (960, 540), (960, 540), (960, 540), (961, 539), (952, 516), (937, 494), (924, 465), (890, 405), (874, 375), (861, 346), (851, 320), (838, 285), (832, 265), (830, 255), (826, 244), (824, 229), (824, 224), (824, 224), (824, 222), (824, 222), (824, 222), (824, 222), (824, 222), (824, 222), (824, 222), (824, 222), (824, 222), (824, 222), (824, 222), (824, 222), (824, 222), (824, 222), (824, 222), (824, 222), (824, 222), (824, 222), (824, 222), (824, 222), (824, 222), (824, 222), (824, 222), (824, 222), (824, 222), (824, 222), (824, 222), (824, 222), (824, 222), (824, 222), (824, 222), (824, 222), (824, 222), (824, 222), (824, 222), (824, 222), (824, 222), (824, 222), (824, 222), (824, 222), (824, 222), (824, 222), (824, 222), (824, 222), (824, 222), (824, 222), (824, 222), (824, 222), (824, 222), (824, 222), (824, 222), (824, 222), (824, 222), (824, 222), (824, 222), (824, 222), (824, 222), (824, 222), (824, 222), (824, 222), (824, 222), (824, 222), (824, 222), (824, 222), (824, 222), (824, 222), (824, 222), (824, 222), (824, 222), (824, 222), (824, 222), (824, 222), (824, 222), (824, 222), (824, 222), (824, 222), (824, 222), (824, 222), (824, 222), (824, 222), (824, 222), (824, 222), (824, 222), (824, 222), (824, 222), (824, 223), (824, 225), (826, 227), (830, 231), (832, 233), (840, 239), (847, 246), (856, 253), (885, 272), (913, 293), (952, 320), (1002, 353), (1114, 419), (1176, 449), (1247, 485), (1323, 516), (1458, 577)]",4.249108359393027,"[5, 1, 6, 4, 9, 8, 7, 2, 3]","(0, 0.25)",THI003D,THI,D,English,Tue Aug 14 11:58:26 2018,Mouse
1,2,4,0,27,8,4,0,-828,698,130,134,0,500,200,8000,"[(960, 540), (960, 540), (960, 540), (960, 540), (960, 540), (960, 540), (960, 540), (960, 540), (960, 540), (960, 540), (960, 540), (960, 540), (960, 540), (960, 540), (960, 540), (960, 540), (960, 540), (960, 540), (960, 540), (960, 540), (960, 540), (960, 540), (960, 540), (960, 540), (960, 540), (960, 540), (960, 540), (960, 540), (960, 540), (960, 540), (960, 540), (960, 540), (960, 540), (960, 540), (960, 540), (960, 540), (960, 540), (960, 540), (960, 540), (960, 540), (960, 540), (960, 540), (960, 540), (960, 540), (960, 540), (960, 540), (960, 540), (960, 540), (960, 540), (960, 540), (960, 540), (960, 540), (960, 540), (960, 540), (960, 540), (960, 540), (960, 540), (960, 540), (960, 540), (960, 540), (960, 540), (960, 540), (960, 540), (960, 540), (960, 540), (960, 540), (960, 540), (960, 540), (960, 540), (960, 543), (958, 545), (958, 545), (958, 545), (958, 545), (949, 552), (942, 561), (930, 577), (911, 605), (853, 681), (809, 727), (760, 773), (726, 816), (633, 886)]",133.38286667682348,"[5, 1, 6, 4, 9, 8, 7, 2, 3]","(0, 0.25)",THI003D,THI,D,English,Tue Aug 14 11:58:26 2018,Mouse
1,2,4,0,28,3,5,0,-2190,2140,50,135,0,500,200,8000,"[(960, 540), (960, 540), (960, 540), (960, 540), (960, 540), (960, 540), (960, 540), (960, 540), (960, 540), (960, 540), (960, 540), (960, 540), (960, 540), (960, 540), (960, 540), (960, 540), (960, 540), (960, 540), (960, 540), (960, 540), (960, 540), (960, 540), (960, 540), (960, 540), (960, 540), (960, 540), (960, 540), (960, 540), (960, 540), (960, 540), (960, 540), (960, 540), (960, 540), (960, 540), (960, 540), (960, 540), (960, 540), (960, 540), (960, 540), (960, 540), (960, 540), (960, 540), (960, 540), (960, 540), (960, 540), (960, 540), (960, 540), (960, 540), (960, 540), (960, 540), (960, 540), (960, 540), (960, 540), (960, 540), (960, 540), (960, 540), (960, 540), (960, 540), (960, 540), (960, 540), (960, 540), (960, 540), (960, 540), (960, 540), (960, 540), (960, 540), (960, 540), (960, 540), (960, 540), (960, 540), (960, 540), (960, 540), (960, 540), (960, 540), (960, 540), (960, 540), (960, 540), (960, 540), (960, 540), (960, 540), (960, 540), (960, 540), (960, 540), (960, 540), (960, 540), (960, 540), (960, 540), (960, 540), (960, 540), (960, 540), (960, 540), (960, 540), (960, 540), (960, 540), (960, 540), (960, 540), (960, 540), (960, 540), (960, 540), (960, 540), (960, 540), (960, 540), (960, 540), (960, 540), (960, 540), (960, 540), (960, 540), (960, 540), (960, 540), (960, 540), (960, 540), (960, 540), (960, 540), (960, 540), (960, 540), (960, 540), (960, 540), (960, 540), (960, 540), (960, 540), (960, 540), (960, 540), (960, 540), (960, 540), (960, 540), (960, 540), (960, 540), (960, 540), (960, 540), (960, 540), (960, 540), (960, 540), (960, 540), (960, 540), (960, 540), (960, 540), (960, 540), (960, 540), (960, 540), (960, 540), (960, 540), (960, 540), (960, 540), (960, 540), (960, 540), (960, 540), (960, 540), (960, 540), (960, 540), (960, 540), (960, 540), (960, 540), (960, 540), (960, 540), (960, 540), (960, 540), (960, 540), (960, 540), (960, 540), (960, 540), (960, 540), (960, 540), (960, 540), (960, 540), (960, 540), (960, 540), (960, 540), (960, 540), (960, 540), (960, 540), (960, 540), (960, 540), (960, 540), (960, 540), (960, 540), (960, 540), (960, 540), (960, 540), (960, 540), (960, 540), (960, 540), (960, 540), (960, 540), (960, 540), (960, 540), (960, 540), (960, 540), (960, 540), (960, 540), (960, 540), (960, 540), (960, 540), (960, 540), (960, 540), (960, 540), (960, 540), (960, 540), (960, 540), (960, 540), (960, 540), (960, 540), (960, 540), (960, 540), (960, 540), (960, 540), (960, 540), (960, 540), (960, 540), (960, 540), (960, 540), (960, 540), (960, 540), (960, 540), (965, 544), (1018, 582), (1066, 600), (1124, 617), (1183, 640), (1331, 698)]",23.06799143777974,"[5, 1, 6, 4, 9, 8, 7, 2, 3]","(0, 0.25)",THI003D,THI,D,English,Tue Aug 14 11:58:26 2018,Mouse
1,2,4,0,29,6,6,1,349,269,80,136,0,500,200,8000,"[(960, 540), (960, 540), (960, 540), (960, 540), (960, 540), (960, 540), (960, 540), (960, 540), (960, 540), (960, 540), (960, 540), (960, 540), (960, 540), (960, 540), (960, 540), (960, 540), (960, 540), (960, 540), (960, 540), (960, 540), (960, 540), (960, 540), (960, 540), (960, 540), (960, 540), (960, 540), (959, 540), (956, 548), (954, 561), (947, 581), (919, 681), (911, 738), (900, 806), (890, 874), (873, 1006)]",100.57510757526018,"[5, 1, 6, 4, 9, 8, 7, 2, 3]","(0, 0.25)",THI003D,THI,D,English,Tue Aug 14 11:58:26 2018,Mouse
1,2,4,0,30,4,4,1,3209,88,3121,136,0,500,200,8000,"[(960, 540), (960, 540), (960, 540), (960, 540), (960, 540), (960, 540), (960, 540), (960, 540), (957, 540), (956, 540), (955, 540), (954, 540), (954, 540), (954, 540), (954, 540), (954, 540), (954, 540), (954, 540), (954, 540), (954, 540), (954, 540), (954, 540), (954, 540), (954, 540), (954, 540), (954, 540), (954, 540), (954, 540), (954, 540), (954, 540), (954, 540), (954, 540), (954, 540), (954, 540), (954, 540), (954, 540), (954, 540), (954, 540), (954, 540), (954, 540), (954, 540), (954, 540), (954, 540), (954, 540), (954, 540), (954, 540), (954, 540), (954, 540), (954, 540), (954, 540), (954, 540), (954, 540), (954, 540), (954, 540), (954, 540), (954, 540), (954, 540), (954, 540), (954, 540), (954, 540), (954, 540), (954, 540), (954, 540), (954, 540), (954, 540), (954, 540), (954, 540), (954, 540), (954, 540), (954, 540), (954, 540), (954, 540), (954, 540), (954, 540), (954, 540), (954, 540), (954, 540), (954, 540), (954, 540), (954, 540), (954, 540), (954, 540), (954, 540), (954, 540), (954, 540), (954, 540), (954, 540), (954, 540), (954, 540), (954, 540), (954, 540), (954, 540), (954, 540), (954, 540), (954, 540), (954, 540), (954, 540), (954, 540), (954, 540), (954, 540), (954, 540), (954, 540), (954, 540), (954, 540), (954, 540), (954, 540), (954, 540), (954, 540), (954, 540), (954, 540), (954, 540), (954, 540), (954, 540), (954, 540), (954, 540), (954, 540), (954, 540), (954, 540), (954, 540), (954, 540), (954, 540), (954, 540), (954, 540), (954, 540), (954, 540), (953, 541), (953, 541), (953, 541), (953, 541), (953, 541), (953, 541), (953, 541), (953, 541), (953, 541), (953, 541), (953, 541), (953, 541), (953, 541), (953, 541), (953, 541), (953, 541), (953, 541), (953, 541), (953, 541), (953, 541), (953, 541), (953, 541), (953, 541), (953, 541), (953, 541), (953, 541), (953, 541), (953, 541), (953, 541), (953, 541), (953, 541), (953, 541), (953, 541), (953, 541), (953, 541), (953, 541), (953, 541), (953, 541), (953, 541), (953, 541), (953, 541), (953, 541), (953, 541), (953, 541), (953, 541), (953, 541), (953, 541), (953, 541), (953, 541), (953, 541), (953, 541), (953, 541), (953, 541), (953, 541), (953, 541), (953, 541), (953, 541), (953, 541), (953, 541), (953, 541), (953, 541), (953, 541), (953, 541), (953, 541), (953, 541), (953, 541), (953, 541), (953, 541), (953, 541), (953, 541), (953, 541), (953, 541), (953, 541), (953, 541), (953, 541), (953, 541), (953, 541), (953, 541), (953, 541), (953, 541), (953, 541), (953, 541), (953, 541), (953, 541), (953, 541), (953, 541), (953, 541), (953, 541), (953, 541), (953, 541), (953, 541), (953, 541), (953, 541), (953, 541), (953, 541), (953, 541), (953, 541), (953, 541), (953, 541), (953, 541), (953, 541), (953, 541), (953, 541), (953, 541), (953, 541), (953, 541), (953, 541), (953, 541), (953, 541), (953, 541), (953, 541), (953, 541), (953, 541), (953, 541), (953, 541), (953, 541), (953, 541), (953, 541), (953, 541), (953, 541), (953, 541), (953, 541), (953, 541), (953, 541), (953, 541), (953, 541), (953, 541), (953, 541), (953, 541), (953, 541), (953, 541), (953, 541), (953, 541), (953, 541), (953, 541), (953, 541), (953, 541), (953, 541), (953, 541), (953, 541), (953, 541), (953, 541), (953, 541), (953, 541), (953, 541), (953, 541), (953, 541), (953, 541), (953, 541), (953, 541), (953, 541), (953, 541), (953, 541), (953, 541), (953, 541), (953, 541), (953, 541), (953, 541), (953, 541), (953, 541), (953, 541), (953, 541), (953, 541), (953, 541), (953, 541), (953, 541), (953, 541), (953, 541), (953, 541), (953, 541), (953, 541), (953, 541), (953, 541), (953, 541), (953, 541), (953, 541), (953, 541), (953, 541), (953, 541), (953, 541), (953, 541), (953, 541), (953, 541), (953, 541), (953, 541), (953, 541), (948, 543), (946, 546), (941, 549), (932, 554), (904, 579), (875, 602), (842, 637), (808, 679), (717, 772), (664, 819)]",136.6934688703158,"[5, 1, 6, 4, 9, 8, 7, 2, 3]","(0, 0.25)",THI003D,THI,D,English,Tue Aug 14 11:58:26 2018,Mouse
1,2,4,0,31,8,8,1,849,739,110,135,0,500,200,8000,"[(960, 540), (960, 540), (960, 540), (960, 540), (960, 540), (960, 540), (960, 540), (960, 540), (960, 540), (960, 540), (960, 540), (960, 540), (960, 540), (960, 540), (960, 540), (960, 540), (960, 540), (960, 540), (960, 540), (960, 540), (960, 540), (960, 540), (960, 540), (960, 540), (960, 540), (960, 540), (960, 540), (960, 540), (960, 540), (960, 540), (960, 540), (960, 540), (960, 540), (960, 540), (960, 540), (960, 540), (960, 540), (960, 540), (960, 540), (960, 540), (960, 540), (960, 540), (960, 540), (960, 540), (960, 540), (960, 540), (960, 540), (960, 540), (960, 540), (960, 540), (960, 540), (960, 540), (960, 540), (960, 540), (960, 540), (960, 540), (960, 540), (960, 540), (960, 540), (960, 540), (960, 540), (960, 540), (960, 540), (960, 540), (960, 540), (960, 540), (960, 540), (960, 540), (960, 540), (960, 540), (960, 540), (960, 540), (960, 540), (960, 539), (960, 539), (960, 538), (959, 534), (956, 529), (954, 525), (949, 515), (912, 464), (883, 425), (849, 385), (795, 335), (654, 239)]",224.52805202892773,"[5, 1, 6, 4, 9, 8, 7, 2, 3]","(0, 0.25)",THI003D,THI,D,English,Tue Aug 14 11:58:26 2018,Mouse
1,2,4,0,32,4,5,0,-1019,949,70,134,0,500,200,8000,"[(960, 540), (960, 540), (960, 540), (960, 540), (960, 540), (960, 540), (960, 540), (960, 540), (960, 540), (960, 540), (960, 540), (960, 540), (960, 540), (960, 540), (960, 540), (960, 540), (960, 540), (960, 540), (960, 540), (960, 540), (960, 540), (960, 540), (960, 540), (960, 540), (960, 540), (960, 540), (960, 540), (960, 540), (960, 540), (960, 540), (960, 540), (960, 540), (960, 540), (960, 540), (960, 540), (960, 540), (960, 540), (960, 540), (960, 540), (960, 540), (960, 540), (960, 540), (960, 540), (960, 540), (960, 540), (960, 540), (960, 540), (960, 540), (960, 540), (960, 540), (960, 540), (960, 540), (960, 540), (960, 540), (960, 540), (960, 540), (960, 540), (960, 540), (960, 540), (960, 540), (960, 540), (960, 540), (960, 540), (960, 540), (960, 540), (960, 540), (960, 540), (960, 540), (960, 540), (960, 540), (960, 540), (960, 540), (960, 540), (960, 540), (960, 540), (960, 540), (960, 540), (960, 540), (960, 540), (960, 540), (960, 540), (960, 540), (960, 540), (960, 540), (960, 540), (960, 540), (960, 540), (960, 540), (960, 540), (960, 540), (960, 540), (960, 540), (960, 540), (960, 540), (961, 541), (966, 548), (971, 553), (990, 567), (1093, 636), (1175, 677), (1267, 718), (1373, 763)]",28.36689805063728,"[5, 1, 6, 4, 9, 8, 7, 2, 3]","(0, 0.25)",THI003D,THI,D,English,Tue Aug 14 11:58:26 2018,Mouse
1,2,4,0,33,9,4,0,-660,590,70,135,0,500,200,8000,"[(960, 540), (960, 540), (960, 540), (960, 540), (960, 540), (960, 540), (960, 540), (960, 540), (960, 540), (960, 540), (960, 540), (960, 540), (960, 540), (960, 540), (960, 540), (960, 540), (960, 540), (960, 540), (960, 540), (960, 540), (960, 540), (960, 540), (960, 540), (960, 540), (960, 540), (960, 540), (960, 540), (960, 540), (960, 540), (960, 540), (960, 540), (960, 540), (960, 540), (960, 540), (960, 540), (960, 540), (960, 540), (960, 540), (960, 540), (960, 540), (960, 540), (960, 540), (960, 540), (960, 540), (960, 540), (960, 540), (960, 540), (960, 540), (960, 540), (960, 540), (960, 540), (960, 540), (960, 540), (960, 540), (960, 540), (960, 540), (960, 540), (960, 540), (959, 541), (945, 556), (926, 575), (906, 600), (872, 640), (780, 742), (727, 787), (663, 834)]",135.29083902235055,"[5, 1, 6, 4, 9, 8, 7, 2, 3]","(0, 0.25)",THI003D,THI,D,English,Tue Aug 14 11:58:26 2018,Mouse
1,2,4,0,34,6,6,1,320,260,60,136,0,500,200,8000,"[(960, 540), (960, 540), (960, 540), (960, 540), (960, 540), (960, 540), (960, 540), (960, 540), (960, 540), (960, 540), (960, 540), (960, 540), (960, 540), (960, 540), (960, 540), (960, 540), (960, 540), (960, 540), (960, 540), (960, 540), (960, 540), (960, 540), (960, 540), (960, 540), (960, 540), (958, 543), (956, 565), (948, 603), (910, 727), (893, 804), (870, 892), (850, 978)]",104.09778563492826,"[5, 1, 6, 4, 9, 8, 7, 2, 3]","(0, 0.25)",THI003D,THI,D,English,Tue Aug 14 11:58:26 2018,Mouse
1,2,4,0,35,3,9,0,-1630,1560,70,136,0,500,200,8000,"[(960, 540), (960, 540), (960, 540), (960, 540), (960, 540), (960, 540), (960, 540), (960, 540), (960, 540), (960, 540), (960, 540), (960, 540), (960, 540), (960, 540), (960, 540), (960, 540), (960, 540), (960, 540), (960, 540), (960, 540), (960, 540), (960, 540), (960, 540), (960, 540), (960, 540), (960, 540), (960, 540), (960, 540), (960, 540), (960, 540), (960, 540), (960, 540), (960, 540), (960, 540), (960, 540), (960, 540), (960, 540), (960, 540), (960, 540), (960, 540), (960, 540), (960, 540), (960, 540), (960, 540), (960, 540), (960, 540), (960, 540), (960, 540), (960, 540), (960, 540), (960, 540), (960, 540), (960, 540), (960, 540), (960, 540), (960, 540), (960, 540), (960, 540), (960, 540), (960, 540), (960, 540), (960, 540), (960, 540), (960, 540), (960, 540), (960, 540), (960, 540), (960, 540), (960, 540), (960, 540), (960, 540), (960, 540), (960, 540), (960, 540), (960, 540), (960, 540), (960, 540), (960, 540), (960, 540), (960, 540), (960, 540), (960, 540), (960, 540), (960, 540), (960, 540), (960, 540), (960, 540), (960, 540), (960, 540), (960, 540), (960, 540), (960, 540), (960, 540), (960, 540), (960, 540), (960, 540), (960, 540), (960, 540), (960, 540), (960, 540), (960, 540), (960, 540), (960, 540), (960, 540), (960, 540), (960, 540), (960, 540), (960, 540), (960, 540), (960, 540), (960, 540), (960, 540), (960, 540), (960, 540), (960, 540), (960, 540), (960, 540), (960, 540), (960, 540), (960, 540), (960, 540), (960, 540), (960, 540), (960, 540), (960, 540), (960, 540), (960, 540), (960, 540), (960, 540), (960, 540), (960, 540), (960, 540), (960, 540), (960, 540), (960, 540), (960, 540), (960, 540), (960, 540), (960, 540), (960, 540), (960, 540), (960, 540), (960, 540), (960, 540), (960, 540), (960, 540), (960, 540), (960, 540), (960, 540), (960, 540), (960, 540), (960, 540), (960, 540), (960, 540), (960, 540), (957, 539), (923, 540), (876, 540), (834, 540), (790, 540), (651, 540), (567, 529), (480, 516)]",182.86240522611175,"[5, 1, 6, 4, 9, 8, 7, 2, 3]","(0, 0.25)",THI003D,THI,D,English,Tue Aug 14 11:58:26 2018,Mouse
1,2,4,0,36,2,2,1,648,588,60,137,0,500,200,8000,"[(960, 540), (960, 540), (960, 540), (960, 540), (960, 540), (960, 540), (960, 540), (960, 540), (960, 540), (960, 540), (960, 540), (960, 540), (960, 540), (960, 540), (960, 540), (960, 540), (960, 540), (960, 540), (960, 540), (960, 540), (960, 540), (960, 540), (960, 540), (960, 540), (960, 540), (960, 540), (960, 540), (960, 540), (960, 540), (960, 540), (960, 540), (960, 540), (960, 540), (960, 540), (960, 540), (960, 540), (960, 540), (960, 540), (960, 540), (960, 540), (960, 540), (960, 540), (960, 540), (960, 540), (960, 540), (960, 540), (960, 540), (960, 540), (960, 540), (960, 540), (960, 540), (960, 540), (960, 540), (960, 540), (960, 540), (960, 540), (960, 540), (960, 540), (960, 535), (965, 523), (989, 467), (1008, 417), (1033, 352), (1066, 282), (1160, 123)]",295.6231357961867,"[5, 1, 6, 4, 9, 8, 7, 2, 3]","(0, 0.25)",THI003D,THI,D,English,Tue Aug 14 11:58:26 2018,Mouse
1,2,4,0,37,3,3,1,619,569,50,137,0,500,200,8000,"[(960, 540), (960, 540), (960, 540), (960, 540), (960, 540), (960, 540), (960, 540), (960, 540), (960, 540), (960, 540), (960, 540), (960, 540), (960, 540), (960, 540), (960, 540), (960, 540), (960, 540), (960, 540), (960, 540), (960, 540), (960, 540), (960, 540), (960, 540), (960, 540), (960, 540), (960, 540), (960, 540), (960, 540), (960, 540), (960, 540), (960, 540), (960, 540), (960, 540), (960, 540), (960, 540), (960, 540), (960, 540), (960, 540), (960, 540), (960, 540), (960, 540), (960, 540), (960, 540), (960, 540), (960, 540), (960, 540), (960, 540), (960, 540), (960, 540), (960, 540), (960, 540), (960, 540), (960, 540), (960, 540), (960, 540), (960, 540), (960, 537), (994, 523), (1037, 505), (1096, 480), (1161, 454), (1327, 374)]",335.6619957903356,"[5, 1, 6, 4, 9, 8, 7, 2, 3]","(0, 0.25)",THI003D,THI,D,English,Tue Aug 14 11:58:26 2018,Mouse
1,2,4,0,38,9,9,1,1120,1030,90,136,0,500,200,8000,"[(960, 540), (960, 540), (960, 540), (960, 540), (960, 540), (960, 540), (960, 540), (960, 540), (960, 540), (960, 540), (960, 540), (960, 540), (960, 540), (960, 540), (960, 540), (960, 540), (960, 540), (960, 540), (960, 540), (960, 540), (960, 540), (960, 540), (960, 540), (960, 540), (960, 540), (960, 540), (960, 540), (960, 540), (960, 540), (960, 540), (960, 540), (960, 540), (960, 540), (960, 540), (960, 540), (960, 540), (960, 540), (960, 540), (960, 540), (960, 540), (960, 540), (960, 540), (960, 540), (960, 540), (960, 540), (960, 540), (960, 540), (960, 540), (960, 540), (960, 540), (960, 540), (960, 540), (960, 540), (960, 540), (960, 540), (960, 540), (960, 540), (960, 540), (960, 540), (960, 540), (960, 540), (960, 540), (960, 540), (960, 540), (960, 540), (960, 540), (960, 540), (960, 540), (960, 540), (960, 540), (960, 540), (960, 540), (960, 540), (960, 540), (960, 540), (960, 540), (960, 540), (960, 540), (960, 540), (960, 540), (960, 540), (960, 540), (960, 540), (960, 540), (960, 540), (960, 540), (960, 540), (960, 540), (960, 540), (960, 540), (960, 540), (960, 540), (960, 540), (960, 540), (960, 540), (960, 540), (960, 540), (960, 540), (960, 540), (960, 540), (960, 540), (960, 540), (955, 540), (948, 540), (935, 538), (914, 535), (852, 525), (803, 518), (755, 514), (698, 503), (565, 484), (492, 474)]",188.02723751043195,"[5, 1, 6, 4, 9, 8, 7, 2, 3]","(0, 0.25)",THI003D,THI,D,English,Tue Aug 14 11:58:26 2018,Mouse
1,2,4,0,39,8,5,0,-1900,1780,120,135,0,500,200,8000,"[(960, 540), (960, 540), (960, 540), (960, 540), (960, 540), (960, 540), (960, 540), (960, 540), (960, 540), (960, 540), (960, 540), (960, 540), (960, 540), (960, 540), (960, 540), (960, 540), (960, 540), (960, 540), (960, 540), (960, 540), (960, 540), (960, 540), (960, 540), (960, 540), (960, 540), (960, 540), (960, 540), (960, 540), (960, 540), (960, 540), (960, 540), (960, 540), (960, 540), (960, 540), (960, 540), (960, 540), (960, 540), (960, 540), (960, 540), (960, 540), (960, 540), (960, 540), (960, 540), (960, 540), (960, 540), (960, 540), (960, 540), (960, 540), (960, 540), (960, 540), (960, 540), (960, 540), (960, 540), (960, 540), (960, 540), (960, 540), (960, 540), (960, 540), (960, 540), (960, 540), (960, 540), (960, 540), (960, 540), (960, 540), (960, 540), (960, 540), (960, 540), (960, 540), (960, 540), (960, 540), (960, 540), (960, 540), (960, 540), (960, 540), (960, 540), (960, 540), (960, 540), (960, 540), (960, 540), (960, 540), (960, 540), (960, 540), (960, 540), (960, 540), (960, 540), (960, 540), (960, 540), (960, 540), (960, 540), (960, 540), (960, 540), (960, 540), (960, 540), (960, 540), (960, 540), (960, 540), (960, 540), (960, 540), (960, 540), (960, 540), (960, 540), (960, 540), (960, 540), (960, 540), (960, 540), (960, 540), (960, 540), (960, 540), (960, 540), (960, 540), (960, 540), (960, 540), (960, 540), (960, 540), (960, 540), (960, 540), (960, 540), (960, 540), (960, 540), (960, 540), (960, 540), (960, 540), (960, 540), (960, 540), (960, 540), (960, 540), (960, 540), (960, 540), (960, 540), (960, 540), (960, 540), (960, 540), (960, 540), (960, 540), (960, 540), (960, 540), (960, 540), (960, 540), (960, 540), (960, 540), (960, 540), (960, 540), (960, 540), (960, 540), (960, 540), (960, 540), (960, 540), (960, 540), (960, 540), (960, 540), (960, 540), (960, 540), (960, 540), (960, 540), (960, 540), (960, 540), (960, 540), (960, 540), (960, 540), (960, 540), (960, 540), (960, 540), (960, 540), (960, 540), (960, 540), (960, 540), (960, 540), (960, 540), (960, 540), (960, 540), (960, 540), (960, 540), (960, 540), (960, 540), (960, 540), (960, 540), (960, 540), (960, 542), (961, 545), (967, 549), (972, 552), (987, 558), (999, 564), (1022, 571), (1055, 579), (1229, 627), (1229, 627), (1229, 627), (1278, 635), (1377, 657)]",15.672820509543197,"[5, 1, 6, 4, 9, 8, 7, 2, 3]","(0, 0.25)",THI003D,THI,D,English,Tue Aug 14 11:58:26 2018,Mouse
1,2,4,0,40,6,6,1,237,117,120,136,0,500,200,8000,"[(960, 540), (960, 540), (960, 540), (960, 540), (960, 540), (960, 540), (960, 540), (960, 540), (960, 540), (960, 540), (960, 540), (959, 540), (957, 543), (953, 554), (950, 570), (944, 597), (936, 620), (930, 644), (924, 672), (911, 753), (903, 796), (893, 845), (883, 903), (871, 1018)]",100.54726645868556,"[5, 1, 6, 4, 9, 8, 7, 2, 3]","(0, 0.25)",THI003D,THI,D,English,Tue Aug 14 11:58:26 2018,Mouse
1,2,4,0,41,7,7,1,2230,2100,130,136,0,500,200,8000,"[(960, 540), (960, 540), (960, 540), (960, 540), (960, 540), (960, 540), (960, 540), (960, 540), (960, 540), (960, 540), (960, 540), (960, 540), (960, 540), (960, 540), (960, 540), (960, 540), (960, 540), (960, 540), (960, 540), (960, 540), (960, 540), (960, 540), (960, 540), (960, 540), (960, 540), (960, 540), (960, 540), (960, 540), (960, 540), (960, 540), (960, 540), (960, 540), (960, 540), (960, 540), (960, 540), (960, 540), (960, 540), (960, 540), (960, 540), (960, 540), (960, 540), (960, 540), (960, 540), (960, 540), (960, 540), (960, 540), (960, 540), (960, 540), (960, 540), (960, 540), (960, 540), (960, 540), (960, 540), (960, 540), (960, 540), (960, 540), (960, 540), (960, 540), (960, 540), (960, 540), (960, 540), (960, 540), (960, 540), (960, 540), (960, 540), (960, 540), (960, 540), (960, 540), (960, 540), (960, 540), (960, 540), (960, 540), (960, 540), (960, 540), (960, 540), (960, 540), (960, 540), (960, 540), (960, 540), (960, 540), (960, 540), (960, 540), (960, 540), (960, 540), (960, 540), (960, 540), (960, 540), (960, 540), (960, 540), (960, 540), (960, 540), (960, 540), (960, 540), (960, 540), (960, 540), (960, 540), (960, 540), (960, 540), (960, 540), (960, 540), (960, 540), (960, 540), (960, 540), (960, 540), (960, 540), (960, 540), (960, 540), (960, 540), (960, 540), (960, 540), (960, 540), (960, 540), (960, 540), (960, 540), (960, 540), (960, 540), (960, 540), (960, 540), (960, 540), (960, 540), (960, 540), (960, 540), (960, 540), (960, 540), (960, 540), (960, 540), (960, 540), (960, 540), (960, 540), (960, 540), (960, 540), (960, 540), (960, 540), (960, 540), (960, 540), (960, 540), (960, 540), (960, 540), (960, 540), (960, 540), (960, 540), (960, 540), (960, 540), (960, 540), (960, 540), (960, 540), (960, 540), (960, 540), (960, 540), (960, 540), (960, 540), (960, 540), (960, 540), (960, 540), (960, 540), (960, 540), (960, 540), (960, 540), (960, 540), (960, 540), (960, 540), (960, 540), (960, 540), (960, 540), (960, 540), (960, 540), (960, 540), (960, 540), (960, 540), (960, 540), (960, 540), (960, 540), (960, 540), (960, 540), (960, 540), (960, 540), (960, 540), (960, 540), (960, 540), (960, 540), (960, 540), (960, 540), (960, 540), (960, 540), (960, 540), (960, 540), (960, 540), (960, 540), (960, 540), (960, 540), (960, 540), (960, 540), (960, 540), (960, 540), (960, 540), (960, 540), (960, 540), (960, 540), (960, 540), (960, 540), (960, 540), (960, 540), (960, 540), (960, 540), (960, 540), (960, 540), (960, 540), (960, 540), (960, 540), (960, 537), (960, 530), (960, 526), (960, 520), (960, 510), (951, 480), (951, 465), (945, 443), (944, 414), (933, 347), (928, 310), (924, 267), (919, 224), (907, 133)]",262.58062895711953,"[5, 1, 6, 4, 9, 8, 7, 2, 3]","(0, 0.25)",THI003D,THI,D,English,Tue Aug 14 11:58:26 2018,Mouse
1,2,4,0,42,7,3,0,-580,360,220,135,0,500,200,8000,"[(960, 540), (960, 540), (960, 540), (960, 540), (960, 540), (960, 540), (960, 540), (960, 540), (960, 540), (960, 540), (960, 540), (960, 540), (960, 540), (960, 540), (960, 540), (960, 540), (960, 540), (960, 540), (960, 540), (960, 540), (960, 540), (960, 540), (960, 540), (960, 540), (960, 540), (960, 540), (960, 540), (960, 540), (960, 540), (960, 540), (960, 540), (960, 540), (960, 540), (960, 540), (960, 540), (964, 540), (976, 537), (1011, 527), (1042, 518), (1075, 510), (1105, 501), (1157, 490), (1168, 489), (1179, 486), (1190, 485), (1205, 482), (1208, 481), (1211, 480), (1214, 477), (1227, 470), (1235, 466), (1245, 460), (1255, 456), (1283, 445), (1300, 438), (1315, 433), (1336, 423), (1354, 416)]",342.530126169623,"[5, 1, 6, 4, 9, 8, 7, 2, 3]","(0, 0.25)",THI003D,THI,D,English,Tue Aug 14 11:58:26 2018,Mouse
1,2,4,0,43,5,5,1,749,539,210,136,0,500,200,8000,"[(960, 540), (960, 540), (960, 540), (960, 540), (960, 540), (960, 540), (960, 540), (960, 540), (960, 540), (960, 540), (960, 540), (960, 540), (960, 540), (960, 540), (960, 540), (960, 540), (960, 540), (960, 540), (960, 540), (960, 540), (960, 540), (960, 540), (960, 540), (960, 540), (960, 540), (960, 540), (960, 540), (960, 540), (960, 540), (960, 540), (960, 540), (960, 540), (960, 540), (960, 540), (960, 540), (960, 540), (960, 540), (960, 540), (960, 540), (960, 540), (960, 540), (960, 540), (960, 540), (960, 540), (960, 540), (960, 540), (960, 540), (960, 540), (960, 540), (960, 540), (960, 540), (960, 540), (960, 540), (959, 540), (958, 540), (957, 541), (957, 541), (957, 541), (957, 542), (957, 542), (959, 543), (967, 545), (1004, 550), (1030, 553), (1057, 560), (1082, 566), (1131, 576), (1141, 580), (1155, 585), (1169, 588), (1208, 599), (1239, 611), (1264, 619), (1301, 630), (1348, 642)]",14.729024450709911,"[5, 1, 6, 4, 9, 8, 7, 2, 3]","(0, 0.25)",THI003D,THI,D,English,Tue Aug 14 11:58:26 2018,Mouse
1,2,4,0,44,1,1,1,419,339,80,136,0,500,200,8000,"[(960, 540), (960, 540), (960, 540), (960, 540), (960, 540), (960, 540), (960, 540), (960, 540), (960, 540), (960, 540), (960, 540), (960, 540), (960, 540), (960, 540), (960, 540), (960, 540), (960, 540), (960, 540), (960, 540), (960, 540), (960, 540), (960, 540), (960, 540), (960, 540), (960, 540), (960, 540), (960, 540), (960, 540), (960, 540), (960, 540), (960, 540), (960, 540), (960, 540), (960, 542), (960, 549), (962, 555), (969, 568), (984, 593), (1047, 682), (1088, 740), (1132, 809), (1178, 899)]",58.732103762853846,"[5, 1, 6, 4, 9, 8, 7, 2, 3]","(0, 0.25)",THI003D,THI,D,English,Tue Aug 14 11:58:26 2018,Mouse
1,2,4,0,45,5,5,1,1019,929,90,135,0,500,200,8000,"[(960, 540), (960, 540), (960, 540), (960, 540), (960, 540), (960, 540), (960, 540), (960, 540), (960, 540), (960, 540), (960, 540), (960, 540), (960, 540), (960, 540), (960, 540), (960, 540), (960, 540), (960, 540), (960, 540), (960, 540), (960, 540), (960, 540), (960, 540), (960, 540), (960, 540), (960, 540), (960, 540), (960, 540), (960, 540), (960, 540), (960, 540), (960, 540), (960, 540), (960, 540), (960, 540), (960, 540), (960, 540), (960, 540), (960, 540), (960, 540), (960, 540), (960, 540), (960, 540), (960, 540), (960, 540), (960, 540), (960, 540), (960, 540), (960, 540), (960, 540), (960, 540), (960, 540), (960, 540), (960, 540), (960, 540), (960, 540), (960, 540), (960, 540), (960, 540), (960, 540), (960, 540), (960, 540), (960, 540), (960, 540), (960, 540), (960, 540), (960, 540), (960, 540), (960, 540), (960, 540), (960, 540), (960, 540), (960, 540), (960, 540), (960, 540), (960, 540), (960, 540), (960, 540), (960, 540), (960, 540), (960, 540), (960, 540), (960, 540), (960, 540), (960, 540), (960, 540), (960, 540), (960, 540), (960, 540), (960, 540), (960, 540), (960, 540), (961, 540), (963, 540), (967, 544), (976, 550), (1030, 569), (1075, 582), (1130, 597), (1180, 613), (1307, 647), (1379, 666)]",16.736872805321767,"[5, 1, 6, 4, 9, 8, 7, 2, 3]","(0, 0.25)",THI003D,THI,D,English,Tue Aug 14 11:58:26 2018,Mouse
1,2,4,0,46,6,6,1,581,501,80,134,0,500,200,8000,"[(960, 540), (960, 540), (960, 540), (960, 540), (960, 540), (960, 540), (960, 540), (960, 540), (960, 540), (960, 540), (960, 540), (960, 540), (960, 540), (960, 540), (960, 540), (960, 540), (960, 540), (960, 540), (960, 540), (960, 540), (960, 540), (960, 540), (960, 540), (960, 540), (960, 540), (960, 540), (960, 540), (960, 540), (960, 540), (960, 540), (960, 540), (960, 540), (960, 540), (960, 540), (960, 540), (960, 540), (960, 540), (960, 540), (960, 540), (960, 540), (960, 540), (960, 540), (960, 540), (960, 540), (960, 540), (960, 540), (960, 540), (960, 540), (960, 540), (959, 541), (958, 551), (954, 569), (954, 602), (954, 716), (954, 785), (954, 854), (954, 923), (954, 1059)]",90.66234944737221,"[5, 1, 6, 4, 9, 8, 7, 2, 3]","(0, 0.25)",THI003D,THI,D,English,Tue Aug 14 11:58:26 2018,Mouse
1,2,4,0,47,7,5,0,-989,899,90,133,0,500,200,8000,"[(960, 540), (960, 540), (960, 540), (960, 540), (960, 540), (960, 540), (960, 540), (960, 540), (960, 540), (960, 540), (960, 540), (960, 540), (960, 540), (960, 540), (960, 540), (960, 540), (960, 540), (960, 540), (960, 540), (960, 540), (960, 540), (960, 540), (960, 540), (960, 540), (960, 540), (960, 540), (960, 540), (960, 540), (960, 540), (960, 540), (960, 540), (960, 540), (960, 540), (960, 540), (960, 540), (960, 540), (960, 540), (960, 540), (960, 540), (960, 540), (960, 540), (960, 540), (960, 540), (960, 540), (960, 540), (960, 540), (960, 540), (960, 540), (960, 540), (960, 540), (960, 540), (960, 540), (960, 540), (960, 540), (960, 540), (960, 540), (960, 540), (960, 540), (960, 540), (960, 540), (960, 540), (960, 540), (960, 540), (960, 540), (960, 540), (960, 540), (960, 540), (960, 540), (960, 540), (960, 540), (960, 540), (960, 540), (960, 540), (960, 540), (960, 540), (960, 540), (960, 540), (960, 540), (960, 540), (960, 540), (960, 540), (960, 540), (960, 540), (960, 540), (960, 540), (960, 540), (960, 540), (960, 540), (960, 540), (962, 540), (975, 541), (987, 547), (1006, 555), (1032, 564), (1121, 593), (1174, 610), (1240, 629), (1315, 651), (1469, 691)]",16.523522567420557,"[5, 1, 6, 4, 9, 8, 7, 2, 3]","(0, 0.25)",THI003D,THI,D,English,Tue Aug 14 11:58:26 2018,Mouse
1,2,4,0,48,9,3,0,-900,750,150,134,0,500,200,8000,"[(960, 540), (960, 540), (960, 540), (960, 540), (960, 540), (960, 540), (960, 540), (960, 540), (960, 540), (960, 540), (960, 540), (960, 540), (960, 540), (960, 540), (960, 540), (960, 540), (960, 540), (960, 540), (960, 540), (960, 540), (960, 540), (960, 540), (960, 540), (960, 540), (960, 540), (960, 540), (960, 540), (960, 540), (960, 540), (960, 540), (960, 540), (960, 540), (960, 540), (960, 540), (960, 540), (960, 540), (960, 540), (960, 540), (960, 540), (960, 540), (960, 540), (960, 540), (960, 540), (960, 540), (960, 540), (960, 540), (960, 540), (960, 540), (960, 540), (960, 540), (960, 540), (960, 540), (960, 540), (960, 540), (960, 540), (960, 540), (960, 540), (960, 540), (960, 540), (960, 540), (960, 540), (960, 540), (960, 540), (960, 540), (960, 540), (960, 540), (960, 540), (960, 540), (960, 540), (960, 540), (960, 540), (960, 540), (960, 540), (960, 540), (963, 536), (970, 532), (978, 526), (999, 516), (1013, 511), (1034, 500), (1055, 491), (1107, 468), (1136, 458), (1167, 448), (1193, 436), (1247, 417), (1274, 403), (1300, 394), (1323, 383), (1360, 372)]",337.2175942695183,"[5, 1, 6, 4, 9, 8, 7, 2, 3]","(0, 0.25)",THI003D,THI,D,English,Tue Aug 14 11:58:26 2018,Mouse
1,2,4,0,49,7,9,0,-2510,2410,100,135,0,500,200,8000,"[(960, 540), (960, 540), (960, 540), (960, 540), (960, 540), (960, 540), (960, 540), (960, 540), (960, 540), (960, 540), (960, 540), (960, 540), (960, 540), (960, 540), (960, 540), (960, 540), (960, 540), (960, 540), (960, 540), (960, 540), (960, 540), (960, 540), (960, 540), (960, 540), (960, 540), (960, 540), (960, 540), (960, 540), (960, 540), (960, 540), (960, 540), (960, 540), (960, 540), (960, 540), (960, 540), (960, 540), (960, 540), (960, 540), (960, 540), (960, 540), (960, 540), (960, 540), (960, 540), (960, 540), (960, 540), (960, 540), (960, 540), (960, 540), (960, 540), (960, 540), (960, 540), (960, 540), (960, 540), (960, 540), (960, 540), (960, 540), (960, 540), (960, 540), (960, 540), (960, 540), (960, 540), (960, 540), (960, 540), (960, 540), (960, 540), (960, 540), (960, 540), (960, 540), (960, 540), (960, 540), (960, 540), (960, 540), (960, 540), (960, 540), (960, 540), (960, 540), (960, 540), (960, 540), (960, 540), (960, 540), (960, 540), (960, 540), (960, 540), (960, 540), (960, 540), (960, 540), (960, 540), (960, 540), (960, 540), (960, 540), (960, 540), (960, 540), (960, 540), (960, 540), (960, 540), (960, 540), (960, 540), (960, 540), (960, 540), (960, 540), (960, 540), (960, 540), (960, 540), (960, 540), (960, 540), (960, 540), (960, 540), (960, 540), (960, 540), (960, 540), (960, 540), (960, 540), (960, 540), (960, 540), (960, 540), (960, 540), (960, 540), (960, 540), (960, 540), (960, 540), (960, 540), (960, 540), (960, 540), (960, 540), (960, 540), (960, 540), (960, 540), (960, 540), (960, 540), (960, 540), (960, 540), (960, 540), (960, 540), (960, 540), (960, 540), (960, 540), (960, 540), (960, 540), (960, 540), (960, 540), (960, 540), (960, 540), (960, 540), (960, 540), (960, 540), (960, 540), (960, 540), (960, 540), (960, 540), (960, 540), (960, 540), (960, 540), (960, 540), (960, 540), (960, 540), (960, 540), (960, 540), (960, 540), (960, 540), (960, 540), (960, 540), (960, 540), (960, 540), (960, 540), (960, 540), (960, 540), (960, 540), (960, 540), (960, 540), (960, 540), (960, 540), (960, 540), (960, 540), (960, 540), (960, 540), (960, 540), (960, 540), (960, 540), (960, 540), (960, 540), (960, 540), (960, 540), (960, 540), (960, 540), (960, 540), (960, 540), (960, 540), (960, 540), (960, 540), (960, 540), (960, 540), (960, 540), (960, 540), (960, 540), (960, 540), (960, 540), (960, 540), (960, 540), (960, 540), (960, 540), (960, 540), (960, 540), (960, 540), (960, 540), (960, 540), (960, 540), (960, 540), (960, 540), (960, 540), (960, 540), (960, 540), (960, 540), (960, 540), (960, 540), (960, 540), (960, 540), (960, 540), (960, 540), (960, 540), (960, 540), (960, 540), (960, 540), (960, 540), (960, 540), (960, 540), (960, 540), (960, 540), (960, 540), (960, 540), (960, 540), (960, 540), (960, 540), (960, 540), (960, 540), (960, 540), (960, 540), (960, 540), (960, 540), (960, 540), (960, 540), (958, 540), (956, 540), (943, 541), (931, 541), (912, 541), (884, 541), (801, 541), (745, 541), (687, 541), (626, 541), (472, 523)]",181.99515271973044,"[5, 1, 6, 4, 9, 8, 7, 2, 3]","(0, 0.25)",THI003D,THI,D,English,Tue Aug 14 11:58:26 2018,Mouse
1,2,4,0,50,7,2,0,-649,529,120,136,0,500,200,8000,"[(960, 540), (960, 540), (960, 540), (960, 540), (960, 540), (960, 540), (960, 540), (960, 540), (960, 540), (960, 540), (960, 540), (960, 540), (960, 540), (960, 540), (960, 540), (960, 540), (960, 540), (960, 540), (960, 540), (960, 540), (960, 540), (960, 540), (960, 540), (960, 540), (960, 540), (960, 540), (960, 540), (960, 540), (960, 540), (960, 540), (960, 540), (960, 540), (960, 540), (960, 540), (960, 540), (960, 540), (960, 540), (960, 540), (960, 540), (960, 540), (960, 540), (960, 540), (960, 540), (960, 540), (960, 540), (960, 540), (960, 540), (960, 540), (960, 540), (960, 540), (960, 540), (960, 540), (961, 541), (964, 539), (989, 505), (1007, 480), (1029, 449), (1056, 410), (1111, 334), (1130, 304), (1148, 271), (1163, 249), (1177, 223), (1183, 212), (1187, 204)]",304.04277306768273,"[5, 1, 6, 4, 9, 8, 7, 2, 3]","(0, 0.25)",THI003D,THI,D,English,Tue Aug 14 11:58:26 2018,Mouse
1,2,4,0,51,4,1,0,-699,59,640,137,0,500,200,8000,"[(960, 540), (960, 540), (960, 540), (960, 540), (960, 540), (960, 539), (960, 539), (960, 539), (960, 539), (960, 539), (960, 539), (960, 539), (960, 539), (960, 539), (960, 539), (960, 539), (960, 539), (960, 539), (960, 539), (960, 539), (960, 539), (960, 539), (960, 539), (960, 539), (960, 539), (960, 539), (960, 539), (960, 539), (960, 539), (960, 539), (960, 539), (960, 539), (960, 539), (960, 539), (960, 539), (960, 539), (960, 539), (960, 539), (960, 539), (960, 539), (960, 539), (960, 539), (960, 539), (960, 539), (960, 539), (960, 539), (960, 539), (960, 539), (960, 539), (960, 539), (960, 539), (960, 539), (961, 539), (962, 540), (963, 542), (965, 548), (968, 551), (980, 568), (988, 579), (993, 590), (999, 603), (1022, 651), (1045, 687), (1061, 717), (1079, 749), (1112, 807), (1127, 831), (1138, 848), (1145, 861), (1162, 891)]",60.07963447531939,"[5, 1, 6, 4, 9, 8, 7, 2, 3]","(0, 0.25)",THI003D,THI,D,English,Tue Aug 14 11:58:26 2018,Mouse
1,2,4,0,52,5,5,1,781,621,160,138,0,500,200,8000,"[(960, 540), (960, 540), (960, 540), (960, 540), (960, 540), (960, 540), (960, 540), (960, 540), (960, 540), (960, 540), (960, 540), (960, 540), (960, 540), (960, 540), (960, 540), (960, 540), (960, 540), (960, 540), (960, 540), (960, 540), (960, 540), (960, 540), (960, 540), (960, 540), (960, 540), (960, 540), (960, 540), (960, 540), (960, 540), (960, 540), (960, 540), (960, 540), (960, 540), (960, 540), (960, 540), (960, 540), (960, 540), (960, 540), (960, 540), (960, 540), (960, 540), (960, 540), (960, 540), (960, 540), (960, 540), (960, 540), (960, 540), (960, 540), (960, 540), (960, 540), (960, 540), (960, 540), (960, 540), (960, 540), (960, 540), (960, 540), (960, 540), (960, 540), (960, 540), (960, 540), (960, 540), (960, 540), (961, 540), (969, 548), (975, 553), (982, 557), (993, 563), (1020, 575), (1038, 583), (1058, 590), (1076, 599), (1115, 616), (1136, 625), (1162, 636), (1191, 650), (1252, 676), (1283, 688), (1313, 702), (1341, 712)]",24.296490221118486,"[5, 1, 6, 4, 9, 8, 7, 2, 3]","(0, 0.25)",THI003D,THI,D,English,Tue Aug 14 11:58:26 2018,Mouse
1,2,4,0,53,1,1,1,829,659,170,138,0,500,200,8000,"[(960, 540), (960, 540), (960, 540), (960, 540), (960, 540), (960, 540), (960, 540), (960, 540), (960, 540), (960, 540), (960, 540), (960, 540), (960, 540), (960, 540), (960, 540), (960, 540), (960, 540), (960, 540), (960, 540), (960, 540), (960, 540), (960, 540), (960, 540), (960, 540), (960, 540), (960, 540), (960, 540), (960, 540), (960, 540), (960, 540), (960, 540), (960, 540), (960, 540), (960, 540), (960, 540), (960, 540), (960, 540), (960, 540), (960, 540), (960, 540), (960, 540), (960, 540), (960, 540), (960, 540), (960, 540), (960, 540), (960, 540), (960, 540), (960, 540), (960, 540), (960, 540), (960, 540), (960, 540), (960, 540), (960, 540), (960, 540), (960, 540), (960, 540), (960, 540), (960, 540), (960, 540), (960, 540), (960, 540), (960, 540), (960, 540), (961, 540), (961, 541), (961, 542), (961, 543), (961, 543), (962, 546), (962, 547), (962, 550), (964, 553), (966, 562), (968, 569), (971, 579), (979, 597), (1003, 660), (1021, 713), (1042, 769), (1066, 842), (1147, 989)]",67.3891965384431,"[5, 1, 6, 4, 9, 8, 7, 2, 3]","(0, 0.25)",THI003D,THI,D,English,Tue Aug 14 11:58:26 2018,Mouse
1,2,4,0,54,1,1,1,530,400,130,137,0,500,200,8000,"[(960, 540), (960, 540), (960, 540), (960, 540), (960, 540), (960, 540), (960, 540), (960, 540), (960, 540), (960, 540), (960, 540), (960, 540), (960, 540), (960, 540), (960, 540), (960, 540), (960, 540), (960, 540), (960, 540), (960, 540), (960, 540), (960, 540), (960, 540), (960, 540), (960, 540), (960, 540), (960, 540), (960, 540), (960, 540), (960, 540), (960, 540), (960, 540), (960, 540), (960, 540), (960, 540), (960, 540), (960, 540), (960, 540), (960, 540), (960, 541), (960, 541), (960, 542), (960, 544), (960, 547), (960, 550), (964, 556), (977, 583), (988, 604), (1006, 639), (1030, 680), (1097, 808), (1134, 876), (1172, 953)]",62.82779084300982,"[5, 1, 6, 4, 9, 8, 7, 2, 3]","(0, 0.25)",THI003D,THI,D,English,Tue Aug 14 11:58:26 2018,Mouse
1,2,4,0,55,2,2,1,529,449,80,136,0,500,200,8000,"[(960, 540), (960, 540), (960, 540), (960, 540), (960, 540), (960, 540), (960, 540), (960, 540), (960, 540), (960, 540), (960, 540), (960, 540), (960, 540), (960, 540), (960, 540), (960, 540), (960, 540), (960, 540), (960, 540), (960, 540), (960, 540), (960, 540), (960, 540), (960, 540), (960, 540), (960, 540), (960, 540), (960, 540), (960, 540), (960, 540), (960, 540), (960, 540), (960, 540), (960, 540), (960, 540), (960, 540), (960, 540), (960, 540), (960, 540), (960, 540), (960, 540), (960, 540), (960, 540), (960, 540), (959, 534), (960, 527), (966, 510), (974, 480), (1010, 384), (1032, 336), (1061, 292), (1091, 229), (1126, 110)]",291.10890759845256,"[5, 1, 6, 4, 9, 8, 7, 2, 3]","(0, 0.25)",THI003D,THI,D,English,Tue Aug 14 11:58:26 2018,Mouse
1,2,4,0,56,8,5,0,-1598,888,710,135,0,500,200,8000,"[(960, 540), (960, 540), (960, 540), (960, 540), (960, 540), (960, 540), (960, 540), (960, 540), (960, 540), (960, 540), (960, 540), (960, 540), (960, 540), (960, 540), (960, 540), (960, 540), (960, 540), (960, 540), (960, 540), (960, 540), (960, 540), (960, 540), (960, 540), (960, 540), (960, 540), (960, 540), (960, 540), (960, 540), (960, 540), (960, 540), (960, 540), (960, 540), (960, 540), (960, 540), (960, 540), (960, 540), (960, 540), (960, 540), (960, 540), (960, 540), (960, 540), (960, 540), (960, 540), (960, 540), (960, 540), (960, 540), (960, 540), (960, 540), (960, 540), (960, 540), (960, 540), (960, 540), (960, 540), (960, 540), (960, 540), (960, 540), (960, 540), (960, 540), (960, 540), (960, 540), (960, 540), (960, 540), (960, 540), (960, 540), (960, 540), (960, 540), (960, 540), (960, 540), (960, 540), (960, 540), (960, 540), (960, 540), (960, 540), (960, 540), (960, 540), (960, 540), (960, 540), (960, 540), (960, 540), (960, 540), (960, 540), (960, 540), (960, 540), (960, 540), (960, 540), (960, 540), (960, 540), (960, 540), (962, 540), (964, 540), (967, 542), (973, 545), (976, 546), (979, 547), (985, 549), (996, 554), (1003, 555), (1014, 559), (1025, 562), (1042, 566), (1052, 570), (1066, 572), (1074, 573), (1090, 576), (1094, 576), (1095, 577), (1096, 577), (1096, 577), (1096, 577), (1096, 577), (1096, 577), (1096, 577), (1096, 577), (1096, 577), (1096, 577), (1096, 577), (1096, 577), (1096, 577), (1096, 577), (1097, 577), (1097, 577), (1097, 578), (1099, 579), (1101, 581), (1103, 583), (1103, 583), (1105, 584), (1110, 587), (1114, 591), (1116, 592), (1119, 594), (1126, 599), (1132, 603), (1139, 606), (1147, 609), (1162, 619), (1172, 625), (1182, 630), (1195, 637), (1221, 652), (1230, 659), (1235, 662), (1244, 668), (1260, 676), (1269, 682), (1276, 686), (1281, 688), (1286, 691), (1289, 693), (1290, 694), (1290, 694), (1293, 696), (1297, 699), (1298, 699), (1301, 701), (1305, 703), (1313, 707), (1317, 709), (1321, 711), (1323, 712)]",25.35296052208231,"[5, 1, 6, 4, 9, 8, 7, 2, 3]","(0, 0.25)",THI003D,THI,D,English,Tue Aug 14 11:58:26 2018,Mouse
1,2,4,0,57,3,3,1,2520,250,2270,136,0,500,200,8000,"[(960, 540), (960, 540), (960, 540), (960, 540), (960, 540), (960, 540), (960, 540), (960, 540), (960, 540), (960, 540), (960, 540), (960, 540), (960, 540), (960, 540), (960, 540), (960, 540), (960, 540), (960, 540), (960, 540), (960, 540), (960, 540), (960, 540), (960, 540), (960, 540), (960, 541), (960, 541), (960, 541), (960, 541), (960, 541), (960, 541), (960, 541), (960, 541), (960, 541), (960, 541), (960, 541), (960, 541), (960, 542), (960, 542), (960, 542), (960, 542), (960, 543), (960, 543), (960, 544), (960, 544), (960, 544), (960, 544), (960, 544), (960, 544), (960, 544), (960, 544), (960, 544), (960, 544), (960, 544), (960, 544), (960, 544), (960, 544), (960, 544), (960, 544), (960, 544), (960, 544), (960, 544), (960, 544), (960, 544), (960, 544), (960, 544), (960, 544), (960, 544), (960, 544), (960, 544), (960, 544), (960, 544), (960, 544), (960, 544), (960, 544), (960, 544), (960, 544), (960, 544), (960, 544), (960, 544), (960, 544), (960, 544), (960, 544), (960, 544), (960, 544), (960, 544), (960, 544), (960, 544), (960, 544), (960, 544), (960, 544), (960, 544), (960, 544), (960, 544), (960, 544), (960, 544), (960, 544), (960, 544), (960, 544), (960, 544), (960, 545), (960, 545), (960, 545), (960, 545), (960, 545), (960, 545), (960, 545), (960, 545), (960, 545), (960, 545), (960, 545), (960, 545), (960, 545), (960, 545), (960, 545), (960, 545), (960, 545), (960, 545), (960, 545), (960, 545), (960, 545), (960, 545), (960, 546), (960, 546), (960, 546), (960, 546), (960, 546), (960, 546), (960, 546), (960, 546), (960, 546), (960, 546), (960, 546), (960, 546), (960, 546), (960, 546), (960, 546), (960, 546), (960, 546), (960, 546), (960, 546), (960, 546), (960, 546), (960, 546), (960, 546), (960, 546), (960, 546), (960, 546), (960, 546), (960, 546), (960, 546), (960, 546), (960, 546), (960, 546), (960, 546), (960, 546), (960, 546), (960, 546), (960, 546), (960, 546), (960, 546), (960, 546), (960, 546), (960, 546), (960, 546), (960, 546), (960, 546), (960, 546), (960, 546), (960, 546), (960, 546), (960, 546), (960, 546), (960, 546), (960, 546), (960, 546), (960, 546), (960, 546), (960, 546), (960, 546), (960, 546), (960, 546), (960, 546), (960, 546), (960, 546), (960, 546), (960, 546), (960, 546), (960, 546), (960, 546), (960, 546), (960, 546), (960, 546), (960, 546), (960, 546), (960, 546), (960, 546), (960, 546), (960, 546), (960, 546), (960, 546), (960, 546), (960, 546), (960, 546), (960, 546), (960, 546), (960, 546), (960, 546), (960, 546), (960, 546), (960, 546), (960, 546), (960, 546), (960, 546), (960, 546), (960, 546), (960, 546), (960, 546), (960, 546), (960, 546), (960, 546), (960, 546), (960, 546), (960, 546), (960, 546), (960, 546), (960, 546), (960, 546), (960, 546), (960, 546), (960, 546), (960, 546), (960, 546), (960, 546), (960, 546), (960, 546), (960, 546), (960, 546), (960, 546), (960, 546), (960, 546), (960, 546), (960, 546), (960, 546), (960, 546), (960, 546), (967, 546), (1015, 528), (1053, 512), (1102, 485), (1156, 456), (1263, 393), (1328, 358)]",333.6846020556469,"[5, 1, 6, 4, 9, 8, 7, 2, 3]","(0, 0.25)",THI003D,THI,D,English,Tue Aug 14 11:58:26 2018,Mouse
1,2,4,0,58,5,5,1,529,449,80,136,0,500,200,8000,"[(960, 540), (960, 540), (960, 540), (960, 540), (960, 540), (960, 540), (960, 540), (960, 540), (960, 540), (960, 540), (960, 540), (960, 540), (960, 540), (960, 540), (960, 540), (960, 540), (960, 540), (960, 540), (960, 540), (960, 540), (960, 540), (960, 540), (960, 540), (960, 540), (960, 540), (960, 540), (960, 540), (960, 540), (960, 540), (960, 540), (960, 540), (960, 540), (960, 540), (960, 540), (960, 540), (960, 540), (960, 540), (960, 540), (960, 540), (960, 540), (960, 540), (960, 540), (960, 540), (960, 540), (971, 551), (985, 561), (1004, 573), (1025, 583), (1091, 610), (1138, 622), (1193, 640), (1257, 657), (1406, 694)]",19.049357222962286,"[5, 1, 6, 4, 9, 8, 7, 2, 3]","(0, 0.25)",THI003D,THI,D,English,Tue Aug 14 11:58:26 2018,Mouse
1,2,4,0,59,7,7,1,2209,2119,90,135,0,500,200,8000,"[(960, 540), (960, 540), (960, 540), (960, 540), (960, 540), (960, 540), (960, 540), (960, 540), (960, 540), (960, 540), (960, 540), (960, 540), (960, 540), (960, 540), (960, 540), (960, 540), (960, 540), (960, 540), (960, 540), (960, 540), (960, 540), (960, 540), (960, 540), (960, 540), (960, 540), (960, 540), (960, 540), (960, 540), (960, 540), (960, 540), (960, 540), (960, 540), (960, 540), (960, 540), (960, 540), (960, 540), (960, 540), (960, 540), (960, 540), (960, 540), (960, 540), (960, 540), (960, 540), (960, 540), (960, 540), (960, 540), (960, 540), (960, 540), (960, 540), (960, 540), (960, 540), (960, 540), (960, 540), (960, 540), (960, 540), (960, 540), (960, 540), (960, 540), (960, 540), (960, 540), (960, 540), (960, 540), (960, 540), (960, 540), (960, 540), (960, 540), (960, 540), (960, 540), (960, 540), (960, 540), (960, 540), (960, 540), (960, 540), (960, 540), (960, 540), (960, 540), (960, 540), (960, 540), (960, 540), (960, 540), (960, 540), (960, 540), (960, 540), (960, 540), (960, 540), (960, 540), (960, 540), (960, 540), (960, 540), (960, 540), (960, 540), (960, 540), (960, 540), (960, 540), (960, 540), (960, 540), (960, 540), (960, 540), (960, 540), (960, 540), (960, 540), (960, 540), (960, 540), (960, 540), (960, 540), (960, 540), (960, 540), (960, 540), (960, 540), (960, 540), (960, 540), (960, 540), (960, 540), (960, 540), (960, 540), (960, 540), (960, 540), (960, 540), (960, 540), (960, 540), (960, 540), (960, 540), (960, 540), (960, 540), (960, 540), (960, 540), (960, 540), (960, 540), (960, 540), (960, 540), (960, 540), (960, 540), (960, 540), (960, 540), (960, 540), (960, 540), (960, 540), (960, 540), (960, 540), (960, 540), (960, 540), (960, 540), (960, 540), (960, 540), (960, 540), (960, 540), (960, 540), (960, 540), (960, 540), (960, 540), (960, 540), (960, 540), (960, 540), (960, 540), (960, 540), (960, 540), (960, 540), (960, 540), (960, 540), (960, 540), (960, 540), (960, 540), (960, 540), (960, 540), (960, 540), (960, 540), (960, 540), (960, 540), (960, 540), (960, 540), (960, 540), (960, 540), (960, 540), (960, 540), (960, 540), (960, 540), (960, 540), (960, 540), (960, 540), (960, 540), (960, 540), (960, 540), (960, 540), (960, 540), (960, 540), (960, 540), (960, 540), (960, 540), (960, 540), (960, 540), (960, 540), (960, 540), (960, 540), (960, 540), (960, 540), (960, 540), (960, 540), (960, 540), (960, 540), (960, 540), (960, 540), (960, 540), (960, 540), (960, 540), (960, 540), (960, 540), (960, 540), (960, 540), (960, 540), (960, 540), (960, 540), (960, 539), (960, 537), (960, 530), (960, 499), (960, 477), (960, 441), (960, 385), (960, 250), (960, 197), (958, 138)]",269.7149487224162,"[5, 1, 6, 4, 9, 8, 7, 2, 3]","(0, 0.25)",THI003D,THI,D,English,Tue Aug 14 11:58:26 2018,Mouse
1,2,4,0,60,2,2,1,1279,1179,100,134,0,500,200,8000,"[(960, 540), (960, 540), (960, 540), (960, 540), (960, 540), (960, 540), (960, 540), (960, 540), (960, 540), (960, 540), (960, 540), (960, 540), (960, 540), (960, 540), (960, 540), (960, 540), (960, 540), (960, 540), (960, 540), (960, 540), (960, 540), (960, 540), (960, 540), (960, 540), (960, 540), (960, 540), (960, 540), (960, 540), (960, 540), (960, 540), (960, 540), (960, 540), (960, 540), (960, 540), (960, 540), (960, 540), (960, 540), (960, 540), (960, 540), (960, 540), (960, 540), (960, 540), (960, 540), (960, 540), (960, 540), (960, 540), (960, 540), (960, 540), (960, 540), (960, 540), (960, 540), (960, 540), (960, 540), (960, 540), (960, 540), (960, 540), (960, 540), (960, 540), (960, 540), (960, 540), (960, 540), (960, 540), (960, 540), (960, 540), (960, 540), (960, 540), (960, 540), (960, 540), (960, 540), (960, 540), (960, 540), (960, 540), (960, 540), (960, 540), (960, 540), (960, 540), (960, 540), (960, 540), (960, 540), (960, 540), (960, 540), (960, 540), (960, 540), (960, 540), (960, 540), (960, 540), (960, 540), (960, 540), (960, 540), (960, 540), (960, 540), (960, 540), (960, 540), (960, 540), (960, 540), (960, 540), (960, 540), (960, 540), (960, 540), (960, 540), (960, 540), (960, 540), (960, 540), (960, 540), (960, 540), (960, 540), (960, 540), (960, 540), (960, 540), (960, 540), (960, 540), (960, 540), (960, 540), (960, 540), (960, 540), (960, 540), (960, 540), (964, 535), (973, 526), (986, 510), (1029, 460), (1058, 426), (1090, 394), (1122, 364), (1177, 293), (1198, 267), (1219, 241), (1233, 219)]",310.3800765183396,"[5, 1, 6, 4, 9, 8, 7, 2, 3]","(0, 0.25)",THI003D,THI,D,English,Tue Aug 14 11:58:26 2018,Mouse
1,2,4,0,61,5,5,1,439,389,50,133,0,500,200,8000,"[(960, 540), (960, 540), (960, 540), (960, 540), (960, 540), (960, 540), (960, 540), (960, 540), (960, 540), (960, 540), (960, 540), (960, 540), (960, 540), (960, 540), (960, 540), (960, 540), (960, 540), (960, 540), (960, 540), (960, 540), (960, 540), (960, 540), (960, 540), (960, 540), (960, 540), (960, 540), (960, 540), (960, 540), (960, 540), (960, 540), (960, 540), (960, 540), (960, 540), (960, 540), (960, 540), (960, 540), (960, 540), (960, 540), (969, 546), (996, 561), (1110, 613), (1180, 644), (1272, 679), (1358, 710)]",23.129056834783405,"[5, 1, 6, 4, 9, 8, 7, 2, 3]","(0, 0.25)",THI003D,THI,D,English,Tue Aug 14 11:58:26 2018,Mouse
1,2,4,0,62,5,5,1,319,249,70,132,0,500,200,8000,"[(960, 540), (960, 540), (960, 540), (960, 540), (960, 540), (960, 540), (960, 540), (960, 540), (960, 540), (960, 540), (960, 540), (960, 540), (960, 540), (960, 540), (960, 540), (960, 540), (960, 540), (960, 540), (960, 540), (960, 540), (960, 540), (960, 540), (960, 540), (960, 540), (962, 540), (969, 541), (991, 546), (1081, 566), (1142, 578), (1210, 593), (1281, 604), (1425, 630)]",10.954062643398334,"[5, 1, 6, 4, 9, 8, 7, 2, 3]","(0, 0.25)",THI003D,THI,D,English,Tue Aug 14 11:58:26 2018,Mouse
1,2,4,0,63,1,7,0,-770,660,110,131,0,500,200,8000,"[(960, 540), (960, 540), (960, 540), (960, 540), (960, 540), (960, 540), (960, 540), (960, 540), (960, 540), (960, 540), (960, 540), (960, 540), (960, 540), (960, 540), (960, 540), (960, 540), (960, 540), (960, 540), (960, 540), (960, 540), (960, 540), (960, 540), (960, 540), (960, 540), (960, 540), (960, 540), (960, 540), (960, 540), (960, 540), (960, 540), (960, 540), (960, 540), (960, 540), (960, 540), (960, 540), (960, 540), (960, 540), (960, 540), (960, 540), (960, 540), (960, 540), (960, 540), (960, 540), (960, 540), (960, 540), (960, 540), (960, 540), (960, 540), (960, 540), (960, 540), (960, 540), (960, 540), (960, 540), (960, 540), (960, 540), (960, 540), (960, 540), (960, 540), (960, 540), (960, 540), (960, 540), (960, 540), (960, 540), (960, 540), (960, 540), (959, 541), (953, 531), (951, 521), (944, 503), (936, 478), (912, 412), (892, 369), (873, 332), (852, 293), (810, 217), (792, 185), (778, 155)]",244.69862137458028,"[5, 1, 6, 4, 9, 8, 7, 2, 3]","(0, 0.25)",THI003D,THI,D,English,Tue Aug 14 11:58:26 2018,Mouse
1,2,4,0,64,2,7,0,-430,360,70,132,0,500,200,8000,"[(960, 540), (960, 540), (960, 540), (960, 540), (960, 540), (960, 540), (960, 540), (960, 540), (960, 540), (960, 540), (960, 540), (960, 540), (960, 540), (960, 540), (960, 540), (960, 540), (960, 540), (960, 540), (960, 540), (960, 540), (960, 540), (960, 540), (960, 540), (960, 540), (960, 540), (960, 540), (960, 540), (960, 540), (960, 540), (960, 540), (960, 540), (960, 540), (960, 540), (960, 540), (960, 540), (960, 538), (955, 512), (941, 460), (922, 401), (878, 279), (855, 227), (830, 189), (802, 142)]",248.34766852809108,"[5, 1, 6, 4, 9, 8, 7, 2, 3]","(0, 0.25)",THI003D,THI,D,English,Tue Aug 14 11:58:26 2018,Mouse
1,2,4,0,65,3,5,0,-449,289,160,133,0,500,200,8000,"[(960, 540), (960, 540), (960, 540), (960, 540), (960, 540), (960, 540), (960, 540), (960, 540), (960, 540), (960, 540), (960, 540), (960, 540), (960, 540), (960, 540), (960, 540), (960, 540), (960, 540), (960, 540), (960, 540), (960, 540), (960, 540), (960, 540), (960, 540), (960, 540), (960, 540), (960, 540), (960, 540), (960, 540), (961, 540), (961, 540), (961, 540), (961, 540), (961, 540), (962, 541), (962, 541), (971, 548), (980, 554), (986, 558), (996, 563), (1029, 577), (1069, 594), (1109, 609), (1160, 633), (1283, 680), (1353, 704)]",22.650913958465562,"[5, 1, 6, 4, 9, 8, 7, 2, 3]","(0, 0.25)",THI003D,THI,D,English,Tue Aug 14 11:58:26 2018,Mouse
1,2,4,0,66,5,1,0,-798,728,70,134,0,500,200,8000,"[(960, 540), (960, 540), (960, 540), (960, 540), (960, 540), (960, 540), (960, 540), (960, 540), (960, 540), (960, 540), (960, 540), (960, 540), (960, 540), (960, 540), (960, 540), (960, 540), (960, 540), (960, 540), (960, 540), (960, 540), (960, 540), (960, 540), (960, 540), (960, 540), (960, 540), (960, 540), (960, 540), (960, 540), (960, 540), (960, 540), (960, 540), (960, 540), (960, 540), (960, 540), (960, 540), (960, 540), (960, 540), (960, 540), (960, 540), (960, 540), (960, 540), (960, 540), (960, 540), (960, 540), (960, 540), (960, 540), (960, 540), (960, 540), (960, 540), (960, 540), (960, 540), (960, 540), (960, 540), (960, 540), (960, 540), (960, 540), (960, 540), (960, 540), (960, 540), (960, 540), (960, 540), (960, 540), (960, 540), (960, 540), (960, 540), (960, 540), (960, 540), (960, 540), (960, 540), (960, 540), (960, 540), (960, 540), (960, 543), (975, 574), (997, 605), (1024, 644), (1062, 694), (1146, 806), (1188, 856), (1233, 910)]",53.578689982821885,"[5, 1, 6, 4, 9, 8, 7, 2, 3]","(0, 0.25)",THI003D,THI,D,English,Tue Aug 14 11:58:26 2018,Mouse
1,2,4,0,67,7,3,0,-1008,948,60,135,0,500,200,8000,"[(960, 540), (960, 540), (960, 540), (960, 540), (960, 540), (960, 540), (960, 540), (960, 540), (960, 540), (960, 540), (960, 540), (960, 540), (960, 540), (960, 540), (960, 540), (960, 540), (960, 540), (960, 540), (960, 540), (960, 540), (960, 540), (960, 540), (960, 540), (960, 540), (960, 540), (960, 540), (960, 540), (960, 540), (960, 540), (960, 540), (960, 540), (960, 540), (960, 540), (960, 540), (960, 540), (960, 540), (960, 540), (960, 540), (960, 540), (960, 540), (960, 540), (960, 540), (960, 540), (960, 540), (960, 540), (960, 540), (960, 540), (960, 540), (960, 540), (960, 540), (960, 540), (960, 540), (960, 540), (960, 540), (960, 540), (960, 540), (960, 540), (960, 540), (960, 540), (960, 540), (960, 540), (960, 540), (960, 540), (960, 540), (960, 540), (960, 540), (960, 540), (960, 540), (960, 540), (960, 540), (960, 540), (960, 540), (960, 540), (960, 540), (960, 540), (960, 540), (960, 540), (960, 540), (960, 540), (960, 540), (960, 540), (960, 540), (960, 540), (960, 540), (960, 540), (960, 540), (960, 540), (960, 540), (960, 540), (960, 540), (960, 540), (960, 540), (960, 540), (960, 540), (969, 537), (997, 529), (1046, 519), (1170, 490), (1230, 475), (1292, 448), (1357, 424)]",343.71208940433445,"[5, 1, 6, 4, 9, 8, 7, 2, 3]","(0, 0.25)",THI003D,THI,D,English,Tue Aug 14 11:58:26 2018,Mouse
1,2,4,0,68,9,3,0,-1550,1450,100,136,0,500,200,8000,"[(960, 540), (960, 540), (960, 540), (960, 540), (960, 540), (960, 540), (960, 540), (960, 540), (960, 540), (960, 540), (960, 540), (960, 540), (960, 540), (960, 540), (960, 540), (960, 540), (960, 540), (960, 540), (960, 540), (960, 540), (960, 540), (960, 540), (960, 540), (960, 540), (960, 540), (960, 540), (960, 540), (960, 540), (960, 540), (960, 540), (960, 540), (960, 540), (960, 540), (960, 540), (960, 540), (960, 540), (960, 540), (960, 540), (960, 540), (960, 540), (960, 540), (960, 540), (960, 540), (960, 540), (960, 540), (960, 540), (960, 540), (960, 540), (960, 540), (960, 540), (960, 540), (960, 540), (960, 540), (960, 540), (960, 540), (960, 540), (960, 540), (960, 540), (960, 540), (960, 540), (960, 540), (960, 540), (960, 540), (960, 540), (960, 540), (960, 540), (960, 540), (960, 540), (960, 540), (960, 540), (960, 540), (960, 540), (960, 540), (960, 540), (960, 540), (960, 540), (960, 540), (960, 540), (960, 540), (960, 540), (960, 540), (960, 540), (960, 540), (960, 540), (960, 540), (960, 540), (960, 540), (960, 540), (960, 540), (960, 540), (960, 540), (960, 540), (960, 540), (960, 540), (960, 540), (960, 540), (960, 540), (960, 540), (960, 540), (960, 540), (960, 540), (960, 540), (960, 540), (960, 540), (960, 540), (960, 540), (960, 540), (960, 540), (960, 540), (960, 540), (960, 540), (960, 540), (960, 540), (960, 540), (960, 540), (960, 540), (960, 540), (960, 540), (960, 540), (960, 540), (960, 540), (960, 540), (960, 540), (960, 540), (960, 540), (960, 540), (960, 540), (960, 540), (960, 540), (960, 540), (960, 540), (960, 540), (960, 540), (960, 540), (960, 540), (960, 540), (960, 540), (960, 540), (960, 540), (960, 540), (960, 540), (960, 540), (960, 540), (960, 540), (960, 539), (965, 537), (973, 531), (1008, 512), (1035, 497), (1068, 477), (1107, 454), (1197, 404), (1246, 377), (1286, 358), (1320, 345)]",331.55707137563667,"[5, 1, 6, 4, 9, 8, 7, 2, 3]","(0, 0.25)",THI003D,THI,D,English,Tue Aug 14 11:58:26 2018,Mouse
1,2,4,0,69,3,3,1,257,187,70,137,0,500,200,8000,"[(960, 540), (960, 540), (960, 540), (960, 540), (960, 540), (960, 540), (960, 540), (960, 540), (960, 540), (960, 540), (960, 540), (960, 540), (960, 540), (960, 540), (960, 540), (960, 540), (960, 540), (960, 540), (963, 540), (991, 529), (1020, 517), (1063, 497), (1171, 447), (1237, 410), (1306, 366), (1377, 323)]",332.5082663118864,"[5, 1, 6, 4, 9, 8, 7, 2, 3]","(0, 0.25)",THI003D,THI,D,English,Tue Aug 14 11:58:26 2018,Mouse
1,2,4,0,70,3,3,1,320,260,60,137,0,500,200,8000,"[(960, 540), (960, 540), (960, 540), (960, 540), (960, 540), (960, 540), (960, 540), (960, 540), (960, 540), (960, 540), (960, 540), (960, 540), (960, 540), (960, 540), (960, 540), (960, 540), (960, 540), (960, 540), (960, 540), (960, 540), (960, 540), (960, 540), (960, 540), (960, 540), (960, 540), (966, 541), (982, 538), (1044, 515), (1090, 498), (1151, 477), (1215, 451), (1362, 384)]",338.79077386577717,"[5, 1, 6, 4, 9, 8, 7, 2, 3]","(0, 0.25)",THI003D,THI,D,English,Tue Aug 14 11:58:26 2018,Mouse
1,2,4,0,71,7,7,1,1380,510,870,136,0,500,200,8000,"[(960, 540), (960, 540), (960, 540), (960, 540), (960, 540), (960, 540), (960, 540), (960, 540), (960, 540), (960, 540), (960, 540), (960, 540), (960, 540), (960, 540), (960, 540), (960, 540), (960, 540), (960, 540), (960, 540), (960, 540), (960, 540), (960, 540), (960, 540), (960, 540), (960, 540), (960, 540), (960, 540), (960, 540), (960, 540), (960, 540), (960, 540), (960, 540), (960, 540), (960, 540), (960, 540), (960, 540), (960, 540), (960, 540), (960, 540), (960, 540), (960, 540), (960, 540), (960, 540), (960, 540), (960, 540), (960, 540), (960, 540), (960, 540), (960, 540), (960, 540), (961, 541), (961, 541), (961, 541), (961, 541), (961, 541), (961, 541), (961, 541), (961, 541), (961, 541), (961, 541), (961, 541), (961, 541), (961, 541), (961, 541), (961, 541), (961, 541), (961, 541), (961, 541), (961, 541), (961, 541), (961, 541), (961, 541), (961, 541), (961, 541), (961, 541), (961, 541), (961, 541), (961, 541), (961, 541), (961, 541), (961, 541), (961, 541), (961, 541), (961, 541), (961, 541), (961, 541), (961, 541), (961, 541), (961, 541), (961, 541), (961, 541), (961, 541), (961, 541), (961, 541), (961, 541), (961, 541), (961, 541), (961, 541), (961, 541), (961, 541), (961, 541), (961, 541), (961, 541), (961, 541), (961, 541), (961, 541), (961, 541), (961, 541), (961, 541), (961, 541), (961, 541), (961, 541), (961, 541), (961, 541), (961, 541), (961, 541), (961, 541), (961, 541), (961, 541), (961, 541), (961, 541), (961, 541), (961, 541), (961, 541), (961, 541), (961, 541), (961, 541), (961, 541), (961, 541), (962, 542), (962, 530), (962, 515), (962, 486), (962, 441), (968, 330), (976, 265), (987, 191), (997, 126)]",275.10706882370255,"[5, 1, 6, 4, 9, 8, 7, 2, 3]","(0, 0.25)",THI003D,THI,D,English,Tue Aug 14 11:58:26 2018,Mouse
1,2,4,0,72,2,2,1,688,638,50,135,0,500,200,8000,"[(960, 540), (960, 540), (960, 540), (960, 540), (960, 540), (960, 540), (960, 540), (960, 540), (960, 540), (960, 540), (960, 540), (960, 540), (960, 540), (960, 540), (960, 540), (960, 540), (960, 540), (960, 540), (960, 540), (960, 540), (960, 540), (960, 540), (960, 540), (960, 540), (960, 540), (960, 540), (960, 540), (960, 540), (960, 540), (960, 540), (960, 540), (960, 540), (960, 540), (960, 540), (960, 540), (960, 540), (960, 540), (960, 540), (960, 540), (960, 540), (960, 540), (960, 540), (960, 540), (960, 540), (960, 540), (960, 540), (960, 540), (960, 540), (960, 540), (960, 540), (960, 540), (960, 540), (960, 540), (960, 540), (960, 540), (960, 540), (960, 540), (960, 540), (960, 540), (960, 540), (960, 540), (960, 540), (960, 540), (970, 523), (996, 479), (1029, 430), (1065, 369), (1165, 243), (1213, 179)]",305.02396357724854,"[5, 1, 6, 4, 9, 8, 7, 2, 3]","(0, 0.25)",THI003D,THI,D,English,Tue Aug 14 11:58:26 2018,Mouse
1,2,4,0,73,7,7,1,3550,3490,60,134,0,500,200,8000,"[(960, 540), (960, 540), (960, 540), (960, 540), (960, 540), (960, 540), (960, 540), (960, 540), (960, 540), (960, 540), (960, 540), (960, 540), (960, 540), (960, 540), (960, 540), (960, 540), (960, 540), (960, 540), (960, 540), (960, 540), (960, 540), (960, 540), (960, 540), (960, 540), (960, 540), (960, 540), (960, 540), (960, 540), (960, 540), (960, 540), (960, 540), (960, 540), (960, 540), (960, 540), (960, 540), (960, 540), (960, 540), (960, 540), (960, 540), (960, 540), (960, 540), (960, 540), (960, 540), (960, 540), (960, 540), (960, 540), (960, 540), (960, 540), (960, 540), (960, 540), (960, 540), (960, 540), (960, 540), (960, 540), (960, 540), (960, 540), (960, 540), (960, 540), (960, 540), (960, 540), (960, 540), (960, 540), (960, 540), (960, 540), (960, 540), (960, 540), (960, 540), (960, 540), (960, 540), (960, 540), (960, 540), (960, 540), (960, 540), (960, 540), (960, 540), (960, 540), (960, 540), (960, 540), (960, 540), (960, 540), (960, 540), (960, 540), (960, 540), (960, 540), (960, 540), (960, 540), (960, 540), (960, 540), (960, 540), (960, 540), (960, 540), (960, 540), (960, 540), (960, 540), (960, 540), (960, 540), (960, 540), (960, 540), (960, 540), (960, 540), (960, 540), (960, 540), (960, 540), (960, 540), (960, 540), (960, 540), (960, 540), (960, 540), (960, 540), (960, 540), (960, 540), (960, 540), (960, 540), (960, 540), (960, 540), (960, 540), (960, 540), (960, 540), (960, 540), (960, 540), (960, 540), (960, 540), (960, 540), (960, 540), (960, 540), (960, 540), (960, 540), (960, 540), (960, 540), (960, 540), (960, 540), (960, 540), (960, 540), (960, 540), (960, 540), (960, 540), (960, 540), (960, 540), (960, 540), (960, 540), (960, 540), (960, 540), (960, 540), (960, 540), (960, 540), (960, 540), (960, 540), (960, 540), (960, 540), (960, 540), (960, 540), (960, 540), (960, 540), (960, 540), (960, 540), (960, 540), (960, 540), (960, 540), (960, 540), (960, 540), (960, 540), (960, 540), (960, 540), (960, 540), (960, 540), (960, 540), (960, 540), (960, 540), (960, 540), (960, 540), (960, 540), (960, 540), (960, 540), (960, 540), (960, 540), (960, 540), (960, 540), (960, 540), (960, 540), (960, 540), (960, 540), (960, 540), (960, 540), (960, 540), (960, 540), (960, 540), (960, 540), (960, 540), (960, 540), (960, 540), (960, 540), (960, 540), (960, 540), (960, 540), (960, 540), (960, 540), (960, 540), (960, 540), (960, 540), (960, 540), (960, 540), (960, 540), (960, 540), (960, 540), (960, 540), (960, 540), (960, 540), (960, 540), (960, 540), (960, 540), (960, 540), (960, 540), (960, 540), (960, 540), (960, 540), (960, 540), (960, 540), (960, 540), (960, 540), (960, 540), (960, 540), (960, 540), (960, 540), (960, 540), (960, 540), (960, 540), (960, 540), (960, 540), (960, 540), (960, 540), (960, 540), (960, 540), (960, 540), (960, 540), (960, 540), (960, 540), (960, 540), (960, 540), (960, 540), (960, 540), (960, 540), (960, 540), (960, 540), (960, 540), (960, 540), (960, 540), (960, 540), (960, 540), (960, 540), (960, 540), (960, 540), (960, 540), (960, 540), (960, 540), (960, 540), (960, 540), (960, 540), (960, 540), (960, 540), (960, 540), (960, 540), (960, 540), (960, 540), (960, 540), (960, 540), (960, 540), (960, 540), (960, 540), (960, 540), (960, 540), (960, 540), (960, 540), (960, 540), (960, 540), (960, 540), (960, 540), (960, 540), (960, 540), (960, 540), (960, 540), (960, 540), (960, 540), (960, 540), (960, 540), (960, 540), (960, 540), (960, 540), (960, 540), (960, 540), (960, 540), (960, 540), (960, 540), (960, 540), (960, 540), (960, 540), (960, 540), (960, 540), (960, 540), (960, 540), (960, 540), (960, 540), (960, 540), (960, 540), (960, 540), (960, 540), (960, 540), (960, 540), (960, 540), (960, 540), (960, 540), (960, 540), (960, 540), (960, 540), (960, 540), (960, 540), (960, 540), (960, 540), (960, 540), (960, 540), (960, 540), (960, 540), (960, 540), (960, 540), (960, 540), (960, 540), (960, 540), (960, 540), (960, 540), (960, 540), (960, 540), (960, 540), (960, 540), (960, 540), (960, 540), (960, 540), (960, 540), (960, 540), (960, 540), (960, 540), (960, 540), (960, 540), (960, 540), (960, 540), (960, 540), (960, 540), (960, 540), (960, 540), (960, 540), (960, 531), (950, 506), (918, 411), (906, 361), (898, 296), (892, 234), (892, 113)]",260.95159447357855,"[5, 1, 6, 4, 9, 8, 7, 2, 3]","(0, 0.25)",THI003D,THI,D,English,Tue Aug 14 11:58:26 2018,Mouse
