NativeLangNumber,LanuageNumber,SessionNumber,Block,TrialNum,ConditionNumber,Response,Accuracy,RT,MovementOnsetTime,TimeInMotion,SignalContrast,SignalContrastNumber,StimDisplayTime,MaskTime,MaxResponseTime,MousePositionXY,MouseAngle,WheelOrder,NoiseMuSigma,ParticipantID,LanuageTested,SessionTested,NativeLanuage,Date,ResponseDevice
1,2,2,0,1,3,7,0,-3070,730,2340,153,0,500,200,8000,"[(960, 540), (960, 540), (960, 540), (960, 540), (960, 540), (960, 540), (960, 540), (960, 540), (960, 540), (960, 540), (960, 540), (960, 540), (960, 540), (960, 540), (960, 540), (960, 540), (960, 540), (960, 540), (960, 540), (960, 540), (960, 540), (960, 540), (960, 540), (960, 540), (960, 540), (960, 540), (960, 540), (960, 540), (960, 540), (960, 540), (960, 540), (960, 540), (960, 540), (960, 540), (960, 540), (960, 540), (960, 540), (960, 540), (960, 540), (960, 540), (960, 540), (960, 540), (960, 540), (960, 540), (960, 540), (960, 540), (960, 540), (960, 540), (960, 540), (960, 540), (960, 540), (960, 540), (960, 540), (960, 540), (960, 540), (960, 540), (960, 540), (960, 540), (960, 540), (960, 540), (960, 540), (960, 540), (960, 540), (960, 540), (960, 540), (960, 540), (960, 540), (960, 540), (960, 540), (960, 540), (960, 540), (960, 540), (960, 541), (960, 541), (960, 541), (960, 541), (960, 541), (960, 541), (960, 541), (960, 541), (960, 541), (960, 541), (960, 541), (960, 541), (960, 542), (960, 542), (960, 542), (960, 542), (960, 542), (960, 542), (960, 543), (960, 543), (960, 543), (960, 543), (960, 543), (960, 543), (960, 544), (959, 544), (959, 544), (959, 544), (959, 544), (959, 544), (959, 544), (959, 544), (959, 544), (959, 544), (959, 544), (959, 544), (959, 544), (959, 544), (959, 544), (959, 544), (959, 544), (958, 545), (958, 545), (958, 545), (958, 545), (958, 545), (958, 545), (958, 545), (958, 545), (958, 545), (958, 545), (958, 545), (958, 545), (958, 545), (958, 545), (958, 545), (958, 545), (958, 545), (958, 545), (958, 545), (958, 545), (958, 545), (958, 546), (958, 546), (958, 546), (958, 546), (958, 546), (958, 546), (958, 546), (958, 546), (958, 546), (958, 546), (958, 546), (958, 546), (958, 546), (958, 546), (957, 547), (957, 547), (957, 547), (957, 547), (957, 548), (957, 548), (957, 548), (957, 548), (956, 548), (956, 548), (956, 548), (956, 548), (956, 548), (956, 548), (956, 548), (956, 549), (956, 549), (956, 549), (954, 550), (954, 550), (954, 550), (954, 551), (954, 551), (954, 551), (953, 551), (952, 551), (952, 551), (951, 552), (951, 552), (950, 552), (949, 553), (949, 553), (949, 554), (948, 554), (948, 554), (948, 554), (948, 554), (947, 555), (947, 555), (947, 555), (946, 555), (945, 556), (945, 556), (945, 556), (943, 557), (943, 557), (943, 557), (943, 557), (943, 557), (943, 557), (942, 558), (942, 558), (941, 558), (940, 558), (939, 559), (939, 559), (937, 560), (937, 560), (936, 560), (936, 560), (936, 560), (936, 560), (936, 560), (936, 560), (935, 560), (935, 560), (934, 560), (934, 560), (933, 561), (931, 561), (931, 561), (931, 562), (931, 562), (930, 563), (930, 563), (930, 563), (930, 563), (930, 563), (930, 563), (929, 563), (929, 563), (928, 563), (928, 564), (928, 564), (925, 565), (922, 567), (916, 570), (913, 572), (910, 574), (908, 575), (906, 578), (904, 578), (894, 583), (891, 585), (887, 588), (885, 589), (881, 593), (879, 595), (878, 596), (877, 597), (875, 599), (874, 599), (874, 599), (874, 600), (873, 602), (873, 602), (872, 602), (871, 603), (869, 606), (867, 608), (864, 609), (862, 611), (856, 616), (854, 618), (849, 621), (844, 625), (837, 631), (834, 634), (833, 635), (830, 638), (827, 641), (824, 644), (824, 645), (822, 647), (819, 653), (815, 657), (811, 661), (810, 663), (804, 673), (800, 678), (796, 683), (792, 689), (787, 697), (785, 700), (782, 704), (782, 706), (779, 711), (779, 713), (777, 717), (774, 721), (768, 731), (765, 734), (762, 739), (760, 741), (755, 747), (755, 748), (753, 750), (752, 752), (750, 755), (748, 759), (745, 764), (742, 769), (732, 783), (724, 792), (717, 798), (708, 806), (691, 820), (683, 827), (678, 832)]",134.0019166565923,"[1, 3, 2, 7, 9, 4, 5, 6, 8]","(0, 0.25)",THI007B,THI,B,English,Wed Aug 22 15:36:24 2018,Mouse
1,2,2,0,2,4,4,1,1278,58,1220,154,0,500,200,8000,"[(960, 540), (960, 540), (960, 540), (960, 540), (960, 540), (961, 538), (961, 538), (963, 538), (965, 536), (967, 536), (968, 534), (971, 533), (974, 530), (977, 530), (979, 528), (980, 527), (985, 525), (987, 524), (989, 523), (994, 521), (1003, 519), (1007, 518), (1012, 517), (1018, 515), (1027, 510), (1029, 509), (1032, 508), (1035, 508), (1038, 505), (1041, 505), (1043, 504), (1046, 502), (1049, 502), (1050, 502), (1052, 501), (1052, 501), (1053, 501), (1053, 501), (1053, 501), (1053, 501), (1053, 501), (1053, 501), (1053, 501), (1053, 501), (1053, 501), (1053, 501), (1054, 500), (1054, 500), (1055, 500), (1055, 499), (1055, 499), (1056, 497), (1057, 492), (1057, 492), (1057, 491), (1057, 490), (1057, 485), (1057, 480), (1053, 474), (1049, 468), (1039, 457), (1038, 454), (1035, 451), (1034, 449), (1031, 446), (1028, 443), (1026, 442), (1024, 438), (1015, 431), (1008, 425), (999, 419), (991, 413), (976, 403), (970, 399), (968, 398), (967, 397), (962, 394), (959, 393), (957, 391), (953, 390), (947, 390), (945, 389), (944, 389), (944, 388), (942, 386), (941, 386), (941, 385), (941, 384), (941, 384), (941, 384), (941, 383), (941, 381), (941, 380), (941, 380), (941, 379), (941, 376), (941, 369), (941, 369), (941, 367), (941, 366), (941, 363), (941, 359), (941, 357), (941, 355), (940, 346), (936, 340), (931, 333), (925, 326), (909, 317), (903, 312), (895, 307), (888, 304), (871, 300), (866, 299), (858, 297), (849, 293), (828, 286), (817, 282), (806, 277), (794, 272), (776, 265), (768, 259), (762, 255), (753, 252), (739, 243), (730, 238), (715, 232), (701, 223)]",230.74998521071066,"[1, 3, 2, 7, 9, 4, 5, 6, 8]","(0, 0.25)",THI007B,THI,B,English,Wed Aug 22 15:36:24 2018,Mouse
1,2,2,0,3,6,6,1,960,130,830,154,0,500,200,8000,"[(960, 540), (960, 540), (960, 540), (960, 540), (960, 540), (960, 540), (960, 540), (960, 540), (960, 540), (960, 540), (960, 540), (960, 540), (961, 540), (961, 540), (961, 540), (962, 540), (962, 540), (962, 540), (963, 540), (963, 540), (964, 540), (964, 540), (965, 540), (966, 540), (966, 540), (966, 540), (967, 540), (969, 540), (970, 540), (971, 540), (972, 540), (975, 540), (976, 540), (978, 540), (978, 540), (979, 540), (979, 540), (979, 540), (981, 540), (982, 540), (984, 540), (986, 540), (988, 540), (992, 540), (994, 540), (995, 540), (996, 540), (998, 540), (999, 540), (999, 540), (1001, 540), (1002, 540), (1004, 540), (1004, 540), (1004, 540), (1005, 540), (1005, 540), (1005, 540), (1007, 540), (1007, 540), (1007, 540), (1007, 540), (1009, 540), (1010, 540), (1011, 540), (1013, 540), (1014, 540), (1018, 539), (1020, 539), (1021, 538), (1024, 538), (1028, 533), (1033, 525), (1037, 519), (1042, 508), (1060, 479), (1066, 469), (1072, 458), (1080, 446), (1098, 411), (1104, 398), (1108, 386), (1112, 366), (1116, 330), (1119, 311), (1120, 298), (1121, 285), (1126, 260), (1127, 252), (1128, 242), (1130, 233), (1136, 211), (1139, 203), (1141, 195), (1143, 187), (1149, 173)]",297.2478504606664,"[1, 3, 2, 7, 9, 4, 5, 6, 8]","(0, 0.25)",THI007B,THI,B,English,Wed Aug 22 15:36:24 2018,Mouse
1,2,2,0,4,2,2,1,759,69,690,153,0,500,200,8000,"[(960, 540), (960, 540), (960, 540), (960, 540), (960, 540), (960, 540), (960, 541), (960, 541), (960, 541), (960, 541), (960, 542), (960, 542), (960, 542), (960, 542), (960, 542), (960, 542), (960, 542), (960, 542), (960, 542), (960, 543), (960, 543), (960, 543), (960, 543), (960, 543), (960, 543), (960, 543), (960, 544), (960, 545), (960, 545), (959, 546), (959, 546), (959, 546), (959, 546), (959, 548), (957, 549), (957, 550), (957, 550), (957, 551), (956, 552), (955, 553), (955, 555), (955, 558), (955, 572), (955, 584), (955, 592), (955, 600), (955, 613), (955, 620), (955, 628), (955, 636), (955, 657), (955, 666), (955, 677), (955, 687), (955, 706), (955, 714), (957, 721), (957, 728), (957, 739), (957, 743), (957, 748), (957, 752), (957, 766), (955, 777), (953, 789), (951, 805), (947, 827), (945, 835), (942, 845), (939, 856), (928, 885), (925, 895), (923, 901), (918, 908), (917, 934), (917, 944)]",96.07544009618658,"[1, 3, 2, 7, 9, 4, 5, 6, 8]","(0, 0.25)",THI007B,THI,B,English,Wed Aug 22 15:36:24 2018,Mouse
1,2,2,0,5,2,2,1,320,80,240,152,0,500,200,8000,"[(960, 540), (960, 540), (960, 540), (960, 540), (960, 540), (960, 540), (960, 540), (960, 543), (958, 545), (957, 551), (955, 559), (953, 566), (951, 575), (944, 608), (940, 627), (935, 644), (931, 656), (926, 678), (922, 686), (922, 691), (921, 700), (918, 721), (917, 734), (916, 748), (916, 763), (916, 804), (916, 823), (916, 846), (916, 868), (916, 910), (916, 930), (911, 951)]",96.79879278069096,"[1, 3, 2, 7, 9, 4, 5, 6, 8]","(0, 0.25)",THI007B,THI,B,English,Wed Aug 22 15:36:24 2018,Mouse
1,2,2,0,6,6,6,1,2010,20,1990,151,0,500,200,8000,"[(960, 541), (962, 541), (963, 541), (964, 541), (967, 541), (967, 541), (970, 541), (971, 541), (973, 541), (975, 541), (976, 541), (976, 542), (977, 542), (977, 542), (977, 542), (977, 542), (977, 542), (977, 542), (977, 542), (977, 542), (978, 542), (979, 542), (979, 542), (980, 542), (983, 542), (983, 542), (984, 542), (986, 542), (986, 542), (986, 542), (986, 541), (986, 541), (986, 541), (988, 541), (988, 541), (989, 541), (991, 541), (992, 540), (992, 540), (992, 540), (992, 540), (992, 540), (993, 540), (993, 540), (993, 540), (993, 540), (993, 540), (993, 540), (994, 540), (994, 540), (994, 540), (994, 540), (995, 540), (995, 540), (995, 540), (996, 540), (996, 540), (996, 540), (997, 540), (997, 540), (997, 540), (997, 540), (997, 540), (997, 540), (997, 540), (997, 540), (997, 540), (997, 540), (997, 540), (997, 540), (997, 540), (997, 540), (998, 540), (999, 540), (1000, 540), (1000, 540), (1002, 541), (1003, 542), (1003, 542), (1003, 542), (1003, 542), (1003, 542), (1003, 542), (1003, 542), (1003, 542), (1003, 542), (1003, 542), (1003, 542), (1004, 542), (1004, 542), (1004, 542), (1004, 542), (1004, 542), (1004, 542), (1004, 542), (1004, 542), (1005, 543), (1005, 543), (1005, 543), (1005, 543), (1005, 543), (1005, 543), (1005, 543), (1005, 543), (1005, 543), (1005, 543), (1005, 543), (1005, 543), (1005, 543), (1005, 543), (1005, 543), (1005, 543), (1005, 543), (1005, 543), (1005, 543), (1005, 543), (1005, 543), (1005, 543), (1005, 543), (1005, 543), (1005, 543), (1005, 543), (1005, 543), (1005, 543), (1004, 543), (1003, 543), (1002, 543), (1001, 543), (997, 542), (996, 540), (994, 539), (994, 539), (993, 538), (992, 537), (992, 537), (992, 536), (990, 534), (989, 533), (988, 531), (985, 529), (982, 525), (980, 524), (978, 522), (977, 521), (975, 519), (974, 518), (973, 516), (972, 515), (971, 512), (971, 512), (970, 510), (969, 508), (969, 506), (969, 506), (969, 504), (969, 503), (969, 494), (969, 489), (970, 483), (972, 474), (981, 451), (986, 438), (989, 427), (992, 417), (996, 401), (999, 394), (1002, 389), (1003, 386), (1008, 379), (1009, 376), (1011, 371), (1013, 366), (1021, 354), (1026, 347), (1029, 341), (1033, 334), (1041, 321), (1043, 315), (1045, 313), (1046, 311), (1050, 306), (1054, 299), (1056, 292), (1062, 284), (1070, 273), (1075, 266), (1078, 262), (1082, 257), (1085, 253), (1087, 250), (1089, 249), (1090, 247), (1093, 243), (1097, 238), (1101, 233), (1106, 227), (1121, 213), (1128, 207), (1134, 201), (1140, 197), (1155, 184)]",298.71184808070734,"[1, 3, 2, 7, 9, 4, 5, 6, 8]","(0, 0.25)",THI007B,THI,B,English,Wed Aug 22 15:36:24 2018,Mouse
1,2,2,0,7,9,9,1,1930,1630,300,150,0,500,200,8000,"[(960, 540), (960, 540), (960, 540), (960, 540), (960, 540), (960, 540), (960, 540), (960, 540), (960, 540), (960, 540), (960, 540), (960, 540), (960, 540), (960, 540), (960, 540), (960, 540), (960, 540), (960, 540), (960, 540), (960, 540), (960, 540), (960, 540), (960, 540), (960, 540), (960, 540), (960, 540), (960, 540), (960, 540), (960, 540), (960, 540), (960, 540), (960, 540), (960, 540), (960, 540), (960, 540), (960, 540), (960, 540), (960, 540), (960, 540), (960, 540), (960, 540), (960, 540), (960, 540), (960, 540), (960, 540), (960, 540), (960, 540), (960, 540), (960, 540), (960, 540), (960, 540), (960, 540), (960, 540), (960, 540), (960, 540), (960, 540), (960, 540), (960, 540), (960, 540), (960, 540), (960, 540), (960, 540), (960, 540), (960, 540), (960, 540), (960, 540), (960, 540), (960, 540), (960, 540), (960, 540), (960, 540), (960, 540), (960, 540), (960, 540), (960, 540), (960, 540), (960, 540), (960, 540), (960, 540), (960, 540), (960, 540), (960, 540), (960, 540), (960, 540), (960, 540), (960, 540), (960, 540), (960, 540), (960, 540), (960, 540), (960, 540), (960, 540), (960, 540), (960, 540), (960, 540), (960, 540), (960, 540), (960, 540), (960, 540), (960, 540), (960, 540), (960, 540), (960, 540), (960, 540), (960, 540), (960, 540), (960, 540), (960, 540), (960, 540), (960, 540), (960, 540), (960, 540), (960, 540), (960, 540), (960, 540), (960, 540), (960, 540), (960, 540), (960, 540), (960, 540), (960, 540), (960, 540), (960, 540), (960, 540), (960, 540), (960, 540), (960, 540), (960, 540), (960, 540), (960, 540), (960, 540), (960, 540), (960, 540), (960, 540), (960, 540), (960, 540), (960, 540), (960, 540), (960, 540), (960, 540), (960, 540), (960, 540), (960, 540), (960, 540), (960, 540), (960, 540), (960, 540), (960, 540), (960, 540), (960, 540), (960, 540), (960, 540), (960, 540), (960, 540), (960, 540), (960, 540), (960, 540), (960, 540), (960, 540), (960, 540), (960, 540), (960, 540), (959, 540), (956, 540), (953, 540), (948, 540), (934, 537), (927, 537), (917, 535), (906, 533), (880, 530), (866, 528), (854, 526), (839, 525), (812, 521), (799, 520), (790, 520), (779, 520), (756, 520), (737, 520), (713, 523), (689, 528), (654, 536), (639, 541), (627, 543), (615, 548), (597, 553), (590, 556), (586, 558), (580, 561), (571, 564), (562, 567), (553, 568)]",176.06447660576637,"[1, 3, 2, 7, 9, 4, 5, 6, 8]","(0, 0.25)",THI007B,THI,B,English,Wed Aug 22 15:36:24 2018,Mouse
1,2,2,0,8,8,8,1,430,80,350,149,0,500,200,8000,"[(960, 540), (960, 540), (960, 540), (960, 540), (960, 540), (960, 540), (960, 540), (960, 539), (963, 538), (964, 538), (966, 537), (968, 535), (973, 533), (977, 530), (978, 530), (980, 529), (984, 528), (986, 527), (990, 527), (993, 527), (1002, 527), (1007, 527), (1016, 526), (1023, 525), (1036, 520), (1042, 519), (1049, 515), (1061, 508), (1096, 485), (1115, 473), (1136, 460), (1153, 451), (1191, 429), (1212, 417), (1226, 408), (1240, 399), (1261, 384), (1271, 376), (1280, 370), (1288, 364), (1303, 357), (1309, 354), (1314, 353)]",332.1548092633171,"[1, 3, 2, 7, 9, 4, 5, 6, 8]","(0, 0.25)",THI007B,THI,B,English,Wed Aug 22 15:36:24 2018,Mouse
1,2,2,0,9,9,9,1,1220,130,1090,148,0,500,200,8000,"[(960, 540), (960, 540), (960, 540), (960, 540), (960, 540), (960, 540), (960, 540), (960, 540), (960, 540), (960, 540), (960, 540), (960, 540), (960, 541), (960, 541), (960, 541), (960, 542), (960, 542), (960, 542), (960, 542), (960, 542), (960, 542), (960, 542), (960, 542), (960, 542), (960, 542), (960, 542), (960, 542), (960, 542), (960, 542), (960, 542), (960, 542), (960, 542), (960, 542), (960, 542), (960, 542), (960, 542), (960, 542), (960, 542), (960, 542), (960, 542), (960, 543), (960, 543), (960, 544), (960, 544), (960, 545), (960, 545), (960, 547), (960, 549), (960, 552), (960, 555), (959, 561), (956, 567), (948, 580), (941, 588), (937, 594), (932, 599), (927, 603), (924, 606), (920, 609), (917, 611), (903, 623), (890, 633), (880, 640), (864, 651), (842, 664), (834, 669), (828, 673), (822, 675), (818, 676), (818, 677), (818, 677), (818, 677), (818, 677), (818, 677), (818, 677), (818, 677), (818, 677), (818, 677), (818, 677), (818, 677), (818, 677), (818, 677), (819, 677), (822, 677), (828, 676), (831, 676), (833, 675), (836, 675), (839, 673), (842, 672), (842, 671), (842, 671), (843, 669), (843, 665), (842, 658), (840, 651), (827, 630), (817, 617), (811, 607), (804, 599), (795, 591), (793, 589), (790, 588), (786, 585), (774, 580), (767, 579), (758, 576), (748, 575), (726, 569), (712, 568), (698, 565), (684, 561), (662, 556), (652, 554), (647, 553), (637, 551), (622, 550), (610, 548), (598, 546), (586, 545), (561, 540), (553, 539)]",180.14077558775907,"[1, 3, 2, 7, 9, 4, 5, 6, 8]","(0, 0.25)",THI007B,THI,B,English,Wed Aug 22 15:36:24 2018,Mouse
1,2,2,0,10,3,3,1,719,139,580,147,0,500,200,8000,"[(960, 540), (960, 540), (960, 540), (960, 540), (960, 540), (960, 540), (960, 540), (960, 540), (960, 540), (960, 540), (960, 540), (960, 540), (960, 540), (961, 540), (961, 540), (961, 540), (961, 540), (961, 540), (961, 540), (961, 540), (961, 540), (961, 540), (961, 540), (961, 540), (961, 540), (961, 540), (961, 540), (961, 540), (961, 540), (961, 540), (961, 540), (961, 540), (961, 540), (963, 540), (964, 540), (965, 539), (967, 539), (972, 538), (978, 538), (983, 538), (989, 538), (1000, 538), (1008, 539), (1015, 539), (1025, 542), (1041, 547), (1048, 549), (1056, 553), (1063, 559), (1075, 569), (1080, 578), (1084, 584), (1087, 590), (1095, 607), (1099, 617), (1101, 630), (1105, 641), (1112, 675), (1118, 695), (1121, 713), (1126, 735), (1132, 767), (1134, 778), (1134, 786), (1136, 793), (1138, 806), (1139, 813), (1142, 823), (1149, 841), (1153, 866), (1157, 884), (1160, 896)]",60.6728205095432,"[1, 3, 2, 7, 9, 4, 5, 6, 8]","(0, 0.25)",THI007B,THI,B,English,Wed Aug 22 15:36:24 2018,Mouse
1,2,2,0,11,8,8,1,351,11,340,146,0,500,200,8000,"[(960, 540), (971, 535), (980, 532), (987, 528), (994, 525), (1012, 516), (1019, 512), (1025, 509), (1031, 506), (1043, 500), (1051, 496), (1058, 494), (1065, 490), (1079, 485), (1084, 483), (1090, 480), (1095, 478), (1103, 474), (1108, 471), (1113, 469), (1121, 463), (1136, 458), (1145, 454), (1152, 451), (1159, 448), (1177, 439), (1184, 437), (1194, 434), (1203, 429), (1224, 422), (1236, 420), (1252, 415), (1275, 408), (1315, 395), (1328, 393), (1341, 387)]",338.1208486624247,"[1, 3, 2, 7, 9, 4, 5, 6, 8]","(0, 0.25)",THI007B,THI,B,English,Wed Aug 22 15:36:24 2018,Mouse
1,2,2,0,12,7,7,1,690,190,500,145,0,500,200,8000,"[(960, 540), (960, 540), (960, 540), (960, 540), (960, 540), (960, 540), (960, 540), (960, 540), (960, 540), (960, 540), (960, 540), (960, 540), (960, 540), (960, 540), (960, 540), (960, 540), (960, 540), (960, 540), (960, 542), (960, 542), (960, 545), (960, 546), (960, 548), (960, 549), (960, 551), (960, 552), (958, 554), (958, 555), (957, 557), (956, 559), (955, 562), (953, 567), (948, 578), (945, 586), (943, 592), (940, 597), (938, 605), (938, 606), (938, 608), (938, 610), (937, 612), (937, 613), (937, 614), (937, 615), (936, 617), (936, 618), (935, 619), (935, 620), (935, 621), (935, 622), (934, 623), (933, 625), (927, 632), (924, 636), (919, 641), (911, 651), (893, 670), (878, 682), (861, 691), (845, 703), (806, 720), (791, 726), (777, 735), (763, 742), (740, 756), (723, 769), (706, 781), (689, 792), (656, 813)]",138.07532607805206,"[1, 3, 2, 7, 9, 4, 5, 6, 8]","(0, 0.25)",THI007B,THI,B,English,Wed Aug 22 15:36:24 2018,Mouse
1,2,2,0,13,9,9,1,549,269,280,144,0,500,200,8000,"[(960, 540), (960, 540), (960, 540), (960, 540), (960, 540), (960, 540), (960, 540), (960, 540), (960, 540), (960, 540), (960, 540), (960, 540), (960, 540), (960, 540), (960, 540), (960, 540), (960, 540), (960, 540), (960, 540), (960, 540), (960, 540), (960, 540), (960, 540), (960, 540), (960, 540), (960, 540), (959, 539), (956, 539), (953, 537), (949, 537), (936, 535), (928, 535), (919, 534), (911, 531), (893, 530), (885, 530), (875, 530), (863, 530), (832, 530), (817, 530), (800, 530), (787, 530), (756, 533), (741, 535), (724, 540), (710, 544), (685, 549), (671, 551), (657, 552), (642, 552), (608, 552), (595, 552), (580, 552), (569, 552), (548, 552)]",178.3316625517067,"[1, 3, 2, 7, 9, 4, 5, 6, 8]","(0, 0.25)",THI007B,THI,B,English,Wed Aug 22 15:36:24 2018,Mouse
1,2,2,0,14,7,7,1,779,349,430,143,0,500,200,8000,"[(960, 540), (960, 540), (960, 540), (960, 540), (960, 540), (960, 540), (960, 540), (960, 540), (960, 540), (960, 540), (960, 540), (960, 540), (960, 540), (960, 540), (960, 540), (960, 540), (960, 540), (960, 540), (960, 540), (960, 540), (960, 540), (960, 540), (960, 540), (960, 540), (960, 540), (960, 540), (960, 540), (960, 540), (960, 540), (960, 540), (960, 540), (960, 540), (960, 540), (960, 540), (961, 542), (961, 542), (961, 544), (960, 545), (958, 549), (957, 550), (957, 551), (957, 552), (954, 556), (954, 557), (953, 560), (952, 562), (950, 564), (949, 566), (949, 566), (949, 566), (948, 567), (948, 568), (947, 568), (946, 569), (944, 570), (942, 572), (939, 573), (936, 575), (928, 580), (923, 584), (918, 588), (913, 592), (903, 597), (897, 601), (889, 604), (883, 607), (864, 614), (855, 618), (842, 628), (827, 638), (806, 656), (789, 669), (769, 685), (746, 701), (687, 742), (662, 760), (640, 774), (619, 785)]",144.3036964241784,"[1, 3, 2, 7, 9, 4, 5, 6, 8]","(0, 0.25)",THI007B,THI,B,English,Wed Aug 22 15:36:24 2018,Mouse
1,2,2,0,15,2,2,1,521,71,450,142,0,500,200,8000,"[(960, 540), (960, 540), (960, 540), (960, 540), (960, 540), (960, 540), (960, 540), (961, 540), (961, 540), (961, 540), (961, 540), (961, 540), (961, 540), (961, 540), (961, 540), (961, 540), (961, 540), (961, 540), (961, 540), (961, 540), (961, 540), (961, 540), (961, 540), (961, 540), (962, 540), (962, 540), (962, 540), (963, 540), (965, 540), (965, 540), (965, 541), (965, 541), (965, 543), (965, 543), (965, 544), (965, 546), (965, 553), (965, 560), (965, 569), (965, 580), (960, 600), (957, 614), (953, 626), (948, 642), (937, 679), (930, 694), (923, 714), (915, 742), (909, 795), (909, 831), (909, 862), (909, 892), (909, 937)]",97.32032193724508,"[1, 3, 2, 7, 9, 4, 5, 6, 8]","(0, 0.25)",THI007B,THI,B,English,Wed Aug 22 15:36:24 2018,Mouse
1,2,2,0,16,6,6,1,1271,11,1260,141,0,500,200,8000,"[(960, 540), (961, 540), (961, 539), (963, 539), (963, 538), (963, 538), (964, 538), (964, 538), (965, 537), (965, 537), (966, 536), (967, 535), (967, 535), (967, 535), (967, 535), (969, 534), (970, 533), (970, 532), (972, 532), (974, 530), (975, 530), (977, 530), (979, 529), (983, 527), (986, 526), (989, 524), (991, 523), (998, 521), (1002, 520), (1005, 519), (1008, 518), (1016, 515), (1020, 514), (1025, 514), (1028, 514), (1038, 512), (1040, 510), (1042, 510), (1048, 508), (1054, 507), (1059, 505), (1065, 502), (1068, 501), (1075, 500), (1077, 500), (1080, 500), (1083, 498), (1085, 498), (1087, 498), (1087, 498), (1087, 498), (1089, 498), (1090, 498), (1090, 498), (1091, 498), (1092, 498), (1092, 498), (1092, 498), (1092, 498), (1093, 498), (1094, 498), (1095, 498), (1096, 500), (1097, 504), (1100, 506), (1101, 508), (1104, 511), (1107, 514), (1107, 515), (1108, 516), (1108, 516), (1109, 517), (1109, 518), (1109, 518), (1109, 519), (1110, 521), (1111, 522), (1111, 522), (1112, 523), (1112, 523), (1112, 523), (1112, 523), (1112, 523), (1112, 523), (1112, 522), (1112, 517), (1112, 510), (1109, 494), (1107, 488), (1105, 481), (1105, 470), (1103, 449), (1103, 445), (1103, 442), (1103, 441), (1103, 437), (1103, 435), (1103, 432), (1103, 431), (1103, 424), (1104, 419), (1106, 413), (1109, 402), (1111, 387), (1116, 374), (1121, 358), (1124, 342), (1130, 305), (1131, 293), (1131, 288), (1133, 282), (1133, 272), (1133, 270), (1133, 267), (1133, 267), (1134, 264), (1135, 263), (1136, 262), (1137, 260), (1140, 251), (1141, 248), (1142, 242), (1145, 232), (1147, 218), (1150, 212), (1153, 202), (1157, 195), (1162, 179)]",299.22949088481727,"[1, 3, 2, 7, 9, 4, 5, 6, 8]","(0, 0.25)",THI007B,THI,B,English,Wed Aug 22 15:36:24 2018,Mouse
1,2,2,0,17,1,1,1,469,19,450,140,0,500,200,8000,"[(961, 540), (962, 539), (962, 538), (962, 538), (963, 538), (963, 538), (966, 538), (966, 538), (968, 538), (969, 538), (972, 538), (972, 538), (973, 538), (975, 538), (976, 538), (977, 538), (979, 538), (982, 538), (990, 538), (997, 538), (1007, 540), (1016, 541), (1036, 543), (1043, 543), (1051, 547), (1060, 547), (1072, 548), (1078, 549), (1081, 549), (1085, 549), (1090, 549), (1095, 549), (1100, 550), (1104, 550), (1117, 552), (1124, 553), (1135, 557), (1148, 561), (1170, 568), (1183, 570), (1200, 581), (1225, 596), (1268, 621), (1283, 627), (1304, 636), (1329, 650), (1381, 684)]",18.882881114563613,"[1, 3, 2, 7, 9, 4, 5, 6, 8]","(0, 0.25)",THI007B,THI,B,English,Wed Aug 22 15:36:24 2018,Mouse
1,2,2,0,18,9,9,1,709,69,640,139,0,500,200,8000,"[(960, 540), (960, 540), (960, 540), (960, 540), (960, 540), (960, 540), (960, 539), (960, 539), (960, 539), (960, 538), (960, 538), (960, 538), (960, 538), (960, 538), (960, 537), (960, 537), (960, 537), (960, 537), (960, 537), (960, 537), (960, 537), (960, 537), (960, 537), (960, 537), (960, 537), (960, 537), (960, 537), (960, 537), (960, 537), (960, 537), (960, 537), (960, 537), (960, 537), (960, 537), (960, 537), (960, 537), (960, 537), (960, 537), (960, 537), (960, 537), (960, 537), (960, 537), (960, 537), (960, 537), (960, 537), (960, 537), (960, 537), (960, 537), (960, 537), (960, 537), (960, 537), (960, 537), (955, 536), (950, 536), (936, 535), (927, 535), (913, 533), (901, 530), (873, 528), (860, 526), (843, 524), (825, 523), (793, 522), (769, 519), (737, 514), (702, 509), (641, 501), (620, 498), (599, 495), (585, 494), (559, 489)]",187.24808165722283,"[1, 3, 2, 7, 9, 4, 5, 6, 8]","(0, 0.25)",THI007B,THI,B,English,Wed Aug 22 15:36:24 2018,Mouse
1,2,2,0,19,8,8,1,600,250,350,138,0,500,200,8000,"[(960, 540), (960, 540), (960, 540), (960, 540), (960, 540), (960, 540), (960, 540), (960, 540), (960, 540), (960, 540), (960, 540), (960, 540), (960, 540), (960, 540), (960, 540), (960, 540), (960, 540), (960, 540), (960, 540), (960, 540), (960, 540), (960, 540), (960, 540), (960, 540), (961, 540), (961, 540), (962, 540), (963, 540), (965, 540), (965, 540), (968, 540), (969, 540), (971, 540), (973, 540), (980, 540), (983, 540), (987, 540), (990, 540), (995, 540), (996, 540), (998, 540), (998, 540), (1002, 540), (1004, 540), (1008, 540), (1010, 540), (1024, 539), (1033, 538), (1043, 534), (1054, 530), (1078, 523), (1092, 518), (1111, 510), (1126, 504), (1178, 489), (1207, 479), (1240, 471), (1268, 461), (1341, 425), (1362, 415)]",342.727165304455,"[1, 3, 2, 7, 9, 4, 5, 6, 8]","(0, 0.25)",THI007B,THI,B,English,Wed Aug 22 15:36:24 2018,Mouse
1,2,2,0,20,1,1,1,339,29,310,137,0,500,200,8000,"[(961, 540), (961, 540), (962, 540), (962, 540), (963, 540), (964, 540), (966, 540), (968, 540), (970, 540), (974, 540), (977, 540), (980, 541), (983, 543), (987, 544), (991, 545), (995, 547), (998, 548), (1013, 552), (1020, 553), (1028, 555), (1037, 557), (1051, 559), (1057, 560), (1065, 562), (1071, 562), (1089, 569), (1102, 573), (1118, 578), (1149, 591), (1215, 617), (1253, 636), (1290, 651), (1321, 663), (1369, 677)]",18.51896016962559,"[1, 3, 2, 7, 9, 4, 5, 6, 8]","(0, 0.25)",THI007B,THI,B,English,Wed Aug 22 15:36:24 2018,Mouse
1,2,2,0,21,1,1,1,249,29,220,136,0,500,200,8000,"[(961, 540), (961, 540), (964, 540), (967, 540), (973, 540), (978, 540), (991, 540), (996, 540), (1006, 541), (1016, 542), (1039, 546), (1050, 549), (1062, 551), (1074, 552), (1099, 557), (1112, 559), (1127, 564), (1145, 567), (1190, 580), (1215, 588), (1246, 596), (1279, 603), (1322, 619), (1342, 625), (1361, 630)]",12.64978040774978,"[1, 3, 2, 7, 9, 4, 5, 6, 8]","(0, 0.25)",THI007B,THI,B,English,Wed Aug 22 15:36:24 2018,Mouse
1,2,2,0,22,1,1,1,219,19,200,135,0,500,200,8000,"[(965, 540), (969, 540), (975, 540), (985, 540), (1004, 546), (1014, 547), (1025, 550), (1035, 553), (1061, 558), (1076, 563), (1095, 569), (1112, 574), (1148, 583), (1165, 588), (1182, 594), (1196, 597), (1223, 609), (1238, 616), (1262, 627), (1285, 637), (1335, 658), (1353, 666)]",17.77640564535841,"[1, 3, 2, 7, 9, 4, 5, 6, 8]","(0, 0.25)",THI007B,THI,B,English,Wed Aug 22 15:36:24 2018,Mouse
1,2,2,0,23,3,3,1,1170,1030,140,134,0,500,200,8000,"[(960, 540), (960, 540), (960, 540), (960, 540), (960, 540), (960, 540), (960, 540), (960, 540), (960, 540), (960, 540), (960, 540), (960, 540), (960, 540), (960, 540), (960, 540), (960, 540), (960, 540), (960, 540), (960, 540), (960, 540), (960, 540), (960, 540), (960, 540), (960, 540), (960, 540), (960, 540), (960, 540), (960, 540), (960, 540), (960, 540), (960, 540), (960, 540), (960, 540), (960, 540), (960, 540), (960, 540), (960, 540), (960, 540), (960, 540), (960, 540), (960, 540), (960, 540), (960, 540), (960, 540), (960, 540), (960, 540), (960, 540), (960, 540), (960, 540), (960, 540), (960, 540), (960, 540), (960, 540), (960, 540), (960, 540), (960, 540), (960, 540), (960, 540), (960, 540), (960, 540), (960, 540), (960, 540), (960, 540), (960, 540), (960, 540), (960, 540), (960, 540), (960, 540), (960, 540), (960, 540), (960, 540), (960, 540), (960, 540), (960, 540), (960, 540), (960, 540), (960, 540), (960, 540), (960, 540), (960, 540), (960, 540), (960, 540), (960, 540), (960, 540), (960, 540), (960, 540), (960, 540), (960, 540), (960, 540), (960, 540), (960, 540), (960, 540), (960, 540), (960, 540), (960, 540), (960, 540), (960, 540), (960, 540), (960, 540), (960, 540), (960, 540), (960, 540), (961, 543), (967, 550), (972, 557), (991, 589), (1003, 609), (1018, 633), (1028, 654), (1065, 725), (1083, 757), (1102, 792), (1117, 817), (1139, 855), (1144, 868), (1151, 884), (1155, 894)]",61.15194071463095,"[1, 3, 2, 7, 9, 4, 5, 6, 8]","(0, 0.25)",THI007B,THI,B,English,Wed Aug 22 15:36:24 2018,Mouse
1,2,2,0,24,6,9,0,-3480,70,3410,133,0,500,200,8000,"[(960, 540), (960, 540), (960, 540), (960, 540), (960, 540), (960, 540), (961, 541), (962, 542), (962, 542), (962, 542), (962, 542), (963, 543), (963, 543), (963, 543), (963, 543), (963, 543), (963, 543), (963, 543), (963, 543), (963, 543), (965, 543), (967, 544), (968, 545), (970, 545), (971, 545), (971, 545), (971, 545), (971, 545), (971, 545), (971, 545), (971, 545), (971, 545), (971, 545), (971, 545), (971, 545), (971, 545), (971, 545), (971, 545), (971, 545), (972, 545), (972, 545), (972, 545), (972, 545), (972, 545), (972, 545), (972, 545), (972, 545), (972, 545), (972, 545), (972, 545), (972, 545), (972, 545), (972, 545), (972, 545), (972, 545), (972, 545), (972, 545), (972, 544), (972, 544), (972, 544), (972, 544), (972, 544), (972, 543), (972, 543), (972, 543), (972, 542), (972, 542), (972, 542), (972, 542), (972, 542), (972, 542), (972, 541), (972, 541), (972, 541), (972, 541), (972, 541), (972, 541), (972, 541), (972, 541), (972, 541), (971, 541), (971, 541), (970, 541), (969, 541), (969, 541), (969, 541), (969, 541), (969, 541), (969, 541), (969, 541), (969, 541), (969, 541), (969, 541), (969, 541), (969, 541), (969, 541), (969, 541), (969, 541), (969, 541), (969, 541), (969, 541), (969, 541), (969, 541), (969, 541), (969, 541), (969, 541), (969, 541), (969, 541), (969, 541), (969, 541), (969, 541), (969, 541), (969, 541), (969, 541), (969, 541), (969, 541), (969, 541), (969, 541), (969, 541), (969, 541), (969, 541), (969, 541), (969, 541), (969, 541), (969, 541), (969, 541), (969, 541), (969, 541), (969, 541), (969, 541), (969, 541), (969, 541), (969, 541), (969, 541), (969, 541), (968, 541), (967, 541), (966, 541), (966, 541), (964, 542), (962, 543), (961, 543), (959, 543), (957, 543), (956, 543), (954, 543), (953, 543), (950, 543), (949, 543), (948, 543), (947, 543), (946, 542), (946, 541), (946, 541), (944, 540), (944, 540), (944, 540), (944, 540), (944, 540), (944, 540), (944, 540), (944, 540), (944, 540), (944, 540), (944, 540), (944, 540), (944, 540), (944, 540), (944, 540), (944, 540), (944, 540), (944, 540), (944, 540), (944, 540), (944, 540), (944, 540), (944, 540), (944, 540), (944, 540), (944, 540), (944, 540), (944, 540), (944, 540), (944, 540), (944, 540), (944, 540), (944, 540), (944, 540), (944, 540), (944, 540), (944, 540), (944, 540), (944, 540), (944, 540), (944, 540), (944, 540), (944, 540), (944, 540), (944, 540), (944, 540), (944, 540), (944, 540), (944, 540), (944, 540), (944, 540), (944, 540), (944, 540), (944, 540), (944, 540), (944, 540), (944, 540), (944, 540), (944, 540), (944, 540), (944, 540), (944, 540), (944, 540), (944, 540), (944, 540), (944, 540), (944, 540), (944, 540), (944, 540), (944, 540), (944, 540), (944, 540), (944, 540), (944, 540), (944, 540), (944, 540), (944, 540), (944, 540), (944, 540), (944, 540), (944, 540), (943, 540), (943, 540), (943, 540), (943, 540), (943, 540), (943, 540), (943, 540), (943, 540), (943, 540), (943, 540), (943, 540), (943, 540), (941, 540), (941, 539), (940, 539), (940, 538), (938, 536), (938, 536), (938, 536), (938, 536), (938, 536), (938, 536), (938, 536), (938, 536), (938, 536), (938, 536), (938, 536), (938, 536), (938, 536), (938, 536), (938, 536), (938, 536), (938, 536), (938, 536), (938, 536), (938, 536), (938, 536), (938, 536), (938, 536), (938, 536), (938, 536), (938, 536), (938, 536), (938, 536), (938, 536), (937, 536), (936, 536), (936, 536), (934, 536), (934, 536), (933, 536), (932, 537), (931, 537), (931, 538), (930, 538), (930, 538), (930, 538), (929, 538), (928, 539), (928, 539), (926, 539), (925, 539), (923, 539), (922, 539), (919, 539), (917, 538), (916, 538), (913, 538), (907, 536), (903, 536), (898, 534), (890, 534), (875, 534), (867, 534), (857, 534), (848, 534), (825, 534), (812, 534), (799, 534), (785, 534), (761, 533), (746, 533), (734, 533), (721, 533), (697, 533), (686, 533), (674, 533), (657, 533), (633, 533), (621, 533), (611, 533), (600, 533), (592, 533), (590, 533), (589, 533), (588, 533), (587, 532), (584, 532), (582, 532), (579, 532), (574, 532), (573, 532), (572, 532), (572, 532), (570, 532), (569, 532), (568, 532), (565, 532), (561, 532), (561, 532), (561, 532), (561, 532), (560, 532)]",181.1457628381751,"[1, 3, 2, 7, 9, 4, 5, 6, 8]","(0, 0.25)",THI007B,THI,B,English,Wed Aug 22 15:36:24 2018,Mouse
1,2,2,0,25,8,1,0,-589,119,470,134,0,500,200,8000,"[(960, 540), (960, 540), (960, 540), (960, 540), (960, 540), (960, 540), (960, 540), (960, 540), (960, 540), (960, 540), (960, 540), (960, 539), (960, 539), (960, 539), (961, 538), (961, 538), (961, 538), (961, 538), (962, 537), (962, 537), (962, 537), (962, 537), (962, 537), (962, 537), (962, 537), (962, 537), (963, 535), (964, 535), (964, 535), (964, 535), (964, 535), (964, 535), (965, 535), (965, 535), (968, 535), (970, 535), (971, 535), (974, 535), (977, 535), (978, 535), (983, 537), (987, 539), (1009, 549), (1021, 553), (1034, 557), (1050, 563), (1073, 571), (1085, 573), (1096, 578), (1106, 580), (1137, 590), (1159, 596), (1183, 607), (1220, 622), (1286, 639), (1312, 647), (1328, 651), (1342, 654), (1353, 656)]",16.444776573167115,"[1, 3, 2, 7, 9, 4, 5, 6, 8]","(0, 0.25)",THI007B,THI,B,English,Wed Aug 22 15:36:24 2018,Mouse
1,2,2,0,26,4,6,0,-840,430,410,135,0,500,200,8000,"[(960, 540), (960, 540), (960, 540), (960, 540), (960, 540), (960, 540), (960, 540), (960, 540), (960, 540), (960, 540), (960, 540), (960, 540), (960, 540), (960, 540), (960, 540), (960, 540), (960, 540), (960, 540), (960, 540), (960, 540), (960, 540), (960, 540), (960, 540), (960, 540), (960, 540), (960, 540), (960, 540), (960, 540), (960, 540), (960, 540), (960, 540), (960, 540), (960, 540), (960, 540), (960, 540), (960, 540), (960, 540), (960, 540), (960, 540), (960, 540), (960, 540), (960, 540), (960, 541), (960, 541), (960, 541), (960, 541), (960, 541), (960, 541), (960, 541), (960, 541), (960, 541), (962, 541), (962, 541), (962, 541), (963, 541), (963, 541), (963, 541), (963, 541), (963, 541), (963, 541), (964, 540), (964, 540), (965, 540), (965, 540), (966, 540), (967, 539), (970, 532), (976, 524), (980, 514), (987, 503), (1008, 468), (1021, 444), (1031, 413), (1043, 382), (1061, 338), (1071, 314), (1082, 288), (1094, 262), (1104, 235), (1109, 224), (1113, 212), (1119, 201), (1125, 184), (1130, 175)]",294.9739109058834,"[1, 3, 2, 7, 9, 4, 5, 6, 8]","(0, 0.25)",THI007B,THI,B,English,Wed Aug 22 15:36:24 2018,Mouse
1,2,2,0,27,7,7,1,728,78,650,136,0,500,200,8000,"[(960, 540), (960, 540), (960, 540), (960, 540), (960, 540), (960, 540), (960, 540), (959, 541), (959, 541), (959, 541), (958, 542), (958, 542), (958, 542), (958, 542), (958, 542), (958, 542), (958, 542), (958, 542), (958, 542), (958, 542), (958, 542), (957, 544), (957, 544), (957, 544), (957, 544), (957, 544), (957, 545), (956, 545), (955, 547), (953, 549), (952, 551), (951, 552), (950, 555), (946, 559), (943, 568), (939, 577), (937, 583), (933, 588), (933, 590), (933, 591), (933, 592), (933, 594), (933, 596), (933, 599), (932, 601), (929, 610), (927, 614), (924, 622), (924, 624), (921, 629), (921, 629), (921, 630), (921, 631), (920, 632), (919, 633), (917, 635), (917, 636), (913, 640), (909, 644), (907, 645), (902, 648), (886, 659), (874, 669), (865, 675), (852, 682), (822, 701), (801, 711), (776, 726), (756, 735), (703, 760), (683, 772), (662, 782), (641, 793)]",141.581944655178,"[1, 3, 2, 7, 9, 4, 5, 6, 8]","(0, 0.25)",THI007B,THI,B,English,Wed Aug 22 15:36:24 2018,Mouse
1,2,2,0,28,4,4,1,1850,360,1490,136,0,500,200,8000,"[(960, 540), (960, 540), (960, 540), (960, 540), (960, 540), (960, 540), (960, 540), (960, 540), (960, 540), (960, 540), (960, 540), (960, 540), (960, 540), (960, 540), (960, 540), (960, 540), (960, 540), (960, 540), (960, 540), (960, 540), (960, 540), (960, 540), (960, 540), (960, 540), (960, 540), (960, 540), (960, 540), (960, 540), (960, 540), (960, 540), (960, 540), (960, 540), (960, 540), (960, 540), (960, 540), (959, 544), (956, 545), (952, 546), (945, 549), (928, 556), (919, 559), (908, 564), (899, 566), (881, 572), (874, 576), (865, 580), (859, 584), (848, 592), (843, 596), (840, 597), (838, 599), (834, 603), (830, 605), (827, 608), (821, 611), (810, 618), (805, 621), (801, 624), (795, 629), (789, 632), (788, 633), (786, 635), (786, 635), (786, 636), (786, 636), (786, 636), (786, 636), (786, 636), (786, 636), (786, 636), (786, 636), (786, 636), (786, 636), (787, 636), (789, 635), (791, 634), (794, 632), (795, 632), (796, 631), (800, 629), (802, 628), (807, 626), (808, 626), (812, 623), (814, 623), (814, 623), (816, 621), (817, 621), (817, 620), (817, 620), (818, 620), (819, 619), (821, 618), (821, 618), (821, 617), (823, 616), (824, 615), (824, 614), (824, 614), (825, 613), (825, 612), (825, 612), (826, 611), (827, 610), (827, 609), (827, 609), (827, 608), (828, 606), (828, 606), (828, 606), (828, 606), (828, 605), (828, 605), (828, 605), (828, 605), (828, 605), (828, 603), (828, 603), (828, 603), (828, 602), (828, 602), (828, 602), (828, 602), (828, 600), (828, 600), (828, 600), (828, 600), (828, 600), (828, 600), (829, 599), (829, 599), (829, 599), (829, 599), (829, 599), (829, 597), (829, 597), (829, 597), (830, 597), (830, 597), (830, 597), (830, 597), (830, 597), (831, 596), (831, 596), (831, 596), (832, 595), (832, 595), (834, 593), (835, 592), (835, 591), (836, 589), (837, 589), (837, 588), (837, 586), (837, 586), (838, 584), (839, 582), (839, 582), (839, 581), (840, 580), (840, 578), (840, 577), (841, 576), (841, 572), (841, 569), (841, 567), (840, 563), (836, 555), (834, 551), (829, 544), (824, 535), (813, 519), (806, 507), (799, 494), (789, 475), (765, 441), (747, 418), (729, 395), (711, 379), (691, 358), (683, 346), (675, 336), (666, 324), (645, 300), (631, 285)]",217.77840425750796,"[1, 3, 2, 7, 9, 4, 5, 6, 8]","(0, 0.25)",THI007B,THI,B,English,Wed Aug 22 15:36:24 2018,Mouse
1,2,2,0,29,1,1,1,270,20,250,135,0,500,200,8000,"[(960, 540), (961, 540), (964, 540), (967, 540), (972, 543), (990, 548), (998, 549), (1007, 553), (1015, 555), (1030, 559), (1037, 561), (1047, 564), (1054, 565), (1076, 572), (1088, 577), (1101, 581), (1112, 583), (1139, 595), (1149, 600), (1158, 603), (1170, 609), (1198, 621), (1215, 627), (1244, 639), (1273, 653), (1328, 675), (1355, 688)]",20.54014738993788,"[1, 3, 2, 7, 9, 4, 5, 6, 8]","(0, 0.25)",THI007B,THI,B,English,Wed Aug 22 15:36:24 2018,Mouse
1,2,2,0,30,9,7,0,-1379,220,1159,134,0,500,200,8000,"[(960, 540), (960, 540), (960, 540), (960, 540), (960, 540), (960, 540), (960, 540), (960, 540), (960, 540), (960, 540), (960, 540), (960, 540), (960, 540), (960, 540), (960, 540), (960, 540), (960, 540), (960, 540), (960, 540), (960, 540), (960, 540), (960, 539), (960, 539), (960, 539), (960, 539), (960, 539), (960, 539), (960, 539), (960, 539), (960, 539), (960, 539), (960, 539), (960, 539), (960, 539), (960, 539), (960, 539), (960, 539), (960, 539), (960, 539), (960, 539), (960, 539), (960, 539), (960, 539), (960, 539), (960, 539), (960, 539), (960, 539), (960, 539), (960, 539), (960, 539), (960, 539), (960, 539), (960, 539), (960, 539), (960, 539), (960, 539), (960, 539), (960, 539), (960, 539), (960, 539), (960, 539), (960, 539), (960, 539), (960, 539), (960, 539), (960, 539), (960, 539), (960, 539), (960, 539), (960, 539), (960, 539), (960, 539), (960, 539), (960, 539), (960, 539), (960, 539), (960, 539), (960, 539), (960, 539), (960, 539), (960, 539), (960, 539), (960, 539), (960, 539), (960, 539), (960, 539), (960, 539), (960, 539), (960, 539), (960, 539), (960, 539), (960, 539), (960, 540), (957, 543), (956, 544), (953, 546), (952, 548), (936, 561), (926, 568), (916, 575), (906, 583), (882, 602), (873, 610), (863, 618), (856, 624), (846, 638), (842, 644), (840, 649), (837, 654), (827, 669), (821, 678), (814, 685), (810, 689), (795, 700), (789, 705), (784, 709), (778, 713), (773, 719), (770, 722), (769, 726), (766, 730), (761, 736), (757, 739), (751, 741), (741, 746), (730, 751), (725, 754), (723, 756), (722, 758), (720, 760), (719, 761), (717, 766), (715, 767), (703, 775), (696, 782), (683, 794), (673, 800), (649, 812)]",138.8271203212036,"[1, 3, 2, 7, 9, 4, 5, 6, 8]","(0, 0.25)",THI007B,THI,B,English,Wed Aug 22 15:36:24 2018,Mouse
1,2,2,0,31,4,9,0,-1321,31,1290,135,0,500,200,8000,"[(960, 540), (960, 540), (960, 540), (962, 540), (962, 540), (962, 540), (962, 540), (963, 540), (964, 540), (965, 540), (965, 540), (966, 540), (968, 540), (968, 540), (968, 540), (968, 540), (969, 540), (969, 540), (970, 540), (972, 540), (973, 540), (975, 540), (978, 541), (979, 541), (980, 541), (981, 541), (981, 541), (984, 541), (984, 541), (986, 541), (987, 541), (989, 541), (990, 541), (991, 541), (991, 541), (993, 541), (993, 541), (994, 541), (994, 541), (994, 541), (996, 541), (997, 541), (999, 541), (1001, 540), (1003, 539), (1003, 539), (1004, 538), (1006, 537), (1006, 537), (1008, 537), (1008, 537), (1011, 535), (1011, 535), (1013, 534), (1015, 533), (1017, 532), (1019, 531), (1021, 531), (1022, 530), (1024, 529), (1025, 528), (1027, 527), (1027, 527), (1031, 527), (1035, 525), (1038, 524), (1041, 523), (1046, 521), (1050, 520), (1050, 520), (1053, 519), (1054, 518), (1054, 518), (1056, 517), (1056, 517), (1060, 516), (1060, 516), (1063, 516), (1064, 515), (1073, 513), (1076, 512), (1081, 509), (1083, 508), (1086, 507), (1089, 506), (1090, 506), (1091, 505), (1097, 503), (1101, 501), (1108, 499), (1116, 494), (1130, 489), (1139, 486), (1145, 484), (1151, 481), (1158, 477), (1161, 474), (1165, 470), (1166, 469), (1168, 468), (1168, 468), (1169, 466), (1170, 465), (1172, 462), (1172, 461), (1172, 461), (1172, 459), (1163, 456), (1158, 455), (1152, 453), (1146, 453), (1135, 453), (1131, 453), (1125, 453), (1118, 455), (1091, 460), (1072, 460), (1047, 460), (1016, 460), (949, 460), (918, 460), (896, 460), (870, 461), (828, 467), (809, 471), (791, 474), (771, 474), (704, 474), (663, 474), (632, 474), (607, 474), (572, 474), (562, 474)]",189.41562639154031,"[1, 3, 2, 7, 9, 4, 5, 6, 8]","(0, 0.25)",THI007B,THI,B,English,Wed Aug 22 15:36:24 2018,Mouse
1,2,2,0,32,3,7,0,-2339,19,2320,136,0,500,200,8000,"[(962, 540), (967, 541), (970, 542), (975, 543), (979, 543), (984, 544), (987, 544), (990, 544), (991, 544), (994, 544), (996, 546), (996, 546), (997, 546), (998, 546), (1000, 546), (1000, 546), (1001, 546), (1001, 546), (1002, 546), (1002, 546), (1002, 546), (1003, 546), (1004, 546), (1004, 546), (1006, 547), (1007, 547), (1007, 547), (1007, 547), (1008, 547), (1010, 547), (1010, 547), (1011, 547), (1011, 547), (1011, 547), (1011, 547), (1011, 547), (1012, 547), (1014, 548), (1014, 548), (1014, 548), (1014, 548), (1014, 548), (1014, 548), (1015, 548), (1015, 548), (1016, 548), (1016, 548), (1016, 548), (1017, 548), (1018, 549), (1018, 549), (1020, 549), (1020, 549), (1022, 549), (1022, 549), (1022, 549), (1023, 549), (1025, 549), (1025, 549), (1026, 549), (1026, 549), (1028, 549), (1028, 549), (1028, 549), (1028, 549), (1029, 549), (1031, 549), (1031, 549), (1032, 549), (1034, 549), (1034, 549), (1035, 549), (1036, 549), (1037, 549), (1037, 549), (1037, 549), (1037, 549), (1038, 549), (1038, 549), (1039, 549), (1040, 549), (1041, 550), (1041, 550), (1042, 550), (1042, 550), (1042, 550), (1042, 550), (1042, 550), (1042, 550), (1043, 550), (1043, 550), (1043, 550), (1043, 550), (1043, 550), (1043, 550), (1043, 550), (1043, 550), (1043, 550), (1043, 550), (1043, 550), (1043, 550), (1043, 550), (1043, 550), (1043, 550), (1043, 549), (1043, 549), (1043, 549), (1043, 548), (1043, 547), (1043, 546), (1043, 545), (1043, 544), (1043, 544), (1043, 543), (1043, 543), (1043, 543), (1043, 542), (1043, 542), (1043, 542), (1043, 542), (1043, 541), (1043, 540), (1043, 539), (1042, 538), (1042, 538), (1041, 536), (1041, 536), (1041, 535), (1040, 534), (1040, 534), (1039, 533), (1038, 530), (1035, 527), (1033, 525), (1033, 524), (1032, 524), (1032, 524), (1030, 522), (1029, 521), (1029, 521), (1029, 521), (1028, 520), (1028, 520), (1026, 520), (1025, 519), (1024, 519), (1023, 518), (1023, 518), (1021, 518), (1020, 517), (1020, 517), (1020, 517), (1020, 517), (1020, 516), (1019, 516), (1019, 516), (1018, 516), (1017, 514), (1016, 514), (1016, 513), (1015, 513), (1013, 512), (1013, 511), (1012, 511), (1012, 511), (1011, 510), (1011, 510), (1010, 509), (1009, 509), (1009, 509), (1009, 509), (1009, 509), (1009, 509), (1009, 509), (1009, 509), (1008, 509), (1008, 509), (1008, 509), (1006, 509), (1006, 509), (1005, 509), (1001, 509), (998, 510), (991, 514), (984, 518), (977, 523), (972, 527), (967, 532), (962, 537), (955, 546), (953, 549), (953, 552), (951, 554), (950, 556), (950, 557), (950, 558), (950, 558), (949, 561), (949, 562), (949, 564), (948, 566), (947, 569), (947, 571), (947, 575), (946, 578), (942, 593), (941, 597), (940, 602), (937, 606), (936, 610), (936, 613), (934, 615), (933, 617), (929, 624), (927, 628), (922, 634), (917, 642), (901, 660), (894, 669), (885, 679), (877, 688), (861, 706), (851, 716), (845, 725), (837, 733), (816, 751), (799, 763), (780, 774), (755, 789), (716, 808), (701, 814), (691, 819), (684, 822), (675, 828)]",134.7000248376961,"[1, 3, 2, 7, 9, 4, 5, 6, 8]","(0, 0.25)",THI007B,THI,B,English,Wed Aug 22 15:36:24 2018,Mouse
1,2,2,0,33,8,8,1,760,170,590,137,0,500,200,8000,"[(960, 540), (960, 540), (960, 540), (960, 540), (960, 540), (960, 540), (960, 540), (960, 540), (960, 540), (960, 540), (960, 540), (960, 540), (960, 540), (960, 540), (960, 540), (960, 540), (961, 539), (962, 539), (963, 539), (963, 539), (965, 539), (965, 539), (965, 539), (965, 539), (965, 539), (965, 539), (965, 539), (966, 539), (966, 539), (967, 539), (967, 539), (968, 539), (969, 539), (969, 539), (972, 539), (974, 539), (975, 539), (977, 539), (983, 539), (983, 539), (986, 539), (988, 539), (990, 540), (991, 540), (993, 540), (994, 540), (998, 540), (1001, 540), (1004, 540), (1007, 540), (1009, 540), (1010, 540), (1010, 540), (1011, 540), (1013, 540), (1013, 540), (1014, 540), (1016, 540), (1020, 540), (1020, 539), (1022, 539), (1023, 539), (1025, 537), (1028, 537), (1030, 535), (1033, 533), (1047, 525), (1056, 520), (1071, 508), (1096, 491), (1165, 451), (1197, 432), (1224, 419), (1259, 405), (1324, 378), (1359, 363)]",336.0774941169867,"[1, 3, 2, 7, 9, 4, 5, 6, 8]","(0, 0.25)",THI007B,THI,B,English,Wed Aug 22 15:36:24 2018,Mouse
1,2,2,0,34,4,1,0,-300,50,250,137,0,500,200,8000,"[(960, 540), (960, 540), (960, 540), (960, 540), (961, 540), (964, 540), (967, 540), (972, 540), (977, 540), (987, 540), (992, 540), (997, 540), (1000, 540), (1015, 544), (1022, 545), (1033, 547), (1046, 549), (1071, 556), (1083, 560), (1096, 564), (1114, 569), (1143, 579), (1156, 581), (1168, 586), (1186, 594), (1233, 615), (1257, 624), (1280, 633), (1309, 645), (1361, 667)]",17.57342308835475,"[1, 3, 2, 7, 9, 4, 5, 6, 8]","(0, 0.25)",THI007B,THI,B,English,Wed Aug 22 15:36:24 2018,Mouse
1,2,2,0,35,3,7,0,-1109,110,999,138,0,500,200,8000,"[(960, 540), (960, 540), (960, 540), (960, 540), (960, 540), (960, 540), (960, 540), (960, 540), (960, 540), (960, 540), (960, 539), (960, 538), (960, 538), (960, 538), (960, 538), (960, 538), (960, 538), (960, 538), (960, 538), (960, 538), (960, 538), (960, 538), (960, 538), (960, 538), (960, 538), (960, 538), (960, 538), (960, 538), (960, 538), (960, 538), (960, 538), (960, 538), (960, 538), (960, 538), (960, 538), (960, 538), (960, 538), (960, 538), (960, 538), (960, 538), (960, 538), (960, 538), (960, 538), (960, 538), (960, 538), (960, 538), (960, 538), (960, 538), (960, 538), (960, 538), (960, 538), (960, 538), (960, 538), (960, 538), (960, 538), (960, 538), (960, 538), (960, 538), (960, 538), (960, 538), (960, 538), (960, 538), (960, 538), (960, 538), (960, 538), (960, 538), (960, 538), (960, 538), (960, 538), (960, 538), (960, 538), (960, 538), (960, 538), (960, 538), (960, 537), (960, 537), (960, 537), (960, 537), (960, 537), (960, 537), (960, 537), (960, 537), (960, 537), (960, 537), (960, 537), (960, 537), (960, 537), (960, 537), (960, 537), (960, 537), (960, 537), (960, 537), (960, 537), (960, 539), (960, 540), (958, 542), (956, 544), (952, 549), (937, 560), (924, 567), (910, 576), (894, 585), (856, 614), (828, 635), (801, 660), (774, 687), (740, 725), (719, 747), (702, 765), (685, 780), (650, 808)]",139.15605660127642,"[1, 3, 2, 7, 9, 4, 5, 6, 8]","(0, 0.25)",THI007B,THI,B,English,Wed Aug 22 15:36:24 2018,Mouse
1,2,2,0,36,2,2,1,950,230,720,139,0,500,200,8000,"[(960, 540), (960, 540), (960, 540), (960, 540), (960, 540), (960, 540), (960, 540), (960, 540), (960, 540), (960, 540), (960, 540), (960, 540), (960, 540), (960, 540), (960, 540), (960, 540), (960, 540), (960, 540), (960, 540), (960, 540), (960, 540), (960, 540), (957, 542), (956, 543), (955, 544), (954, 545), (951, 550), (951, 552), (950, 554), (948, 558), (945, 564), (943, 567), (942, 570), (939, 575), (936, 579), (933, 583), (931, 586), (929, 591), (924, 600), (921, 604), (919, 608), (916, 611), (908, 621), (904, 625), (901, 628), (897, 630), (890, 634), (888, 637), (883, 640), (881, 642), (876, 646), (875, 648), (871, 654), (868, 660), (865, 669), (863, 673), (862, 678), (862, 683), (862, 692), (862, 696), (862, 704), (862, 710), (862, 714), (861, 716), (861, 716), (861, 716), (860, 718), (860, 718), (859, 718), (859, 718), (857, 720), (857, 720), (857, 720), (856, 720), (854, 720), (854, 720), (854, 720), (853, 720), (850, 720), (850, 720), (848, 722), (847, 724), (846, 735), (846, 745), (846, 757), (847, 774), (857, 813), (862, 827), (866, 838), (871, 853), (875, 872), (877, 885), (880, 898), (885, 916), (896, 955)]",98.76691032592969,"[1, 3, 2, 7, 9, 4, 5, 6, 8]","(0, 0.25)",THI007B,THI,B,English,Wed Aug 22 15:36:24 2018,Mouse
1,2,2,0,37,9,9,1,979,729,250,139,0,500,200,8000,"[(960, 540), (960, 540), (960, 540), (960, 540), (960, 540), (960, 540), (960, 540), (960, 540), (960, 540), (960, 540), (960, 540), (960, 540), (960, 540), (960, 540), (960, 540), (960, 540), (960, 540), (960, 540), (960, 540), (960, 540), (960, 540), (960, 540), (960, 540), (960, 540), (960, 540), (960, 540), (960, 540), (960, 540), (960, 540), (960, 540), (960, 540), (960, 540), (960, 540), (960, 540), (960, 540), (960, 540), (960, 540), (960, 540), (960, 540), (960, 540), (960, 540), (960, 540), (960, 540), (960, 540), (960, 540), (960, 540), (960, 540), (960, 540), (960, 540), (960, 540), (960, 540), (960, 540), (960, 540), (960, 540), (960, 540), (960, 540), (960, 540), (960, 540), (960, 540), (960, 540), (960, 540), (960, 540), (960, 540), (960, 540), (960, 540), (960, 540), (960, 540), (960, 540), (960, 540), (960, 540), (960, 540), (960, 540), (958, 540), (955, 540), (942, 540), (936, 540), (928, 540), (921, 540), (904, 542), (894, 542), (884, 542), (869, 542), (837, 542), (811, 542), (781, 542), (756, 542), (725, 542), (713, 542), (698, 542), (686, 542), (663, 542), (648, 542), (634, 542), (618, 542), (589, 542), (579, 542), (569, 542), (559, 542)]",179.71423788312347,"[1, 3, 2, 7, 9, 4, 5, 6, 8]","(0, 0.25)",THI007B,THI,B,English,Wed Aug 22 15:36:24 2018,Mouse
1,2,2,0,38,3,3,1,390,140,250,138,0,500,200,8000,"[(960, 540), (960, 540), (960, 540), (960, 540), (960, 540), (960, 540), (960, 540), (960, 540), (960, 540), (960, 540), (960, 540), (960, 540), (960, 540), (962, 540), (962, 542), (966, 550), (968, 553), (971, 561), (974, 568), (981, 585), (983, 590), (985, 595), (987, 598), (993, 613), (998, 620), (1006, 633), (1015, 649), (1043, 698), (1060, 728), (1078, 758), (1091, 783), (1108, 812), (1112, 821), (1116, 828), (1121, 837), (1128, 856), (1134, 870), (1140, 883), (1150, 898)]",62.04393393631568,"[1, 3, 2, 7, 9, 4, 5, 6, 8]","(0, 0.25)",THI007B,THI,B,English,Wed Aug 22 15:36:24 2018,Mouse
1,2,2,0,39,2,2,1,621,121,500,137,0,500,200,8000,"[(960, 540), (960, 540), (960, 540), (960, 540), (960, 540), (960, 540), (960, 540), (960, 540), (960, 540), (960, 540), (960, 540), (960, 540), (961, 540), (961, 540), (961, 540), (961, 540), (961, 542), (961, 543), (960, 543), (960, 543), (959, 546), (959, 547), (959, 547), (958, 549), (956, 552), (954, 554), (952, 556), (949, 561), (938, 572), (931, 577), (922, 585), (913, 591), (900, 599), (890, 603), (882, 607), (874, 611), (863, 616), (860, 617), (857, 617), (855, 619), (852, 620), (851, 621), (850, 622), (849, 623), (849, 625), (849, 626), (848, 630), (848, 636), (848, 662), (852, 689), (858, 711), (862, 730), (867, 761), (867, 772), (867, 785), (867, 799), (867, 832), (868, 849), (873, 871), (874, 886), (875, 914), (875, 925), (875, 931)]",102.2647737278924,"[1, 3, 2, 7, 9, 4, 5, 6, 8]","(0, 0.25)",THI007B,THI,B,English,Wed Aug 22 15:36:24 2018,Mouse
1,2,2,0,40,6,6,1,1411,341,1070,136,0,500,200,8000,"[(960, 540), (960, 540), (960, 540), (960, 540), (960, 540), (960, 540), (960, 540), (960, 540), (960, 540), (960, 540), (960, 540), (960, 540), (960, 540), (960, 540), (960, 540), (960, 540), (960, 540), (960, 540), (960, 540), (960, 540), (960, 540), (960, 540), (960, 540), (960, 540), (960, 540), (960, 540), (960, 540), (960, 540), (960, 540), (960, 540), (960, 540), (960, 540), (960, 540), (960, 540), (959, 540), (959, 540), (959, 540), (959, 540), (959, 540), (959, 540), (959, 540), (959, 540), (959, 540), (959, 540), (959, 540), (959, 540), (959, 540), (959, 540), (959, 540), (959, 540), (959, 540), (959, 540), (959, 540), (959, 540), (959, 540), (959, 540), (959, 540), (959, 540), (959, 540), (959, 540), (959, 540), (959, 540), (959, 540), (959, 540), (959, 540), (959, 540), (959, 540), (959, 540), (959, 540), (959, 540), (959, 540), (959, 540), (959, 540), (959, 540), (959, 540), (959, 540), (959, 540), (959, 540), (959, 540), (959, 540), (959, 540), (959, 540), (959, 540), (959, 540), (959, 540), (959, 540), (959, 540), (959, 540), (959, 540), (959, 540), (959, 540), (959, 540), (959, 540), (959, 540), (959, 540), (959, 540), (959, 540), (959, 540), (959, 540), (959, 540), (959, 540), (959, 540), (959, 540), (959, 540), (959, 540), (959, 540), (959, 540), (959, 540), (959, 540), (959, 540), (959, 540), (959, 540), (959, 540), (959, 540), (959, 540), (959, 540), (959, 540), (962, 539), (968, 534), (972, 528), (977, 518), (994, 481), (1000, 466), (1005, 449), (1012, 421), (1030, 377), (1040, 359), (1052, 337), (1063, 313), (1079, 272), (1084, 258), (1089, 245), (1091, 234), (1095, 220), (1099, 207), (1101, 200), (1102, 196), (1105, 190), (1107, 186), (1110, 183), (1115, 178), (1125, 170)]",294.03428815944255,"[1, 3, 2, 7, 9, 4, 5, 6, 8]","(0, 0.25)",THI007B,THI,B,English,Wed Aug 22 15:36:24 2018,Mouse
1,2,2,0,41,5,9,0,-799,589,210,135,0,500,200,8000,"[(960, 540), (960, 540), (960, 540), (960, 540), (960, 540), (960, 540), (960, 540), (960, 540), (960, 540), (960, 540), (960, 540), (960, 540), (960, 540), (960, 540), (960, 540), (960, 540), (960, 540), (960, 540), (960, 540), (960, 540), (960, 540), (960, 540), (960, 540), (960, 540), (960, 540), (960, 540), (960, 540), (960, 540), (960, 540), (960, 540), (960, 540), (960, 540), (960, 540), (960, 540), (960, 540), (960, 540), (960, 540), (960, 540), (960, 540), (960, 540), (960, 540), (960, 540), (960, 540), (960, 540), (960, 540), (960, 540), (960, 540), (960, 540), (960, 540), (960, 540), (960, 540), (960, 540), (960, 540), (960, 540), (960, 540), (960, 540), (960, 540), (960, 540), (960, 541), (959, 541), (958, 541), (956, 542), (952, 543), (950, 544), (943, 544), (935, 544), (916, 544), (905, 544), (893, 544), (876, 544), (837, 544), (812, 544), (784, 544), (752, 542), (677, 531), (650, 528), (624, 523), (601, 522), (566, 522), (551, 522)]",182.5199485581467,"[1, 3, 2, 7, 9, 4, 5, 6, 8]","(0, 0.25)",THI007B,THI,B,English,Wed Aug 22 15:36:24 2018,Mouse
1,2,2,0,42,6,3,0,-1350,340,1010,136,0,500,200,8000,"[(960, 540), (960, 540), (960, 540), (960, 540), (960, 540), (960, 540), (960, 540), (960, 540), (960, 540), (960, 540), (960, 540), (960, 540), (960, 540), (960, 540), (960, 540), (960, 540), (960, 540), (960, 540), (960, 540), (960, 540), (960, 540), (960, 540), (960, 540), (960, 540), (960, 540), (960, 540), (960, 540), (960, 540), (960, 540), (960, 540), (960, 540), (960, 540), (960, 540), (962, 540), (962, 540), (962, 540), (962, 541), (962, 543), (962, 545), (962, 545), (962, 546), (962, 548), (962, 549), (962, 549), (962, 551), (962, 552), (962, 552), (962, 554), (962, 554), (962, 557), (961, 558), (961, 562), (958, 571), (954, 584), (952, 587), (951, 590), (950, 593), (949, 595), (949, 595), (949, 597), (949, 597), (949, 600), (949, 601), (948, 604), (948, 608), (948, 613), (948, 616), (948, 618), (948, 620), (948, 626), (949, 629), (950, 633), (952, 636), (956, 647), (959, 652), (961, 656), (964, 661), (965, 666), (967, 669), (968, 671), (968, 672), (972, 678), (973, 680), (975, 684), (978, 688), (980, 692), (981, 693), (981, 694), (981, 694), (981, 694), (981, 694), (981, 694), (981, 694), (981, 694), (981, 694), (981, 694), (981, 694), (981, 694), (981, 694), (981, 695), (981, 695), (981, 696), (981, 696), (981, 696), (981, 696), (980, 698), (980, 698), (979, 698), (977, 698), (976, 698), (975, 698), (974, 698), (974, 699), (972, 701), (971, 705), (971, 709), (971, 710), (971, 716), (975, 720), (980, 726), (986, 733), (1006, 751), (1017, 758), (1026, 766), (1038, 774), (1064, 791), (1076, 799), (1087, 807), (1098, 813), (1118, 825), (1128, 833), (1138, 841), (1150, 849), (1178, 870), (1194, 884)]",55.77518739228351,"[1, 3, 2, 7, 9, 4, 5, 6, 8]","(0, 0.25)",THI007B,THI,B,English,Wed Aug 22 15:36:24 2018,Mouse
1,2,2,0,43,7,7,1,740,90,650,137,0,500,200,8000,"[(960, 540), (960, 540), (960, 540), (960, 540), (960, 540), (960, 540), (960, 540), (960, 540), (960, 541), (960, 541), (960, 542), (961, 542), (961, 543), (962, 543), (962, 543), (962, 543), (962, 543), (963, 543), (964, 543), (964, 543), (964, 543), (965, 543), (966, 543), (967, 543), (967, 543), (967, 543), (968, 543), (969, 543), (969, 543), (970, 543), (970, 543), (970, 543), (970, 543), (970, 543), (970, 543), (970, 543), (971, 543), (971, 546), (970, 550), (970, 550), (968, 552), (965, 555), (963, 558), (962, 559), (959, 562), (955, 567), (954, 569), (953, 571), (952, 572), (950, 573), (950, 573), (950, 573), (950, 574), (948, 576), (948, 576), (947, 577), (944, 579), (941, 582), (939, 585), (937, 587), (930, 595), (918, 610), (914, 615), (910, 618), (908, 618), (902, 623), (897, 627), (888, 634), (870, 649), (806, 695), (767, 723), (730, 749), (694, 774), (654, 805)]",139.10700910487245,"[1, 3, 2, 7, 9, 4, 5, 6, 8]","(0, 0.25)",THI007B,THI,B,English,Wed Aug 22 15:36:24 2018,Mouse
1,2,2,0,44,7,7,1,270,20,250,137,0,500,200,8000,"[(960, 540), (958, 540), (956, 542), (955, 545), (952, 548), (951, 550), (947, 554), (946, 556), (942, 557), (939, 561), (926, 568), (920, 573), (908, 584), (898, 595), (868, 627), (853, 643), (834, 659), (820, 670), (798, 689), (788, 697), (771, 711), (756, 724), (717, 753), (693, 764), (674, 776), (660, 783), (639, 795)]",141.53663364879708,"[1, 3, 2, 7, 9, 4, 5, 6, 8]","(0, 0.25)",THI007B,THI,B,English,Wed Aug 22 15:36:24 2018,Mouse
1,2,2,0,45,1,1,1,321,121,200,136,0,500,200,8000,"[(960, 540), (960, 540), (960, 540), (960, 540), (960, 540), (960, 540), (960, 540), (960, 540), (960, 540), (960, 540), (960, 540), (960, 540), (960, 541), (960, 541), (960, 542), (960, 542), (961, 543), (965, 545), (969, 548), (995, 560), (1011, 566), (1024, 573), (1040, 581), (1065, 592), (1076, 597), (1087, 602), (1102, 608), (1146, 620), (1177, 630), (1207, 644), (1235, 654), (1302, 685), (1336, 699)]",22.922157569227455,"[1, 3, 2, 7, 9, 4, 5, 6, 8]","(0, 0.25)",THI007B,THI,B,English,Wed Aug 22 15:36:24 2018,Mouse
1,2,2,0,46,2,2,1,901,661,240,135,0,500,200,8000,"[(960, 540), (960, 540), (960, 540), (960, 540), (960, 540), (960, 540), (960, 540), (960, 540), (960, 540), (960, 540), (960, 540), (960, 540), (960, 540), (960, 540), (960, 540), (960, 540), (960, 540), (960, 540), (960, 540), (960, 540), (960, 540), (960, 540), (960, 540), (960, 540), (960, 540), (960, 540), (960, 540), (960, 540), (960, 540), (960, 540), (960, 540), (960, 540), (960, 540), (960, 540), (960, 540), (960, 540), (960, 540), (960, 540), (960, 540), (960, 540), (960, 540), (960, 540), (960, 540), (960, 540), (960, 540), (960, 540), (960, 540), (960, 540), (960, 540), (960, 540), (960, 540), (960, 540), (960, 540), (960, 540), (960, 540), (960, 540), (960, 540), (960, 540), (960, 540), (960, 540), (960, 540), (960, 540), (960, 540), (960, 540), (960, 540), (960, 540), (960, 539), (960, 539), (960, 539), (960, 539), (957, 541), (956, 547), (955, 550), (955, 559), (955, 588), (955, 610), (955, 630), (955, 650), (955, 689), (955, 706), (955, 718), (955, 729), (955, 751), (953, 762), (953, 777), (953, 793), (955, 842), (962, 877), (966, 906), (971, 936), (971, 970)]",88.53461361011482,"[1, 3, 2, 7, 9, 4, 5, 6, 8]","(0, 0.25)",THI007B,THI,B,English,Wed Aug 22 15:36:24 2018,Mouse
1,2,2,0,47,1,1,1,360,190,170,134,0,500,200,8000,"[(960, 540), (960, 540), (960, 540), (960, 540), (960, 540), (960, 540), (960, 540), (960, 540), (960, 540), (960, 540), (960, 540), (960, 540), (960, 540), (960, 540), (960, 540), (960, 540), (960, 540), (960, 540), (962, 541), (963, 541), (967, 544), (971, 546), (984, 553), (993, 559), (1005, 566), (1019, 572), (1050, 586), (1074, 597), (1091, 604), (1115, 615), (1162, 635), (1188, 645), (1219, 657), (1254, 674), (1306, 693), (1329, 704)]",23.962488974578186,"[1, 3, 2, 7, 9, 4, 5, 6, 8]","(0, 0.25)",THI007B,THI,B,English,Wed Aug 22 15:36:24 2018,Mouse
1,2,2,0,48,6,3,0,-500,370,130,133,0,500,200,8000,"[(960, 540), (960, 540), (960, 540), (960, 540), (960, 540), (960, 540), (960, 540), (960, 540), (960, 540), (960, 540), (960, 540), (960, 540), (960, 540), (960, 540), (960, 540), (960, 540), (960, 540), (960, 540), (960, 540), (960, 540), (960, 540), (960, 540), (960, 540), (960, 540), (960, 540), (960, 540), (960, 540), (960, 540), (960, 540), (960, 540), (960, 540), (960, 540), (960, 540), (960, 540), (960, 540), (960, 540), (960, 541), (960, 546), (960, 548), (961, 553), (962, 560), (970, 582), (978, 599), (990, 633), (1009, 668), (1060, 771), (1084, 817), (1104, 865), (1117, 902), (1140, 955)]",66.55193742204219,"[1, 3, 2, 7, 9, 4, 5, 6, 8]","(0, 0.25)",THI007B,THI,B,English,Wed Aug 22 15:36:24 2018,Mouse
1,2,2,0,49,5,1,0,-340,160,180,134,0,500,200,8000,"[(960, 540), (960, 540), (960, 540), (960, 540), (960, 540), (960, 540), (960, 540), (960, 540), (960, 540), (960, 540), (960, 540), (960, 540), (960, 540), (960, 540), (960, 540), (960, 539), (962, 539), (970, 543), (1017, 570), (1037, 579), (1061, 588), (1087, 599), (1118, 612), (1130, 617), (1148, 622), (1168, 628), (1199, 636), (1217, 642), (1234, 647), (1256, 653), (1298, 664), (1312, 669), (1327, 674), (1341, 676)]",19.644296991378045,"[1, 3, 2, 7, 9, 4, 5, 6, 8]","(0, 0.25)",THI007B,THI,B,English,Wed Aug 22 15:36:24 2018,Mouse
1,2,2,0,50,8,4,0,-1179,389,790,135,0,500,200,8000,"[(960, 540), (960, 540), (960, 540), (960, 540), (960, 540), (960, 540), (960, 540), (960, 540), (960, 540), (960, 540), (960, 540), (960, 540), (960, 540), (960, 540), (960, 540), (960, 540), (960, 540), (960, 540), (960, 540), (960, 540), (960, 540), (960, 540), (960, 540), (960, 540), (960, 540), (960, 540), (960, 540), (960, 540), (960, 540), (960, 540), (960, 540), (960, 540), (960, 540), (960, 540), (960, 540), (960, 540), (960, 540), (960, 540), (960, 539), (958, 539), (956, 539), (954, 539), (951, 539), (947, 539), (945, 539), (943, 539), (941, 539), (938, 539), (938, 539), (937, 539), (937, 539), (937, 539), (937, 539), (937, 539), (937, 539), (937, 539), (937, 539), (937, 539), (937, 539), (937, 539), (937, 539), (937, 539), (937, 539), (937, 539), (937, 539), (937, 539), (937, 539), (937, 539), (936, 539), (936, 538), (936, 538), (936, 537), (936, 537), (936, 536), (936, 536), (936, 534), (936, 533), (936, 532), (936, 532), (936, 530), (936, 529), (936, 528), (936, 528), (937, 525), (938, 524), (938, 524), (938, 522), (938, 520), (938, 519), (939, 518), (939, 518), (940, 516), (940, 515), (940, 515), (941, 513), (941, 508), (942, 504), (943, 498), (943, 497), (943, 495), (943, 493), (943, 492), (943, 491), (943, 489), (942, 486), (939, 484), (932, 480), (913, 468), (898, 460), (883, 454), (864, 445), (826, 428), (802, 419), (776, 407), (752, 396), (679, 359), (646, 339), (606, 318)]",212.09259132873416,"[1, 3, 2, 7, 9, 4, 5, 6, 8]","(0, 0.25)",THI007B,THI,B,English,Wed Aug 22 15:36:24 2018,Mouse
1,2,2,0,51,5,7,0,-1150,50,1100,136,0,500,200,8000,"[(960, 540), (960, 540), (960, 540), (960, 540), (961, 541), (962, 541), (962, 541), (962, 541), (962, 542), (962, 542), (962, 542), (963, 544), (963, 544), (963, 544), (963, 546), (963, 547), (963, 549), (964, 550), (964, 550), (964, 551), (964, 553), (964, 554), (964, 556), (964, 556), (964, 558), (964, 558), (964, 559), (964, 559), (964, 562), (964, 565), (962, 566), (962, 569), (957, 585), (955, 599), (952, 607), (950, 614), (946, 622), (946, 623), (946, 624), (946, 626), (945, 628), (943, 632), (943, 633), (941, 638), (933, 651), (930, 657), (928, 659), (927, 661), (926, 662), (925, 663), (925, 663), (924, 664), (924, 664), (924, 664), (924, 664), (924, 665), (924, 665), (923, 666), (922, 668), (922, 668), (921, 670), (919, 671), (918, 672), (916, 673), (913, 676), (908, 680), (902, 684), (895, 689), (888, 693), (886, 695), (883, 697), (883, 697), (882, 699), (882, 699), (882, 699), (882, 700), (882, 700), (882, 701), (882, 701), (882, 702), (882, 704), (882, 705), (882, 707), (882, 708), (882, 710), (882, 710), (882, 712), (882, 712), (882, 714), (882, 715), (883, 716), (883, 716), (884, 718), (884, 718), (884, 719), (885, 720), (885, 721), (885, 722), (885, 722), (885, 725), (885, 730), (883, 732), (881, 733), (875, 737), (867, 741), (862, 743), (859, 743), (852, 748), (828, 761), (810, 767), (784, 779), (761, 788), (702, 807), (674, 817), (650, 828)]",137.10692129068815,"[1, 3, 2, 7, 9, 4, 5, 6, 8]","(0, 0.25)",THI007B,THI,B,English,Wed Aug 22 15:36:24 2018,Mouse
1,2,2,0,52,6,6,1,800,30,770,137,0,500,200,8000,"[(961, 538), (961, 538), (962, 537), (962, 537), (963, 536), (963, 536), (963, 536), (963, 536), (963, 536), (963, 536), (963, 536), (964, 536), (965, 536), (965, 536), (965, 536), (965, 536), (967, 535), (967, 535), (968, 534), (968, 534), (968, 533), (968, 533), (968, 533), (968, 533), (968, 533), (968, 533), (968, 533), (968, 533), (968, 533), (968, 533), (968, 533), (968, 533), (968, 533), (968, 533), (968, 533), (968, 533), (968, 533), (968, 533), (968, 533), (968, 533), (968, 533), (968, 533), (968, 533), (968, 533), (968, 533), (968, 533), (968, 533), (968, 533), (968, 533), (968, 533), (968, 533), (970, 533), (971, 533), (972, 532), (973, 532), (973, 531), (976, 528), (977, 528), (978, 527), (980, 525), (987, 520), (993, 510), (1002, 495), (1014, 473), (1048, 423), (1064, 398), (1078, 379), (1086, 360), (1103, 332), (1110, 321), (1113, 311), (1117, 302), (1123, 285), (1129, 275), (1133, 265), (1138, 251), (1151, 218), (1156, 205), (1158, 196), (1161, 190)]",299.86813570318725,"[1, 3, 2, 7, 9, 4, 5, 6, 8]","(0, 0.25)",THI007B,THI,B,English,Wed Aug 22 15:36:24 2018,Mouse
1,2,2,0,53,3,3,1,680,40,640,137,0,500,200,8000,"[(960, 540), (960, 540), (960, 540), (960, 539), (960, 539), (960, 539), (960, 539), (960, 539), (960, 539), (960, 539), (960, 539), (960, 539), (961, 538), (961, 538), (961, 538), (961, 538), (961, 538), (961, 538), (961, 538), (961, 538), (961, 538), (963, 538), (963, 538), (963, 538), (963, 538), (963, 538), (963, 538), (963, 538), (963, 538), (963, 538), (963, 538), (963, 538), (963, 538), (963, 538), (963, 538), (963, 538), (963, 538), (963, 538), (963, 538), (963, 538), (963, 538), (963, 538), (963, 538), (963, 538), (963, 538), (964, 538), (964, 538), (967, 538), (970, 538), (971, 538), (975, 539), (985, 545), (992, 550), (999, 555), (1005, 560), (1017, 568), (1023, 573), (1030, 580), (1033, 583), (1037, 590), (1041, 600), (1048, 620), (1064, 671), (1090, 772), (1106, 820), (1113, 863), (1113, 891), (1113, 928)]",68.47919983490186,"[1, 3, 2, 7, 9, 4, 5, 6, 8]","(0, 0.25)",THI007B,THI,B,English,Wed Aug 22 15:36:24 2018,Mouse
1,2,2,0,54,4,3,0,-3110,470,2640,136,0,500,200,8000,"[(960, 540), (960, 540), (960, 540), (960, 540), (960, 540), (960, 540), (960, 540), (960, 540), (960, 540), (960, 540), (960, 540), (960, 540), (960, 540), (960, 540), (960, 540), (960, 540), (960, 540), (960, 540), (960, 540), (960, 540), (960, 540), (960, 540), (960, 540), (960, 540), (960, 540), (960, 540), (960, 540), (960, 540), (960, 540), (960, 540), (960, 540), (960, 540), (960, 540), (960, 540), (960, 540), (960, 540), (960, 540), (960, 540), (960, 540), (960, 540), (960, 540), (960, 540), (960, 540), (960, 540), (960, 540), (960, 540), (961, 540), (961, 540), (961, 540), (961, 540), (961, 540), (961, 542), (961, 542), (961, 542), (961, 544), (961, 545), (960, 547), (959, 548), (959, 549), (958, 550), (958, 550), (958, 550), (956, 551), (956, 551), (956, 552), (956, 552), (955, 553), (954, 554), (954, 554), (954, 554), (951, 556), (950, 556), (950, 556), (949, 556), (947, 556), (946, 556), (946, 556), (945, 556), (944, 557), (944, 557), (943, 558), (943, 558), (943, 558), (943, 558), (943, 558), (943, 558), (943, 558), (943, 558), (943, 558), (943, 558), (943, 558), (943, 558), (943, 558), (943, 558), (943, 558), (943, 558), (943, 558), (943, 558), (943, 557), (943, 557), (943, 556), (943, 556), (943, 556), (943, 555), (943, 555), (943, 554), (943, 553), (943, 551), (944, 551), (944, 550), (944, 549), (945, 548), (945, 548), (945, 548), (946, 546), (946, 546), (946, 546), (946, 546), (946, 546), (947, 546), (947, 546), (947, 546), (947, 545), (947, 545), (947, 545), (947, 545), (947, 545), (948, 545), (948, 545), (948, 545), (948, 545), (948, 545), (948, 545), (948, 545), (948, 544), (949, 543), (949, 543), (949, 543), (950, 542), (950, 542), (950, 542), (950, 542), (950, 542), (950, 542), (950, 542), (950, 542), (950, 542), (950, 542), (950, 542), (950, 542), (950, 542), (950, 542), (950, 542), (950, 542), (951, 541), (951, 541), (951, 541), (951, 541), (951, 541), (951, 541), (951, 541), (951, 541), (951, 541), (951, 541), (951, 541), (951, 541), (951, 541), (951, 541), (951, 541), (951, 541), (952, 540), (952, 540), (952, 540), (952, 540), (952, 540), (952, 540), (952, 540), (952, 540), (952, 540), (952, 540), (952, 540), (952, 540), (952, 540), (952, 540), (952, 540), (952, 540), (952, 540), (952, 540), (952, 540), (952, 540), (952, 540), (952, 540), (952, 540), (952, 540), (952, 540), (952, 540), (952, 540), (952, 540), (952, 540), (952, 540), (952, 540), (952, 540), (952, 540), (952, 540), (952, 540), (952, 540), (952, 540), (952, 540), (952, 540), (952, 540), (952, 540), (952, 540), (952, 540), (952, 540), (952, 540), (952, 540), (952, 540), (952, 540), (952, 540), (952, 540), (952, 540), (952, 540), (952, 540), (952, 540), (952, 540), (952, 540), (952, 540), (952, 540), (952, 540), (952, 540), (952, 540), (952, 540), (952, 540), (952, 540), (952, 540), (952, 540), (952, 540), (952, 540), (952, 540), (952, 540), (952, 540), (952, 540), (952, 540), (952, 540), (952, 540), (952, 540), (952, 540), (952, 540), (953, 540), (953, 540), (955, 540), (955, 540), (956, 541), (957, 543), (960, 549), (961, 552), (965, 557), (967, 559), (975, 566), (980, 572), (985, 580), (991, 589), (1009, 620), (1023, 640), (1039, 658), (1052, 673), (1071, 691), (1081, 700), (1087, 709), (1093, 716), (1100, 728), (1102, 735), (1103, 742), (1106, 748), (1107, 761), (1110, 768), (1111, 774), (1113, 781), (1121, 801), (1123, 809), (1126, 818), (1129, 826), (1137, 846), (1138, 852), (1140, 859), (1143, 865), (1145, 872), (1145, 873), (1146, 875), (1146, 875), (1147, 877), (1148, 878), (1148, 878), (1148, 878), (1148, 878), (1148, 878), (1148, 878), (1148, 878), (1148, 878), (1148, 878), (1148, 878), (1148, 878), (1148, 878), (1148, 878), (1148, 878), (1148, 878), (1148, 880), (1149, 882), (1151, 884), (1153, 890), (1162, 905)]",61.03877659975337,"[1, 3, 2, 7, 9, 4, 5, 6, 8]","(0, 0.25)",THI007B,THI,B,English,Wed Aug 22 15:36:24 2018,Mouse
1,2,2,0,55,3,3,1,469,39,430,137,0,500,200,8000,"[(960, 540), (960, 540), (960, 540), (960, 539), (960, 539), (960, 538), (960, 537), (960, 537), (960, 537), (961, 536), (961, 536), (961, 536), (961, 536), (962, 536), (963, 534), (963, 534), (965, 534), (965, 534), (965, 534), (965, 534), (965, 534), (966, 533), (966, 533), (966, 533), (966, 533), (966, 533), (966, 533), (966, 533), (966, 533), (966, 533), (967, 533), (968, 533), (968, 533), (970, 533), (978, 533), (985, 535), (997, 543), (1011, 556), (1065, 619), (1089, 646), (1116, 680), (1137, 708), (1167, 750), (1181, 773), (1198, 798), (1221, 836), (1257, 919)]",51.91628947804253,"[1, 3, 2, 7, 9, 4, 5, 6, 8]","(0, 0.25)",THI007B,THI,B,English,Wed Aug 22 15:36:24 2018,Mouse
1,2,2,0,56,3,3,1,2171,181,1990,137,0,500,200,8000,"[(960, 540), (960, 540), (960, 540), (960, 540), (960, 540), (960, 540), (960, 540), (960, 540), (960, 540), (960, 540), (960, 540), (960, 540), (960, 540), (960, 540), (960, 540), (960, 540), (960, 540), (960, 540), (960, 539), (960, 539), (961, 539), (961, 539), (961, 539), (961, 539), (961, 539), (961, 539), (961, 539), (961, 539), (961, 539), (961, 539), (961, 539), (961, 539), (961, 539), (961, 539), (961, 539), (961, 539), (961, 539), (961, 539), (961, 539), (961, 539), (961, 539), (961, 539), (961, 539), (961, 539), (961, 539), (961, 539), (961, 539), (962, 539), (962, 539), (962, 539), (962, 539), (962, 539), (962, 539), (963, 539), (963, 539), (963, 539), (963, 539), (963, 539), (963, 538), (963, 538), (963, 538), (963, 538), (963, 538), (963, 538), (963, 538), (963, 538), (963, 538), (963, 538), (963, 538), (963, 538), (963, 538), (963, 538), (963, 538), (963, 538), (963, 538), (963, 538), (963, 538), (963, 538), (963, 538), (963, 538), (963, 538), (963, 538), (963, 538), (963, 538), (963, 538), (963, 538), (963, 538), (963, 538), (963, 538), (963, 538), (963, 538), (963, 538), (963, 538), (963, 538), (963, 538), (963, 538), (963, 538), (963, 538), (963, 538), (963, 538), (963, 538), (963, 538), (963, 538), (963, 538), (963, 538), (963, 538), (963, 538), (963, 538), (963, 538), (963, 538), (963, 538), (963, 538), (963, 538), (963, 538), (963, 538), (963, 538), (963, 538), (963, 538), (963, 538), (963, 538), (963, 538), (963, 538), (963, 538), (963, 538), (963, 538), (963, 538), (963, 538), (963, 538), (963, 538), (963, 538), (963, 538), (963, 538), (963, 538), (963, 538), (963, 538), (963, 538), (963, 538), (963, 538), (963, 538), (963, 538), (963, 538), (963, 538), (963, 538), (963, 538), (963, 538), (963, 538), (963, 538), (963, 538), (963, 538), (963, 538), (963, 538), (963, 538), (963, 538), (963, 538), (963, 538), (963, 538), (963, 538), (963, 538), (963, 538), (963, 538), (963, 538), (963, 538), (963, 538), (963, 538), (963, 538), (963, 538), (963, 538), (963, 538), (963, 538), (963, 538), (963, 538), (963, 538), (963, 538), (963, 538), (963, 538), (963, 538), (963, 538), (963, 538), (963, 538), (963, 538), (963, 538), (963, 538), (963, 538), (963, 538), (963, 538), (963, 538), (963, 538), (963, 538), (963, 538), (963, 538), (963, 538), (963, 538), (963, 538), (963, 538), (964, 538), (964, 538), (965, 538), (965, 538), (965, 538), (966, 539), (966, 539), (967, 540), (968, 541), (969, 544), (972, 547), (973, 551), (977, 555), (986, 563), (988, 567), (996, 572), (1004, 581), (1028, 611), (1057, 645), (1086, 682), (1125, 728), (1193, 807), (1221, 842), (1241, 865)]",49.152802231724834,"[1, 3, 2, 7, 9, 4, 5, 6, 8]","(0, 0.25)",THI007B,THI,B,English,Wed Aug 22 15:36:24 2018,Mouse
1,2,2,0,57,8,7,0,-1210,811,399,136,0,500,200,8000,"[(960, 540), (960, 540), (960, 540), (960, 540), (960, 540), (960, 540), (960, 540), (960, 540), (960, 540), (960, 540), (960, 540), (960, 540), (960, 540), (960, 540), (960, 540), (960, 540), (960, 540), (960, 540), (960, 540), (960, 540), (960, 540), (960, 540), (960, 540), (960, 540), (960, 540), (960, 540), (960, 540), (960, 540), (960, 540), (960, 540), (960, 540), (960, 540), (960, 540), (960, 540), (960, 540), (960, 540), (960, 540), (960, 540), (960, 540), (960, 540), (960, 540), (960, 540), (960, 540), (960, 540), (960, 540), (960, 540), (960, 540), (960, 540), (960, 540), (960, 540), (960, 540), (960, 540), (960, 540), (960, 540), (960, 540), (960, 540), (960, 540), (960, 540), (960, 540), (960, 540), (960, 540), (960, 540), (960, 540), (960, 540), (960, 540), (960, 540), (960, 540), (960, 540), (960, 540), (960, 540), (960, 540), (960, 540), (960, 540), (960, 540), (960, 540), (960, 540), (960, 540), (960, 540), (960, 540), (960, 540), (960, 540), (960, 541), (962, 543), (963, 545), (963, 545), (963, 548), (963, 548), (963, 548), (964, 550), (964, 551), (964, 551), (964, 554), (964, 558), (964, 560), (963, 562), (962, 565), (960, 570), (959, 571), (958, 573), (957, 573), (955, 577), (954, 579), (948, 587), (938, 601), (901, 636), (877, 658), (855, 675), (827, 694), (787, 721), (772, 733), (762, 742), (752, 750), (738, 763), (733, 766), (726, 770), (718, 777), (699, 793), (690, 801), (681, 810), (674, 817), (664, 831)]",135.48802720516414,"[1, 3, 2, 7, 9, 4, 5, 6, 8]","(0, 0.25)",THI007B,THI,B,English,Wed Aug 22 15:36:24 2018,Mouse
1,2,2,0,58,9,8,0,-1502,42,1460,137,0,500,200,8000,"[(960, 540), (960, 540), (960, 540), (960, 540), (960, 539), (960, 539), (960, 539), (962, 538), (963, 538), (966, 538), (969, 538), (975, 538), (979, 538), (981, 538), (982, 538), (984, 537), (984, 537), (984, 537), (984, 537), (984, 537), (984, 537), (984, 537), (984, 537), (984, 537), (985, 537), (985, 537), (985, 537), (985, 537), (985, 537), (985, 537), (985, 537), (985, 537), (985, 537), (985, 537), (985, 537), (985, 537), (985, 537), (985, 537), (985, 537), (985, 537), (985, 537), (985, 537), (985, 537), (985, 537), (985, 537), (985, 537), (985, 537), (985, 537), (987, 537), (987, 537), (987, 537), (987, 537), (987, 537), (987, 537), (987, 537), (987, 537), (987, 537), (987, 537), (987, 537), (987, 537), (987, 537), (987, 537), (987, 537), (987, 537), (987, 537), (989, 538), (989, 538), (989, 538), (990, 539), (990, 539), (990, 539), (991, 539), (991, 539), (991, 539), (991, 539), (992, 540), (993, 542), (994, 542), (994, 542), (996, 542), (996, 542), (997, 542), (998, 542), (1000, 542), (1001, 543), (1003, 543), (1006, 543), (1012, 544), (1016, 545), (1019, 545), (1021, 546), (1026, 548), (1028, 548), (1030, 549), (1032, 550), (1038, 551), (1041, 551), (1044, 551), (1047, 551), (1051, 553), (1054, 553), (1055, 553), (1056, 553), (1057, 554), (1057, 554), (1057, 554), (1057, 554), (1057, 554), (1057, 554), (1057, 554), (1057, 554), (1057, 554), (1057, 554), (1058, 554), (1058, 554), (1060, 554), (1060, 555), (1061, 555), (1064, 556), (1068, 557), (1071, 557), (1074, 557), (1078, 557), (1084, 557), (1087, 557), (1090, 557), (1093, 557), (1099, 557), (1101, 557), (1102, 557), (1105, 557), (1106, 557), (1108, 557), (1109, 557), (1115, 553), (1138, 530), (1151, 518), (1168, 505), (1181, 494), (1203, 475), (1213, 467), (1222, 462), (1231, 454), (1242, 448), (1249, 444), (1258, 440), (1267, 436), (1296, 424), (1308, 418), (1325, 412), (1337, 406)]",340.43287090194667,"[1, 3, 2, 7, 9, 4, 5, 6, 8]","(0, 0.25)",THI007B,THI,B,English,Wed Aug 22 15:36:24 2018,Mouse
1,2,2,0,59,1,1,1,330,20,310,138,0,500,200,8000,"[(981, 555), (1001, 575), (1024, 591), (1064, 622), (1084, 634), (1094, 642), (1107, 649), (1121, 655), (1128, 658), (1133, 660), (1139, 663), (1147, 665), (1152, 668), (1155, 668), (1158, 670), (1165, 673), (1168, 674), (1171, 676), (1173, 677), (1183, 682), (1186, 683), (1191, 685), (1198, 688), (1214, 695), (1223, 698), (1231, 700), (1240, 701), (1256, 704), (1264, 706), (1273, 706), (1284, 707), (1309, 711), (1324, 712)]",25.29202115702128,"[1, 3, 2, 7, 9, 4, 5, 6, 8]","(0, 0.25)",THI007B,THI,B,English,Wed Aug 22 15:36:24 2018,Mouse
1,2,2,0,60,8,8,1,710,180,530,138,0,500,200,8000,"[(960, 540), (960, 540), (960, 540), (960, 540), (960, 540), (960, 540), (960, 540), (960, 540), (960, 540), (960, 540), (960, 540), (960, 540), (960, 540), (960, 540), (960, 540), (960, 540), (960, 540), (961, 540), (962, 540), (963, 540), (966, 540), (967, 540), (970, 541), (972, 541), (974, 541), (977, 541), (979, 541), (981, 541), (984, 541), (992, 541), (995, 541), (999, 541), (1002, 541), (1007, 538), (1008, 538), (1011, 537), (1012, 537), (1015, 537), (1018, 537), (1020, 535), (1024, 534), (1037, 530), (1043, 527), (1052, 523), (1058, 520), (1063, 518), (1063, 518), (1065, 518), (1065, 518), (1068, 518), (1070, 518), (1073, 518), (1077, 516), (1085, 515), (1090, 513), (1095, 510), (1100, 508), (1111, 501), (1115, 500), (1120, 499), (1124, 497), (1136, 492), (1143, 490), (1153, 486), (1166, 481), (1201, 465), (1222, 458), (1251, 444), (1277, 434), (1324, 414), (1339, 406)]",340.52834062445544,"[1, 3, 2, 7, 9, 4, 5, 6, 8]","(0, 0.25)",THI007B,THI,B,English,Wed Aug 22 15:36:24 2018,Mouse
1,2,2,0,61,8,4,0,-329,29,300,137,0,500,200,8000,"[(960, 540), (960, 540), (960, 539), (956, 536), (945, 533), (925, 527), (915, 525), (908, 522), (902, 521), (886, 516), (878, 513), (873, 511), (864, 506), (846, 499), (835, 494), (822, 488), (809, 481), (789, 467), (784, 464), (780, 457), (777, 451), (767, 438), (763, 430), (757, 422), (749, 410), (729, 381), (715, 361), (705, 347), (697, 335), (676, 305), (668, 295), (660, 285), (651, 275)]",220.61656130585104,"[1, 3, 2, 7, 9, 4, 5, 6, 8]","(0, 0.25)",THI007B,THI,B,English,Wed Aug 22 15:36:24 2018,Mouse
1,2,2,0,62,5,4,0,-1770,100,1670,138,0,500,200,8000,"[(960, 540), (960, 540), (960, 540), (960, 540), (960, 540), (960, 540), (960, 540), (960, 540), (960, 540), (960, 541), (960, 541), (960, 541), (960, 541), (960, 541), (961, 541), (961, 541), (961, 541), (961, 541), (961, 541), (961, 541), (961, 541), (962, 541), (964, 541), (966, 541), (968, 542), (968, 542), (969, 542), (970, 543), (970, 543), (970, 543), (970, 543), (971, 543), (971, 543), (971, 543), (971, 543), (971, 543), (971, 543), (971, 543), (971, 543), (971, 543), (971, 543), (971, 543), (971, 543), (971, 543), (971, 543), (971, 543), (971, 543), (971, 543), (971, 543), (971, 543), (971, 543), (971, 544), (970, 546), (969, 546), (967, 547), (964, 549), (963, 549), (962, 549), (960, 550), (956, 552), (954, 553), (951, 554), (948, 554), (942, 556), (939, 557), (936, 558), (932, 560), (928, 562), (921, 566), (912, 568), (904, 570), (890, 572), (886, 572), (880, 572), (875, 572), (865, 572), (861, 572), (856, 572), (849, 571), (839, 568), (831, 565), (824, 563), (817, 560), (807, 558), (798, 554), (792, 553), (788, 551), (780, 550), (780, 550), (777, 550), (775, 549), (772, 549), (770, 549), (769, 549), (765, 547), (762, 546), (759, 545), (757, 545), (757, 545), (756, 545), (756, 545), (756, 545), (756, 545), (756, 545), (756, 545), (756, 545), (756, 545), (754, 543), (754, 543), (754, 543), (753, 542), (753, 539), (752, 536), (751, 532), (749, 528), (745, 515), (741, 507), (735, 496), (730, 489), (718, 473), (711, 466), (705, 460), (700, 452), (691, 446), (689, 443), (688, 442), (687, 441), (685, 436), (683, 433), (683, 428), (681, 424), (677, 416), (676, 414), (675, 410), (673, 409), (672, 404), (671, 402), (671, 402), (671, 402), (670, 401), (670, 401), (670, 401), (670, 401), (670, 401), (669, 401), (667, 401), (666, 402), (661, 412), (657, 420), (656, 427), (654, 436), (646, 452), (642, 459), (640, 462), (637, 466), (634, 470), (634, 471), (634, 471), (634, 471), (634, 471), (634, 471), (634, 471), (634, 471), (633, 471), (632, 467), (631, 458), (628, 451), (626, 432), (626, 424), (625, 414), (622, 404), (620, 387), (617, 378), (615, 372), (612, 363), (607, 355), (605, 352)]",207.90468604054942,"[1, 3, 2, 7, 9, 4, 5, 6, 8]","(0, 0.25)",THI007B,THI,B,English,Wed Aug 22 15:36:24 2018,Mouse
1,2,2,0,63,3,3,1,698,38,660,139,0,500,200,8000,"[(960, 540), (960, 540), (960, 540), (961, 540), (961, 540), (962, 540), (963, 540), (963, 540), (963, 540), (967, 542), (971, 543), (974, 543), (974, 543), (981, 546), (986, 547), (992, 547), (999, 551), (1016, 556), (1026, 558), (1036, 561), (1047, 564), (1069, 573), (1082, 578), (1089, 583), (1097, 586), (1112, 597), (1117, 602), (1122, 606), (1127, 613), (1139, 629), (1145, 637), (1150, 645), (1153, 649), (1155, 656), (1157, 660), (1158, 666), (1158, 669), (1158, 673), (1158, 675), (1159, 676), (1159, 677), (1159, 679), (1159, 679), (1159, 680), (1159, 681), (1159, 682), (1159, 683), (1159, 685), (1159, 688), (1159, 694), (1159, 698), (1159, 703), (1159, 711), (1159, 721), (1159, 723), (1159, 725), (1158, 730), (1157, 733), (1156, 735), (1156, 736), (1156, 739), (1156, 747), (1156, 754), (1160, 764), (1164, 776), (1177, 806), (1183, 818), (1189, 835), (1191, 847), (1203, 881)]",54.52594881098038,"[1, 3, 2, 7, 9, 4, 5, 6, 8]","(0, 0.25)",THI007B,THI,B,English,Wed Aug 22 15:36:24 2018,Mouse
1,2,2,0,64,3,3,1,350,20,330,139,0,500,200,8000,"[(962, 549), (963, 556), (968, 572), (971, 580), (972, 587), (976, 597), (981, 614), (983, 623), (986, 633), (988, 640), (992, 653), (993, 655), (994, 659), (996, 663), (997, 670), (1001, 678), (1001, 681), (1004, 689), (1009, 703), (1012, 710), (1016, 719), (1018, 723), (1024, 738), (1028, 744), (1033, 751), (1038, 758), (1050, 772), (1057, 780), (1067, 791), (1077, 801), (1101, 823), (1112, 834), (1128, 847), (1145, 862), (1186, 895)]",57.51836561349291,"[1, 3, 2, 7, 9, 4, 5, 6, 8]","(0, 0.25)",THI007B,THI,B,English,Wed Aug 22 15:36:24 2018,Mouse
1,2,2,0,65,4,9,0,-3489,3029,460,138,0,500,200,8000,"[(960, 540), (960, 540), (960, 540), (960, 540), (960, 540), (960, 540), (960, 540), (960, 540), (960, 540), (960, 540), (960, 540), (960, 540), (960, 540), (960, 540), (960, 540), (960, 540), (960, 540), (960, 540), (960, 540), (960, 540), (960, 540), (960, 540), (960, 540), (960, 540), (960, 540), (960, 540), (960, 540), (960, 540), (960, 540), (960, 540), (960, 540), (960, 540), (960, 540), (960, 540), (960, 540), (960, 540), (960, 540), (960, 540), (960, 540), (960, 540), (960, 540), (960, 540), (960, 540), (960, 540), (960, 540), (960, 540), (960, 540), (960, 540), (960, 540), (960, 540), (960, 540), (960, 540), (960, 540), (960, 540), (960, 540), (960, 540), (960, 540), (960, 540), (960, 540), (960, 540), (960, 540), (960, 540), (960, 540), (960, 540), (960, 540), (960, 540), (960, 540), (960, 540), (960, 540), (960, 540), (960, 540), (960, 540), (960, 540), (960, 540), (960, 540), (960, 540), (960, 540), (960, 540), (960, 540), (960, 540), (960, 540), (960, 540), (960, 540), (960, 540), (960, 540), (960, 540), (960, 540), (960, 540), (960, 540), (960, 540), (960, 540), (960, 540), (960, 540), (960, 540), (960, 540), (960, 540), (960, 540), (960, 540), (960, 540), (960, 540), (960, 540), (960, 540), (960, 540), (960, 540), (960, 540), (960, 540), (960, 540), (960, 540), (960, 540), (960, 540), (960, 540), (960, 540), (960, 540), (960, 540), (960, 540), (960, 540), (960, 540), (960, 540), (960, 540), (960, 540), (960, 540), (960, 540), (960, 540), (960, 540), (960, 540), (960, 540), (960, 540), (960, 540), (960, 540), (960, 540), (960, 540), (960, 540), (960, 540), (960, 540), (960, 540), (960, 540), (960, 540), (960, 540), (960, 540), (960, 540), (960, 540), (960, 540), (960, 540), (960, 540), (960, 540), (960, 540), (960, 540), (960, 540), (960, 540), (960, 540), (960, 540), (960, 540), (960, 540), (960, 540), (960, 540), (960, 540), (960, 540), (960, 540), (960, 540), (960, 540), (960, 540), (960, 540), (960, 540), (960, 540), (960, 540), (960, 540), (960, 540), (960, 540), (960, 540), (960, 540), (960, 540), (960, 540), (960, 540), (960, 540), (960, 540), (960, 540), (960, 540), (960, 540), (960, 540), (960, 540), (960, 540), (960, 540), (960, 540), (960, 540), (960, 540), (960, 540), (960, 540), (960, 540), (960, 540), (960, 540), (960, 540), (960, 540), (960, 540), (960, 540), (960, 540), (960, 540), (960, 540), (960, 540), (960, 540), (960, 540), (960, 540), (960, 540), (960, 540), (960, 540), (960, 540), (960, 540), (960, 540), (960, 540), (960, 540), (960, 540), (960, 540), (960, 540), (960, 540), (960, 540), (960, 540), (960, 540), (960, 540), (960, 540), (960, 540), (960, 540), (960, 540), (960, 540), (960, 540), (960, 540), (960, 540), (960, 540), (960, 540), (960, 540), (960, 540), (960, 540), (960, 540), (960, 540), (960, 540), (960, 540), (960, 540), (960, 540), (960, 540), (960, 540), (960, 540), (960, 540), (960, 540), (960, 540), (960, 540), (960, 540), (960, 540), (960, 540), (960, 540), (960, 540), (960, 540), (960, 540), (960, 540), (960, 540), (960, 540), (960, 540), (960, 540), (960, 540), (960, 540), (960, 540), (960, 540), (960, 540), (960, 540), (960, 540), (960, 540), (960, 540), (960, 540), (960, 540), (960, 540), (960, 540), (960, 540), (960, 540), (960, 540), (960, 540), (960, 540), (960, 540), (960, 540), (960, 540), (960, 540), (960, 540), (960, 540), (960, 540), (960, 540), (960, 540), (960, 540), (960, 540), (960, 540), (960, 540), (960, 540), (960, 540), (960, 540), (960, 540), (960, 540), (960, 540), (960, 540), (960, 540), (960, 540), (960, 540), (960, 540), (960, 540), (960, 540), (960, 540), (960, 540), (960, 540), (959, 540), (959, 540), (959, 540), (958, 540), (956, 540), (956, 540), (955, 541), (953, 541), (947, 541), (944, 541), (938, 541), (932, 541), (907, 542), (895, 542), (881, 542), (873, 545), (860, 547), (854, 547), (847, 548), (839, 548), (823, 548), (813, 548), (805, 548), (799, 548), (791, 548), (787, 548), (783, 549), (781, 549), (772, 552), (763, 554), (757, 554), (747, 555), (731, 556), (721, 557), (710, 561), (700, 562), (684, 563), (674, 565), (663, 565), (649, 565), (622, 565), (610, 565), (599, 565), (588, 565), (574, 565), (567, 564), (559, 563)]",176.71730503641174,"[1, 3, 2, 7, 9, 4, 5, 6, 8]","(0, 0.25)",THI007B,THI,B,English,Wed Aug 22 15:36:24 2018,Mouse
1,2,2,0,66,3,3,1,429,19,410,139,0,500,200,8000,"[(961, 540), (962, 540), (963, 540), (964, 540), (966, 540), (967, 540), (968, 540), (971, 540), (972, 540), (975, 540), (976, 540), (979, 540), (987, 540), (993, 540), (998, 542), (1002, 542), (1017, 543), (1025, 543), (1033, 546), (1037, 546), (1047, 547), (1053, 549), (1059, 552), (1068, 553), (1081, 557), (1088, 559), (1094, 562), (1099, 564), (1107, 570), (1109, 573), (1112, 575), (1113, 577), (1117, 594), (1122, 610), (1127, 629), (1135, 652), (1161, 713), (1173, 744), (1183, 768), (1192, 791), (1203, 823), (1209, 840), (1212, 854)]",51.251292236934624,"[1, 3, 2, 7, 9, 4, 5, 6, 8]","(0, 0.25)",THI007B,THI,B,English,Wed Aug 22 15:36:24 2018,Mouse
1,2,2,0,67,9,9,1,2369,929,1440,139,0,500,200,8000,"[(960, 540), (960, 540), (960, 540), (960, 540), (960, 540), (960, 540), (960, 540), (960, 540), (960, 540), (960, 540), (960, 540), (960, 540), (960, 540), (960, 540), (960, 540), (960, 540), (960, 540), (960, 540), (960, 540), (960, 540), (960, 540), (960, 540), (960, 540), (960, 540), (960, 540), (960, 540), (960, 540), (960, 540), (960, 540), (960, 540), (960, 540), (960, 540), (960, 540), (960, 540), (960, 540), (960, 540), (960, 540), (960, 540), (960, 540), (960, 540), (960, 540), (960, 540), (960, 540), (960, 540), (960, 540), (960, 540), (960, 540), (960, 540), (960, 540), (960, 540), (960, 540), (960, 540), (960, 540), (960, 540), (960, 540), (960, 540), (960, 540), (960, 540), (960, 540), (960, 540), (960, 540), (960, 540), (960, 540), (960, 540), (960, 540), (960, 540), (960, 540), (960, 540), (960, 540), (960, 540), (960, 540), (960, 540), (960, 540), (960, 540), (960, 540), (960, 540), (960, 540), (960, 540), (960, 540), (960, 540), (960, 540), (960, 540), (960, 540), (960, 540), (960, 540), (960, 540), (960, 540), (960, 540), (960, 540), (960, 540), (960, 540), (960, 540), (959, 540), (959, 540), (959, 540), (959, 540), (959, 540), (959, 540), (959, 540), (959, 540), (959, 540), (959, 540), (959, 540), (959, 540), (959, 540), (959, 540), (959, 540), (959, 540), (959, 540), (959, 540), (959, 540), (959, 540), (959, 540), (959, 540), (959, 540), (959, 540), (959, 540), (959, 540), (959, 540), (959, 540), (959, 540), (959, 540), (959, 540), (959, 540), (959, 540), (959, 540), (959, 540), (959, 540), (959, 540), (959, 540), (959, 540), (959, 540), (959, 540), (959, 540), (959, 540), (959, 540), (959, 540), (959, 540), (959, 540), (959, 540), (959, 540), (959, 540), (959, 540), (959, 540), (959, 540), (959, 540), (959, 540), (959, 540), (958, 539), (957, 538), (957, 538), (957, 538), (957, 538), (956, 538), (955, 537), (955, 537), (952, 537), (950, 536), (948, 536), (944, 536), (937, 535), (935, 534), (928, 533), (924, 533), (915, 532), (911, 532), (909, 532), (905, 531), (894, 529), (889, 529), (884, 528), (877, 527), (873, 527), (870, 525), (869, 525), (868, 525), (867, 525), (866, 525), (864, 525), (860, 525), (851, 523), (846, 523), (840, 522), (833, 522), (827, 522), (824, 522), (821, 522), (820, 522), (817, 522), (816, 522), (815, 522), (814, 521), (814, 521), (814, 521), (812, 521), (811, 521), (810, 520), (810, 520), (810, 520), (810, 520), (809, 520), (809, 520), (809, 520), (809, 520), (804, 520), (800, 519), (796, 517), (790, 516), (777, 514), (773, 514), (769, 514), (766, 513), (763, 513), (760, 513), (758, 513), (756, 512), (752, 511), (749, 511), (745, 510), (740, 509), (730, 508), (722, 507), (716, 506), (710, 506), (699, 504), (693, 504), (686, 504), (678, 503), (656, 501), (643, 500), (626, 500), (614, 500), (593, 500), (585, 500), (578, 500), (570, 500), (556, 498)]",185.9351712309518,"[1, 3, 2, 7, 9, 4, 5, 6, 8]","(0, 0.25)",THI007B,THI,B,English,Wed Aug 22 15:36:24 2018,Mouse
