NativeLangNumber,LanuageNumber,SessionNumber,Block,TrialNum,ConditionNumber,Response,Accuracy,RT,MovementOnsetTime,TimeInMotion,SignalContrast,SignalContrastNumber,StimDisplayTime,MaskTime,MaxResponseTime,MousePositionXY,MouseAngle,WheelOrder,NoiseMuSigma,ParticipantID,LanuageTested,SessionTested,NativeLanuage,Date,ResponseDevice
2,2,3,0,1,1,1,1,1932,1822,110,153,0,500,200,8000,"[(512, 384), (512, 384), (512, 384), (512, 384), (512, 384), (512, 384), (512, 384), (512, 384), (512, 384), (512, 384), (512, 384), (512, 384), (512, 384), (512, 384), (512, 384), (512, 384), (512, 384), (512, 384), (512, 384), (512, 384), (512, 384), (512, 384), (512, 384), (512, 384), (512, 384), (512, 384), (512, 384), (512, 384), (512, 384), (512, 384), (512, 384), (512, 384), (512, 384), (512, 384), (512, 384), (512, 384), (512, 384), (512, 384), (512, 384), (512, 384), (512, 384), (512, 384), (512, 384), (512, 384), (512, 384), (512, 384), (512, 384), (512, 384), (512, 384), (512, 384), (512, 384), (512, 384), (512, 384), (512, 384), (512, 384), (512, 384), (512, 384), (512, 384), (512, 384), (512, 384), (512, 384), (512, 384), (512, 384), (512, 384), (512, 384), (512, 384), (512, 384), (512, 384), (512, 384), (512, 384), (512, 384), (512, 384), (512, 384), (512, 384), (512, 384), (512, 384), (512, 384), (512, 384), (512, 384), (512, 384), (512, 384), (512, 384), (512, 384), (512, 384), (512, 384), (512, 384), (512, 384), (512, 384), (512, 384), (512, 384), (512, 384), (512, 384), (512, 384), (512, 384), (512, 384), (512, 384), (512, 384), (512, 384), (512, 384), (512, 384), (512, 384), (512, 384), (512, 384), (512, 384), (512, 384), (512, 384), (512, 384), (512, 384), (512, 384), (512, 384), (512, 384), (512, 384), (512, 384), (512, 384), (512, 384), (512, 384), (512, 384), (512, 384), (512, 384), (512, 384), (512, 384), (512, 384), (512, 384), (512, 384), (512, 384), (512, 384), (512, 384), (512, 384), (512, 384), (512, 384), (512, 384), (512, 384), (512, 384), (512, 384), (512, 384), (512, 384), (512, 384), (512, 384), (512, 384), (512, 384), (512, 384), (512, 384), (512, 384), (512, 384), (512, 384), (512, 384), (512, 384), (512, 384), (512, 384), (512, 384), (512, 384), (512, 384), (512, 384), (512, 384), (512, 384), (512, 384), (512, 384), (512, 384), (512, 384), (512, 384), (512, 384), (512, 384), (512, 384), (512, 384), (512, 384), (512, 384), (512, 384), (512, 384), (512, 384), (512, 384), (512, 384), (512, 384), (512, 384), (512, 384), (512, 384), (512, 384), (512, 384), (512, 384), (512, 384), (512, 384), (512, 384), (512, 384), (519, 392), (545, 424), (568, 450), (580, 472), (595, 508), (600, 521), (609, 536), (617, 551), (627, 580), (633, 592), (636, 599), (639, 608)]",60.44831183244685,"[8, 1, 6, 2, 4, 7, 3, 9, 5]","(0, 0.25)",THI010C,THI,C,Chinese,Tue Nov  6 08:38:42 2018,Mouse
2,2,3,0,2,4,4,1,1612,1562,50,153,0,500,200,8000,"[(512, 384), (512, 384), (512, 384), (512, 384), (512, 384), (512, 384), (512, 384), (512, 384), (512, 384), (512, 384), (512, 384), (512, 384), (512, 384), (512, 384), (512, 384), (512, 384), (512, 384), (512, 384), (512, 384), (512, 384), (512, 384), (512, 384), (512, 384), (512, 384), (512, 384), (512, 384), (512, 384), (512, 384), (512, 384), (512, 384), (512, 384), (512, 384), (512, 384), (512, 384), (512, 384), (512, 384), (512, 384), (512, 384), (512, 384), (512, 384), (512, 384), (512, 384), (512, 384), (512, 384), (512, 384), (512, 384), (512, 384), (512, 384), (512, 384), (512, 384), (512, 384), (512, 384), (512, 384), (512, 384), (512, 384), (512, 384), (512, 384), (512, 384), (512, 384), (512, 384), (512, 384), (512, 384), (512, 384), (512, 384), (512, 384), (512, 384), (512, 384), (512, 384), (512, 384), (512, 384), (512, 384), (512, 384), (512, 384), (512, 384), (512, 384), (512, 384), (512, 384), (512, 384), (512, 384), (512, 384), (512, 384), (512, 384), (512, 384), (512, 384), (512, 384), (512, 384), (512, 384), (512, 384), (512, 384), (512, 384), (512, 384), (512, 384), (512, 384), (512, 384), (512, 384), (512, 384), (512, 384), (512, 384), (512, 384), (512, 384), (512, 384), (512, 384), (512, 384), (512, 384), (512, 384), (512, 384), (512, 384), (512, 384), (512, 384), (512, 384), (512, 384), (512, 384), (512, 384), (512, 384), (512, 384), (512, 384), (512, 384), (512, 384), (512, 384), (512, 384), (512, 384), (512, 384), (512, 384), (512, 384), (512, 384), (512, 384), (512, 384), (512, 384), (512, 384), (512, 384), (512, 384), (512, 384), (512, 384), (512, 384), (512, 384), (512, 384), (512, 384), (512, 384), (512, 384), (512, 384), (512, 384), (512, 384), (512, 384), (512, 384), (512, 384), (512, 384), (512, 384), (512, 384), (512, 384), (512, 384), (512, 384), (512, 384), (512, 384), (512, 384), (512, 384), (512, 384), (504, 387), (433, 389), (389, 389), (344, 389), (297, 389), (203, 389)]",179.07296473022782,"[8, 1, 6, 2, 4, 7, 3, 9, 5]","(0, 0.25)",THI010C,THI,C,Chinese,Tue Nov  6 08:38:42 2018,Mouse
2,2,3,0,3,2,2,1,353,273,80,152,0,500,200,8000,"[(512, 384), (512, 384), (512, 384), (512, 384), (512, 384), (512, 384), (512, 384), (512, 384), (512, 384), (512, 384), (512, 384), (512, 384), (512, 384), (512, 384), (512, 384), (512, 384), (512, 384), (512, 384), (512, 384), (512, 384), (512, 384), (512, 384), (512, 384), (512, 384), (512, 384), (512, 384), (512, 384), (508, 384), (491, 391), (477, 399), (451, 420), (430, 432), (365, 467), (329, 494), (300, 515), (275, 536)]",147.3259087660585,"[8, 1, 6, 2, 4, 7, 3, 9, 5]","(0, 0.25)",THI010C,THI,C,Chinese,Tue Nov  6 08:38:42 2018,Mouse
2,2,3,0,4,2,2,1,532,492,40,151,0,500,200,8000,"[(512, 384), (512, 384), (512, 384), (512, 384), (512, 384), (512, 384), (512, 384), (512, 384), (512, 384), (512, 384), (512, 384), (512, 384), (512, 384), (512, 384), (512, 384), (512, 384), (512, 384), (512, 384), (512, 384), (512, 384), (512, 384), (512, 384), (512, 384), (512, 384), (512, 384), (512, 384), (512, 384), (512, 384), (512, 384), (512, 384), (512, 384), (512, 384), (512, 384), (512, 384), (512, 384), (512, 384), (512, 384), (512, 384), (512, 384), (512, 384), (512, 384), (512, 384), (512, 384), (512, 384), (512, 384), (512, 384), (512, 384), (512, 384), (512, 384), (510, 394), (485, 420), (431, 470), (367, 526), (248, 633)]",136.67483799052923,"[8, 1, 6, 2, 4, 7, 3, 9, 5]","(0, 0.25)",THI010C,THI,C,Chinese,Tue Nov  6 08:38:42 2018,Mouse
2,2,3,0,5,4,4,1,761,741,20,150,0,500,200,8000,"[(512, 384), (512, 384), (512, 384), (512, 384), (512, 384), (512, 384), (512, 384), (512, 384), (512, 384), (512, 384), (512, 384), (512, 384), (512, 384), (512, 384), (512, 384), (512, 384), (512, 384), (512, 384), (512, 384), (512, 384), (512, 384), (512, 384), (512, 384), (512, 384), (512, 384), (512, 384), (512, 384), (512, 384), (512, 384), (512, 384), (512, 384), (512, 384), (512, 384), (512, 384), (512, 384), (512, 384), (512, 384), (512, 384), (512, 384), (512, 384), (512, 384), (512, 384), (512, 384), (512, 384), (512, 384), (512, 384), (512, 384), (512, 384), (512, 384), (512, 384), (512, 384), (512, 384), (512, 384), (512, 384), (512, 384), (512, 384), (512, 384), (512, 384), (512, 384), (512, 384), (512, 384), (512, 384), (512, 384), (512, 384), (512, 384), (512, 384), (512, 384), (512, 384), (512, 384), (512, 384), (512, 384), (512, 384), (512, 384), (512, 384), (493, 383), (429, 383), (255, 384)]",180.0,"[8, 1, 6, 2, 4, 7, 3, 9, 5]","(0, 0.25)",THI010C,THI,C,Chinese,Tue Nov  6 08:38:42 2018,Mouse
2,2,3,0,6,8,8,1,882,802,80,149,0,500,200,8000,"[(512, 384), (512, 384), (512, 384), (512, 384), (512, 384), (512, 384), (512, 384), (512, 384), (512, 384), (512, 384), (512, 384), (512, 384), (512, 384), (512, 384), (512, 384), (512, 384), (512, 384), (512, 384), (512, 384), (512, 384), (512, 384), (512, 384), (512, 384), (512, 384), (512, 384), (512, 384), (512, 384), (512, 384), (512, 384), (512, 384), (512, 384), (512, 384), (512, 384), (512, 384), (512, 384), (512, 384), (512, 384), (512, 384), (512, 384), (512, 384), (512, 384), (512, 384), (512, 384), (512, 384), (512, 384), (512, 384), (512, 384), (512, 384), (512, 384), (512, 384), (512, 384), (512, 384), (512, 384), (512, 384), (512, 384), (512, 384), (512, 384), (512, 384), (512, 384), (512, 384), (512, 384), (512, 384), (512, 384), (512, 384), (512, 384), (512, 384), (512, 384), (512, 384), (512, 384), (512, 384), (512, 384), (512, 384), (512, 384), (512, 384), (512, 384), (512, 384), (512, 384), (512, 384), (512, 384), (512, 384), (511, 384), (511, 384), (511, 384), (511, 384), (552, 406), (600, 424), (656, 445), (714, 466), (821, 507)]",21.705436746105576,"[8, 1, 6, 2, 4, 7, 3, 9, 5]","(0, 0.25)",THI010C,THI,C,Chinese,Tue Nov  6 08:38:42 2018,Mouse
2,2,3,0,7,3,3,1,842,762,80,148,0,500,200,8000,"[(512, 384), (512, 384), (512, 384), (512, 384), (512, 384), (512, 384), (512, 384), (512, 384), (512, 384), (512, 384), (512, 384), (512, 384), (512, 384), (512, 384), (512, 384), (512, 384), (512, 384), (512, 384), (512, 384), (512, 384), (512, 384), (512, 384), (512, 384), (512, 384), (512, 384), (512, 384), (512, 384), (512, 384), (512, 384), (512, 384), (512, 384), (512, 384), (512, 384), (512, 384), (512, 384), (512, 384), (512, 384), (512, 384), (512, 384), (512, 384), (512, 384), (512, 384), (512, 384), (512, 384), (512, 384), (512, 384), (512, 384), (512, 384), (512, 384), (512, 384), (512, 384), (512, 384), (512, 384), (512, 384), (512, 384), (512, 384), (512, 384), (512, 384), (512, 384), (512, 384), (512, 384), (512, 384), (512, 384), (512, 384), (512, 384), (512, 384), (512, 384), (512, 384), (512, 384), (512, 384), (512, 384), (512, 384), (512, 384), (512, 384), (512, 384), (512, 384), (512, 382), (512, 372), (512, 349), (512, 324), (513, 251), (519, 211), (522, 168), (524, 137), (524, 65)]",272.1543113375859,"[8, 1, 6, 2, 4, 7, 3, 9, 5]","(0, 0.25)",THI010C,THI,C,Chinese,Tue Nov  6 08:38:42 2018,Mouse
2,2,3,0,8,2,2,1,482,422,60,147,0,500,200,8000,"[(512, 384), (512, 384), (512, 384), (512, 384), (512, 384), (512, 384), (512, 384), (512, 384), (512, 384), (512, 384), (512, 384), (512, 384), (512, 384), (512, 384), (512, 384), (512, 384), (512, 384), (512, 384), (512, 384), (512, 384), (512, 384), (512, 384), (512, 384), (512, 384), (512, 384), (512, 384), (512, 384), (512, 384), (512, 384), (512, 384), (512, 384), (512, 384), (512, 384), (512, 384), (512, 384), (512, 384), (512, 384), (512, 384), (512, 384), (512, 384), (512, 384), (512, 384), (512, 388), (499, 403), (449, 436), (418, 456), (386, 474), (355, 492), (291, 524)]",147.64638903238878,"[8, 1, 6, 2, 4, 7, 3, 9, 5]","(0, 0.25)",THI010C,THI,C,Chinese,Tue Nov  6 08:38:42 2018,Mouse
2,2,3,0,9,6,6,1,453,383,70,146,0,500,200,8000,"[(512, 384), (512, 384), (512, 384), (512, 384), (512, 384), (512, 384), (512, 384), (512, 384), (512, 384), (512, 384), (512, 384), (512, 384), (512, 384), (512, 384), (512, 384), (512, 384), (512, 384), (512, 384), (512, 384), (512, 384), (512, 384), (512, 384), (512, 384), (512, 384), (512, 384), (512, 384), (512, 384), (512, 384), (512, 384), (512, 384), (512, 384), (512, 384), (512, 384), (512, 384), (512, 384), (512, 384), (512, 384), (512, 384), (511, 385), (508, 387), (495, 407), (487, 433), (480, 468), (470, 517), (447, 613), (439, 660)]",104.81506760530131,"[8, 1, 6, 2, 4, 7, 3, 9, 5]","(0, 0.25)",THI010C,THI,C,Chinese,Tue Nov  6 08:38:42 2018,Mouse
2,2,3,0,10,2,2,1,392,342,50,145,0,500,200,8000,"[(512, 384), (512, 384), (512, 384), (512, 384), (512, 384), (512, 384), (512, 384), (512, 384), (512, 384), (512, 384), (512, 384), (512, 384), (512, 384), (512, 384), (512, 384), (512, 384), (512, 384), (512, 384), (512, 384), (512, 384), (512, 384), (512, 384), (512, 384), (512, 384), (512, 384), (512, 384), (512, 384), (512, 384), (512, 384), (512, 384), (512, 384), (512, 384), (512, 384), (512, 384), (505, 384), (479, 417), (455, 451), (433, 479), (397, 519), (307, 589)]",135.0,"[8, 1, 6, 2, 4, 7, 3, 9, 5]","(0, 0.25)",THI010C,THI,C,Chinese,Tue Nov  6 08:38:42 2018,Mouse
2,2,3,0,11,3,3,1,583,543,40,144,0,500,200,8000,"[(512, 384), (512, 384), (512, 384), (512, 384), (512, 384), (512, 384), (512, 384), (512, 384), (512, 384), (512, 384), (512, 384), (512, 384), (512, 384), (512, 384), (512, 384), (512, 384), (512, 384), (512, 384), (512, 384), (512, 384), (512, 384), (512, 384), (512, 384), (512, 384), (512, 384), (512, 384), (512, 384), (512, 384), (512, 384), (512, 384), (512, 384), (512, 384), (512, 384), (512, 384), (512, 384), (512, 384), (512, 384), (512, 384), (512, 384), (512, 384), (512, 384), (512, 384), (512, 384), (512, 384), (512, 384), (512, 384), (512, 384), (512, 384), (512, 384), (512, 384), (512, 384), (512, 384), (512, 384), (512, 384), (512, 383), (515, 300), (515, 240), (512, 181), (506, 124)]",268.678024340463,"[8, 1, 6, 2, 4, 7, 3, 9, 5]","(0, 0.25)",THI010C,THI,C,Chinese,Tue Nov  6 08:38:42 2018,Mouse
2,2,3,0,12,6,6,1,375,325,50,143,0,500,200,8000,"[(512, 384), (512, 384), (512, 384), (512, 384), (512, 384), (512, 384), (512, 384), (512, 384), (512, 384), (512, 384), (512, 384), (512, 384), (512, 384), (512, 384), (512, 384), (512, 384), (512, 384), (512, 384), (512, 384), (512, 384), (512, 384), (512, 384), (512, 384), (512, 384), (512, 384), (512, 384), (512, 384), (512, 384), (512, 384), (512, 384), (512, 384), (512, 384), (509, 405), (502, 438), (498, 472), (488, 527), (469, 620), (457, 664)]",101.1130405359483,"[8, 1, 6, 2, 4, 7, 3, 9, 5]","(0, 0.25)",THI010C,THI,C,Chinese,Tue Nov  6 08:38:42 2018,Mouse
2,2,3,0,13,2,7,0,-1144,1104,40,142,0,500,200,8000,"[(512, 384), (512, 384), (512, 384), (512, 384), (512, 384), (512, 384), (512, 384), (512, 384), (512, 384), (512, 384), (512, 384), (512, 384), (512, 384), (512, 384), (512, 384), (512, 384), (512, 384), (512, 384), (512, 384), (512, 384), (512, 384), (512, 384), (512, 384), (512, 384), (512, 384), (512, 384), (512, 384), (512, 384), (512, 384), (512, 384), (512, 384), (512, 384), (512, 384), (512, 384), (512, 384), (512, 384), (512, 384), (512, 384), (512, 384), (512, 384), (512, 384), (512, 384), (512, 384), (512, 384), (512, 384), (512, 384), (512, 384), (512, 384), (512, 384), (512, 384), (512, 384), (512, 384), (512, 384), (512, 384), (512, 384), (512, 384), (512, 384), (512, 384), (512, 384), (512, 384), (512, 384), (512, 384), (512, 384), (512, 384), (512, 384), (512, 384), (512, 384), (512, 384), (512, 384), (512, 384), (512, 384), (512, 384), (512, 384), (512, 384), (512, 384), (512, 384), (512, 384), (512, 384), (512, 384), (512, 384), (512, 384), (512, 384), (512, 384), (512, 384), (512, 384), (512, 384), (512, 384), (512, 384), (512, 384), (512, 384), (512, 384), (512, 384), (512, 384), (512, 384), (512, 384), (512, 384), (512, 384), (512, 384), (512, 384), (512, 384), (512, 384), (512, 384), (512, 384), (512, 384), (512, 384), (512, 384), (512, 384), (512, 384), (512, 384), (512, 384), (512, 383), (496, 363), (455, 320), (415, 279), (335, 193)]",227.1786800752766,"[8, 1, 6, 2, 4, 7, 3, 9, 5]","(0, 0.25)",THI010C,THI,C,Chinese,Tue Nov  6 08:38:42 2018,Mouse
2,2,3,0,14,3,3,1,352,302,50,143,0,500,200,8000,"[(512, 384), (512, 384), (512, 384), (512, 384), (512, 384), (512, 384), (512, 384), (512, 384), (512, 384), (512, 384), (512, 384), (512, 384), (512, 384), (512, 384), (512, 384), (512, 384), (512, 384), (512, 384), (512, 384), (512, 384), (512, 384), (512, 384), (512, 384), (512, 384), (512, 384), (512, 384), (512, 384), (512, 384), (512, 384), (512, 384), (512, 378), (507, 348), (478, 264), (465, 225), (456, 179), (445, 140)]",254.64558195179868,"[8, 1, 6, 2, 4, 7, 3, 9, 5]","(0, 0.25)",THI010C,THI,C,Chinese,Tue Nov  6 08:38:42 2018,Mouse
2,2,3,0,15,9,9,1,523,473,50,143,0,500,200,8000,"[(512, 384), (512, 384), (512, 384), (512, 384), (512, 384), (512, 384), (512, 384), (512, 384), (512, 384), (512, 384), (512, 384), (512, 384), (512, 384), (512, 384), (512, 384), (512, 384), (512, 384), (512, 384), (512, 384), (512, 384), (512, 384), (512, 384), (512, 384), (512, 384), (512, 384), (512, 384), (512, 384), (512, 384), (512, 384), (512, 384), (512, 384), (512, 384), (512, 384), (512, 384), (512, 384), (512, 384), (512, 384), (512, 384), (512, 384), (512, 384), (512, 384), (512, 384), (512, 384), (512, 384), (512, 384), (512, 384), (512, 384), (512, 383), (518, 362), (557, 271), (580, 222), (603, 163), (632, 112)]",293.8059435184577,"[8, 1, 6, 2, 4, 7, 3, 9, 5]","(0, 0.25)",THI010C,THI,C,Chinese,Tue Nov  6 08:38:42 2018,Mouse
2,2,3,0,16,5,4,0,-869,819,50,142,0,500,200,8000,"[(512, 384), (512, 384), (512, 384), (512, 384), (512, 384), (512, 384), (512, 384), (512, 384), (512, 384), (512, 384), (512, 384), (512, 384), (512, 384), (512, 384), (512, 384), (512, 384), (512, 384), (512, 384), (512, 384), (512, 384), (512, 384), (512, 384), (512, 384), (512, 384), (512, 384), (512, 384), (512, 384), (512, 384), (512, 384), (512, 384), (512, 384), (512, 384), (512, 384), (512, 384), (512, 384), (512, 384), (512, 384), (512, 384), (512, 384), (512, 384), (512, 384), (512, 384), (512, 384), (512, 384), (512, 384), (512, 384), (512, 384), (512, 384), (512, 384), (512, 384), (512, 384), (512, 384), (512, 384), (512, 384), (512, 384), (512, 384), (512, 384), (512, 384), (512, 384), (512, 384), (512, 384), (512, 384), (512, 384), (512, 384), (512, 384), (512, 384), (512, 384), (512, 384), (512, 384), (512, 384), (512, 384), (512, 384), (512, 384), (512, 384), (512, 384), (512, 384), (512, 384), (512, 384), (512, 384), (512, 384), (512, 384), (509, 384), (492, 383), (370, 383), (321, 383), (273, 383), (223, 383)]",180.1982545011992,"[8, 1, 6, 2, 4, 7, 3, 9, 5]","(0, 0.25)",THI010C,THI,C,Chinese,Tue Nov  6 08:38:42 2018,Mouse
2,2,3,0,17,8,8,1,761,711,50,143,0,500,200,8000,"[(512, 384), (512, 384), (512, 384), (512, 384), (512, 384), (512, 384), (512, 384), (512, 384), (512, 384), (512, 384), (512, 384), (512, 384), (512, 384), (512, 384), (512, 384), (512, 384), (512, 384), (512, 384), (512, 384), (512, 384), (512, 384), (512, 384), (512, 384), (512, 384), (512, 384), (512, 384), (512, 384), (512, 384), (512, 384), (512, 384), (512, 384), (512, 384), (512, 384), (512, 384), (512, 384), (512, 384), (512, 384), (512, 384), (512, 384), (512, 384), (512, 384), (512, 384), (512, 384), (512, 384), (512, 384), (512, 384), (512, 384), (512, 384), (512, 384), (512, 384), (512, 384), (512, 384), (512, 384), (512, 384), (512, 384), (512, 384), (512, 384), (512, 384), (512, 384), (512, 384), (512, 384), (512, 384), (512, 384), (512, 384), (512, 384), (512, 384), (512, 384), (512, 384), (512, 384), (512, 384), (512, 384), (518, 384), (539, 384), (620, 401), (676, 418), (737, 436), (800, 453)]",13.473158112731145,"[8, 1, 6, 2, 4, 7, 3, 9, 5]","(0, 0.25)",THI010C,THI,C,Chinese,Tue Nov  6 08:38:42 2018,Mouse
2,2,3,0,18,1,1,1,331,291,40,143,0,500,200,8000,"[(512, 384), (512, 384), (512, 384), (512, 384), (512, 384), (512, 384), (512, 384), (512, 384), (512, 384), (512, 384), (512, 384), (512, 384), (512, 384), (512, 384), (512, 384), (512, 384), (512, 384), (512, 384), (512, 384), (512, 384), (512, 384), (512, 384), (512, 384), (512, 384), (512, 384), (512, 384), (512, 384), (512, 384), (512, 384), (514, 391), (536, 421), (572, 471), (612, 522), (685, 622)]",53.98694340108345,"[8, 1, 6, 2, 4, 7, 3, 9, 5]","(0, 0.25)",THI010C,THI,C,Chinese,Tue Nov  6 08:38:42 2018,Mouse
2,2,3,0,19,3,3,1,862,612,250,142,0,500,200,8000,"[(512, 384), (512, 384), (512, 384), (512, 384), (512, 384), (512, 384), (512, 384), (512, 384), (512, 384), (512, 384), (512, 384), (512, 384), (512, 384), (512, 384), (512, 384), (512, 384), (512, 384), (512, 384), (512, 384), (512, 384), (512, 384), (512, 384), (512, 384), (512, 384), (512, 384), (512, 384), (512, 384), (512, 384), (512, 384), (512, 384), (512, 384), (512, 384), (512, 384), (512, 384), (512, 384), (512, 384), (512, 384), (512, 384), (512, 384), (512, 384), (512, 384), (512, 384), (512, 384), (512, 384), (512, 384), (512, 384), (512, 384), (512, 384), (512, 384), (512, 384), (512, 384), (512, 384), (512, 384), (512, 384), (512, 384), (512, 384), (512, 384), (512, 384), (512, 384), (512, 384), (512, 384), (512, 383), (512, 383), (512, 383), (512, 383), (512, 383), (512, 383), (512, 383), (514, 380), (514, 380), (515, 379), (515, 379), (516, 379), (516, 378), (516, 377), (516, 376), (516, 373), (516, 370), (516, 366), (516, 361), (516, 339), (516, 318), (516, 279), (512, 250), (500, 182), (493, 147), (482, 113)]",263.68301431985765,"[8, 1, 6, 2, 4, 7, 3, 9, 5]","(0, 0.25)",THI010C,THI,C,Chinese,Tue Nov  6 08:38:42 2018,Mouse
2,2,3,0,20,6,6,1,367,297,70,141,0,500,200,8000,"[(512, 384), (512, 384), (512, 384), (512, 384), (512, 384), (512, 384), (512, 384), (512, 384), (512, 384), (512, 384), (512, 384), (512, 384), (512, 384), (512, 384), (512, 384), (512, 384), (512, 384), (512, 384), (512, 384), (512, 384), (512, 384), (512, 384), (512, 384), (512, 384), (512, 384), (512, 384), (512, 384), (512, 384), (512, 384), (510, 395), (507, 406), (503, 424), (497, 443), (476, 516), (470, 559), (466, 618), (466, 681)]",98.80413925214049,"[8, 1, 6, 2, 4, 7, 3, 9, 5]","(0, 0.25)",THI010C,THI,C,Chinese,Tue Nov  6 08:38:42 2018,Mouse
2,2,3,0,21,3,3,1,363,333,30,140,0,500,200,8000,"[(512, 384), (512, 384), (512, 384), (512, 384), (512, 384), (512, 384), (512, 384), (512, 384), (512, 384), (512, 384), (512, 384), (512, 384), (512, 384), (512, 384), (512, 384), (512, 384), (512, 384), (512, 384), (512, 384), (512, 384), (512, 384), (512, 384), (512, 384), (512, 384), (512, 384), (512, 384), (512, 384), (512, 384), (512, 384), (512, 384), (512, 384), (512, 384), (512, 384), (502, 330), (484, 256), (461, 192), (442, 133)]",254.41703962016777,"[8, 1, 6, 2, 4, 7, 3, 9, 5]","(0, 0.25)",THI010C,THI,C,Chinese,Tue Nov  6 08:38:42 2018,Mouse
2,2,3,0,22,2,7,0,-1166,1126,40,139,0,500,200,8000,"[(512, 384), (512, 384), (512, 384), (512, 384), (512, 384), (512, 384), (512, 384), (512, 384), (512, 384), (512, 384), (512, 384), (512, 384), (512, 384), (512, 384), (512, 384), (512, 384), (512, 384), (512, 384), (512, 384), (512, 384), (512, 384), (512, 384), (512, 384), (512, 384), (512, 384), (512, 384), (512, 384), (512, 384), (512, 384), (512, 384), (512, 384), (512, 384), (512, 384), (512, 384), (512, 384), (512, 384), (512, 384), (512, 384), (512, 384), (512, 384), (512, 384), (512, 384), (512, 384), (512, 384), (512, 384), (512, 384), (512, 384), (512, 384), (512, 384), (512, 384), (512, 384), (512, 384), (512, 384), (512, 384), (512, 384), (512, 384), (512, 384), (512, 384), (512, 384), (512, 384), (512, 384), (512, 384), (512, 384), (512, 384), (512, 384), (512, 384), (512, 384), (512, 384), (512, 384), (512, 384), (512, 384), (512, 384), (512, 384), (512, 384), (512, 384), (512, 384), (512, 384), (512, 384), (512, 384), (512, 384), (512, 384), (512, 384), (512, 384), (512, 384), (512, 384), (512, 384), (512, 384), (512, 384), (512, 384), (512, 384), (512, 384), (512, 384), (512, 384), (512, 384), (512, 384), (512, 384), (512, 384), (512, 384), (512, 384), (512, 384), (512, 384), (512, 384), (512, 384), (512, 384), (512, 384), (512, 384), (512, 384), (512, 384), (512, 384), (512, 384), (512, 384), (512, 384), (490, 349), (439, 307), (391, 272), (346, 235), (257, 170)]",220.00390184458664,"[8, 1, 6, 2, 4, 7, 3, 9, 5]","(0, 0.25)",THI010C,THI,C,Chinese,Tue Nov  6 08:38:42 2018,Mouse
2,2,3,0,23,3,3,1,271,201,70,140,0,500,200,8000,"[(512, 384), (512, 384), (512, 384), (512, 384), (512, 384), (512, 384), (512, 384), (512, 384), (512, 384), (512, 384), (512, 384), (512, 384), (512, 384), (512, 384), (512, 384), (512, 384), (512, 384), (512, 384), (512, 384), (512, 384), (512, 377), (512, 352), (512, 322), (512, 288), (503, 224), (500, 187), (494, 152), (490, 125)]",265.14483158279324,"[8, 1, 6, 2, 4, 7, 3, 9, 5]","(0, 0.25)",THI010C,THI,C,Chinese,Tue Nov  6 08:38:42 2018,Mouse
2,2,3,0,24,5,5,1,415,335,80,140,0,500,200,8000,"[(512, 384), (512, 384), (512, 384), (512, 384), (512, 384), (512, 384), (512, 384), (512, 384), (512, 384), (512, 384), (512, 384), (512, 384), (512, 384), (512, 384), (512, 384), (512, 384), (512, 384), (512, 384), (512, 384), (512, 384), (512, 384), (512, 384), (512, 384), (512, 384), (512, 384), (512, 384), (512, 384), (512, 384), (512, 384), (512, 384), (512, 384), (512, 384), (512, 384), (513, 383), (518, 380), (533, 371), (575, 353), (595, 348), (625, 339), (656, 331), (735, 312), (771, 305)]",343.03728216024456,"[8, 1, 6, 2, 4, 7, 3, 9, 5]","(0, 0.25)",THI010C,THI,C,Chinese,Tue Nov  6 08:38:42 2018,Mouse
2,2,3,0,25,7,3,0,-1105,1085,20,139,0,500,200,8000,"[(512, 384), (512, 384), (512, 384), (512, 384), (512, 384), (512, 384), (512, 384), (512, 384), (512, 384), (512, 384), (512, 384), (512, 384), (512, 384), (512, 384), (512, 384), (512, 384), (512, 384), (512, 384), (512, 384), (512, 384), (512, 384), (512, 384), (512, 384), (512, 384), (512, 384), (512, 384), (512, 384), (512, 384), (512, 384), (512, 384), (512, 384), (512, 384), (512, 384), (512, 384), (512, 384), (512, 384), (512, 384), (512, 384), (512, 384), (512, 384), (512, 384), (512, 384), (512, 384), (512, 384), (512, 384), (512, 384), (512, 384), (512, 384), (512, 384), (512, 384), (512, 384), (512, 384), (512, 384), (512, 384), (512, 384), (512, 384), (512, 384), (512, 384), (512, 384), (512, 384), (512, 384), (512, 384), (512, 384), (512, 384), (512, 384), (512, 384), (512, 384), (512, 384), (512, 384), (512, 384), (512, 384), (512, 384), (512, 384), (512, 384), (512, 384), (512, 384), (512, 384), (512, 384), (512, 384), (512, 384), (512, 384), (512, 384), (512, 384), (512, 384), (512, 384), (512, 384), (512, 384), (512, 384), (512, 384), (512, 384), (512, 384), (512, 384), (512, 384), (512, 384), (512, 384), (512, 384), (512, 384), (512, 384), (512, 384), (512, 384), (512, 384), (512, 384), (512, 384), (512, 384), (512, 384), (512, 384), (512, 384), (512, 384), (512, 348), (513, 281), (512, 109)]",270.0,"[8, 1, 6, 2, 4, 7, 3, 9, 5]","(0, 0.25)",THI010C,THI,C,Chinese,Tue Nov  6 08:38:42 2018,Mouse
2,2,3,0,26,8,4,0,-2492,2442,50,140,0,500,200,8000,"[(512, 384), (512, 384), (512, 384), (512, 384), (512, 384), (512, 384), (512, 384), (512, 384), (512, 384), (512, 384), (512, 384), (512, 384), (512, 384), (512, 384), (512, 384), (512, 384), (512, 384), (512, 384), (512, 384), (512, 384), (512, 384), (512, 384), (512, 384), (512, 384), (512, 384), (512, 384), (512, 384), (512, 384), (512, 384), (512, 384), (512, 384), (512, 384), (512, 384), (512, 384), (512, 384), (512, 384), (512, 384), (512, 384), (512, 384), (512, 384), (512, 384), (512, 384), (512, 384), (512, 384), (512, 384), (512, 384), (512, 384), (512, 384), (512, 384), (512, 384), (512, 384), (512, 384), (512, 384), (512, 384), (512, 384), (512, 384), (512, 384), (512, 384), (512, 384), (512, 384), (512, 384), (512, 384), (512, 384), (512, 384), (512, 384), (512, 384), (512, 384), (512, 384), (512, 384), (512, 384), (512, 384), (512, 384), (512, 384), (512, 384), (512, 384), (512, 384), (512, 384), (512, 384), (512, 384), (512, 384), (512, 384), (512, 384), (512, 384), (512, 384), (512, 384), (512, 384), (512, 384), (512, 384), (512, 384), (512, 384), (512, 384), (512, 384), (512, 384), (512, 384), (512, 384), (512, 384), (512, 384), (512, 384), (512, 384), (512, 384), (512, 384), (512, 384), (512, 384), (512, 384), (512, 384), (512, 384), (512, 384), (512, 384), (512, 384), (512, 384), (512, 384), (512, 384), (512, 384), (512, 384), (512, 384), (512, 384), (512, 384), (512, 384), (512, 384), (512, 384), (512, 384), (512, 384), (512, 384), (512, 384), (512, 384), (512, 384), (512, 384), (512, 384), (512, 384), (512, 384), (512, 384), (512, 384), (512, 384), (512, 384), (512, 384), (512, 384), (512, 384), (512, 384), (512, 384), (512, 384), (512, 384), (512, 384), (512, 384), (512, 384), (512, 384), (512, 384), (512, 384), (512, 384), (512, 384), (512, 384), (512, 384), (512, 384), (512, 384), (512, 384), (512, 384), (512, 384), (512, 384), (512, 384), (512, 384), (512, 384), (512, 384), (512, 384), (512, 384), (512, 384), (512, 384), (512, 384), (512, 384), (512, 384), (512, 384), (512, 384), (512, 384), (512, 384), (512, 384), (512, 384), (512, 384), (512, 384), (512, 384), (512, 384), (512, 384), (512, 384), (512, 384), (512, 384), (512, 384), (512, 384), (512, 384), (512, 384), (512, 384), (512, 384), (512, 384), (512, 384), (512, 384), (512, 384), (512, 384), (512, 384), (512, 384), (512, 384), (512, 384), (512, 384), (512, 384), (512, 384), (512, 384), (512, 384), (512, 384), (512, 384), (512, 384), (512, 384), (512, 384), (512, 384), (512, 384), (512, 384), (512, 384), (512, 384), (512, 384), (512, 384), (512, 384), (512, 384), (512, 384), (512, 384), (512, 384), (512, 384), (512, 384), (512, 384), (512, 384), (512, 384), (512, 384), (512, 384), (512, 384), (512, 384), (512, 384), (512, 384), (512, 384), (512, 384), (512, 384), (512, 384), (512, 384), (512, 384), (512, 384), (512, 384), (512, 384), (512, 384), (512, 384), (512, 384), (512, 384), (512, 384), (504, 384), (484, 388), (437, 388), (384, 388), (263, 388), (202, 388)]",179.26074064459215,"[8, 1, 6, 2, 4, 7, 3, 9, 5]","(0, 0.25)",THI010C,THI,C,Chinese,Tue Nov  6 08:38:42 2018,Mouse
2,2,3,0,27,7,7,1,1613,793,820,141,0,500,200,8000,"[(512, 384), (512, 384), (512, 384), (512, 384), (512, 384), (512, 384), (512, 384), (512, 384), (512, 384), (512, 384), (512, 384), (512, 384), (512, 384), (512, 384), (512, 384), (512, 384), (512, 384), (512, 384), (512, 384), (512, 384), (512, 384), (512, 384), (512, 384), (512, 384), (512, 384), (512, 384), (512, 384), (512, 384), (512, 384), (512, 384), (512, 384), (512, 384), (512, 384), (512, 384), (512, 384), (512, 384), (512, 384), (512, 384), (512, 384), (512, 384), (512, 384), (512, 384), (512, 384), (512, 384), (512, 384), (512, 384), (512, 384), (512, 384), (512, 384), (512, 384), (512, 384), (512, 384), (512, 384), (512, 384), (512, 384), (512, 384), (512, 384), (512, 384), (512, 384), (512, 384), (512, 384), (512, 384), (512, 384), (512, 384), (512, 384), (512, 384), (512, 384), (512, 384), (512, 384), (512, 384), (512, 384), (512, 384), (512, 384), (512, 384), (512, 384), (512, 384), (512, 384), (512, 384), (512, 384), (512, 383), (512, 382), (512, 381), (511, 381), (509, 379), (509, 378), (509, 378), (509, 378), (509, 378), (509, 378), (509, 378), (509, 378), (509, 378), (509, 378), (509, 378), (509, 378), (509, 378), (509, 378), (509, 378), (509, 378), (509, 378), (509, 378), (509, 378), (509, 378), (509, 378), (509, 378), (509, 378), (509, 378), (509, 378), (509, 378), (509, 378), (509, 378), (509, 378), (509, 378), (509, 378), (509, 378), (509, 378), (509, 378), (509, 378), (509, 378), (509, 378), (509, 378), (509, 376), (508, 373), (506, 368), (505, 362), (504, 355), (501, 347), (497, 331), (495, 328), (495, 323), (494, 322), (494, 320), (494, 319), (494, 319), (494, 319), (494, 319), (494, 319), (494, 319), (494, 319), (494, 319), (494, 319), (494, 319), (494, 319), (494, 319), (494, 319), (494, 319), (494, 319), (494, 319), (494, 319), (494, 319), (494, 319), (494, 319), (494, 319), (494, 319), (494, 319), (486, 314), (476, 312), (464, 306), (445, 297), (388, 268), (346, 252), (309, 238)]",215.72413480766892,"[8, 1, 6, 2, 4, 7, 3, 9, 5]","(0, 0.25)",THI010C,THI,C,Chinese,Tue Nov  6 08:38:42 2018,Mouse
2,2,3,0,28,1,1,1,351,251,100,141,0,500,200,8000,"[(512, 384), (512, 384), (512, 384), (512, 384), (512, 384), (512, 384), (512, 384), (512, 384), (512, 384), (512, 384), (512, 384), (512, 384), (512, 384), (512, 384), (512, 384), (512, 384), (512, 384), (512, 384), (512, 384), (512, 384), (512, 384), (512, 384), (512, 384), (512, 384), (512, 384), (519, 395), (545, 436), (558, 456), (571, 473), (585, 493), (606, 519), (616, 533), (623, 543), (631, 555), (650, 586), (657, 596)]",55.62934507472893,"[8, 1, 6, 2, 4, 7, 3, 9, 5]","(0, 0.25)",THI010C,THI,C,Chinese,Tue Nov  6 08:38:42 2018,Mouse
2,2,3,0,29,3,3,1,344,274,70,140,0,500,200,8000,"[(512, 384), (512, 384), (512, 384), (512, 384), (512, 384), (512, 384), (512, 384), (512, 384), (512, 384), (512, 384), (512, 384), (512, 384), (512, 384), (512, 384), (512, 384), (512, 384), (512, 384), (512, 384), (512, 384), (512, 384), (512, 384), (512, 384), (512, 384), (512, 384), (512, 384), (512, 384), (512, 384), (512, 381), (512, 366), (512, 346), (512, 279), (510, 242), (508, 197), (508, 161), (508, 80)]",269.2461516669292,"[8, 1, 6, 2, 4, 7, 3, 9, 5]","(0, 0.25)",THI010C,THI,C,Chinese,Tue Nov  6 08:38:42 2018,Mouse
2,2,3,0,30,4,5,0,-1274,1194,80,139,0,500,200,8000,"[(512, 384), (512, 384), (512, 384), (512, 384), (512, 384), (512, 384), (512, 384), (512, 384), (512, 384), (512, 384), (512, 384), (512, 384), (512, 384), (512, 384), (512, 384), (512, 384), (512, 384), (512, 384), (512, 384), (512, 384), (512, 384), (512, 384), (512, 384), (512, 384), (512, 384), (512, 384), (512, 384), (512, 384), (512, 384), (512, 384), (512, 384), (512, 384), (512, 384), (512, 384), (512, 384), (512, 384), (512, 384), (512, 384), (512, 384), (512, 384), (512, 384), (512, 384), (512, 384), (512, 384), (512, 384), (512, 384), (512, 384), (512, 384), (512, 384), (512, 384), (512, 384), (512, 384), (512, 384), (512, 384), (512, 384), (512, 384), (512, 384), (512, 384), (512, 384), (512, 384), (512, 384), (512, 384), (512, 384), (512, 384), (512, 384), (512, 384), (512, 384), (512, 384), (512, 384), (512, 384), (512, 384), (512, 384), (512, 384), (512, 384), (512, 384), (512, 384), (512, 384), (512, 384), (512, 384), (512, 384), (512, 384), (512, 384), (512, 384), (512, 384), (512, 384), (512, 384), (512, 384), (512, 384), (512, 384), (512, 384), (512, 384), (512, 384), (512, 384), (512, 384), (512, 384), (512, 384), (512, 384), (512, 384), (512, 384), (512, 384), (512, 384), (512, 384), (512, 384), (512, 384), (512, 384), (512, 384), (512, 384), (512, 384), (512, 384), (512, 384), (512, 384), (512, 384), (512, 384), (512, 384), (512, 384), (512, 384), (512, 384), (512, 384), (512, 384), (513, 384), (520, 384), (534, 384), (560, 380), (629, 371), (670, 364), (702, 358), (737, 353), (807, 343)]",352.0875443843995,"[8, 1, 6, 2, 4, 7, 3, 9, 5]","(0, 0.25)",THI010C,THI,C,Chinese,Tue Nov  6 08:38:42 2018,Mouse
2,2,3,0,31,7,3,0,-2362,1522,840,140,0,500,200,8000,"[(512, 384), (512, 384), (512, 384), (512, 384), (512, 384), (512, 384), (512, 384), (512, 384), (512, 384), (512, 384), (512, 384), (512, 384), (512, 384), (512, 384), (512, 384), (512, 384), (512, 384), (512, 384), (512, 384), (512, 384), (512, 384), (512, 384), (512, 384), (512, 384), (512, 384), (512, 384), (512, 384), (512, 384), (512, 384), (512, 384), (512, 384), (512, 384), (512, 384), (512, 384), (512, 384), (512, 384), (512, 384), (512, 384), (512, 384), (512, 384), (512, 384), (512, 384), (512, 384), (512, 384), (512, 384), (512, 384), (512, 384), (512, 384), (512, 384), (512, 384), (512, 384), (512, 384), (512, 384), (512, 384), (512, 384), (512, 384), (512, 384), (512, 384), (512, 384), (512, 384), (512, 384), (512, 384), (512, 384), (512, 384), (512, 384), (512, 384), (512, 384), (512, 384), (512, 384), (512, 384), (512, 384), (512, 384), (512, 384), (512, 384), (512, 384), (512, 384), (512, 384), (512, 384), (512, 384), (512, 384), (512, 384), (512, 384), (512, 384), (512, 384), (512, 384), (512, 384), (512, 384), (512, 384), (512, 384), (512, 384), (512, 384), (512, 384), (512, 384), (512, 384), (512, 384), (512, 384), (512, 384), (512, 384), (512, 384), (512, 384), (512, 384), (512, 384), (512, 384), (512, 384), (512, 384), (512, 384), (512, 384), (512, 384), (512, 384), (512, 384), (512, 384), (512, 384), (512, 384), (512, 384), (512, 384), (512, 384), (512, 384), (512, 384), (512, 384), (512, 384), (512, 384), (512, 384), (512, 384), (512, 384), (512, 384), (512, 384), (512, 384), (512, 384), (512, 384), (512, 384), (512, 384), (512, 384), (512, 384), (512, 384), (512, 384), (512, 384), (512, 384), (512, 384), (512, 384), (512, 384), (512, 384), (512, 384), (512, 384), (512, 384), (512, 384), (512, 384), (512, 384), (512, 384), (512, 384), (512, 384), (512, 384), (512, 384), (512, 383), (512, 383), (512, 383), (512, 383), (512, 383), (512, 383), (512, 383), (512, 383), (512, 383), (512, 383), (512, 383), (512, 383), (512, 383), (512, 383), (512, 383), (512, 383), (512, 383), (512, 383), (512, 383), (512, 383), (512, 378), (512, 368), (512, 364), (511, 361), (509, 357), (509, 356), (509, 354), (509, 352), (508, 350), (508, 348), (508, 346), (507, 343), (507, 338), (506, 335), (506, 334), (506, 334), (505, 330), (504, 326), (504, 325), (504, 323), (503, 321), (503, 319), (503, 317), (502, 316), (502, 314), (502, 313), (502, 311), (501, 310), (501, 308), (501, 307), (501, 306), (501, 304), (501, 300), (501, 297), (500, 295), (500, 293), (500, 287), (500, 283), (500, 280), (500, 278), (500, 273), (500, 269), (500, 262), (500, 256), (500, 243), (500, 236), (500, 229), (500, 222), (500, 214), (500, 209), (500, 205), (500, 201), (500, 191), (500, 187), (497, 180), (497, 175), (496, 164), (495, 160), (493, 154), (493, 152), (491, 146), (490, 143), (489, 139), (488, 138), (487, 134)]",264.28940686250036,"[8, 1, 6, 2, 4, 7, 3, 9, 5]","(0, 0.25)",THI010C,THI,C,Chinese,Tue Nov  6 08:38:42 2018,Mouse
2,2,3,0,32,5,5,1,403,283,120,141,0,500,200,8000,"[(512, 384), (512, 384), (512, 384), (512, 384), (512, 384), (512, 384), (512, 384), (512, 384), (512, 384), (512, 384), (512, 384), (512, 384), (512, 384), (512, 384), (512, 384), (512, 384), (512, 384), (512, 384), (512, 384), (512, 384), (512, 384), (512, 384), (512, 384), (512, 384), (512, 384), (512, 384), (512, 384), (512, 384), (512, 385), (512, 385), (514, 385), (515, 385), (519, 383), (532, 379), (548, 375), (571, 372), (627, 364), (662, 359), (697, 355), (735, 348), (793, 348)]",352.6993841761208,"[8, 1, 6, 2, 4, 7, 3, 9, 5]","(0, 0.25)",THI010C,THI,C,Chinese,Tue Nov  6 08:38:42 2018,Mouse
2,2,3,0,33,3,3,1,312,242,70,141,0,500,200,8000,"[(512, 384), (512, 384), (512, 384), (512, 384), (512, 384), (512, 384), (512, 384), (512, 384), (512, 384), (512, 384), (512, 384), (512, 384), (512, 384), (512, 384), (512, 384), (512, 384), (512, 384), (512, 384), (512, 384), (512, 384), (512, 384), (512, 384), (512, 384), (512, 384), (510, 365), (506, 341), (501, 319), (490, 267), (483, 229), (478, 200), (475, 173), (467, 128)]",260.0303280463248,"[8, 1, 6, 2, 4, 7, 3, 9, 5]","(0, 0.25)",THI010C,THI,C,Chinese,Tue Nov  6 08:38:42 2018,Mouse
2,2,3,0,34,9,9,1,2836,1906,930,140,0,500,200,8000,"[(512, 384), (512, 384), (512, 384), (512, 384), (512, 384), (512, 384), (512, 384), (512, 384), (512, 384), (512, 384), (512, 384), (512, 384), (512, 384), (512, 384), (512, 384), (512, 384), (512, 384), (512, 384), (512, 384), (512, 384), (512, 384), (512, 384), (512, 384), (512, 384), (512, 384), (512, 384), (512, 384), (512, 384), (512, 384), (512, 384), (512, 384), (512, 384), (512, 384), (512, 384), (512, 384), (512, 384), (512, 384), (512, 384), (512, 384), (512, 384), (512, 384), (512, 384), (512, 384), (512, 384), (512, 384), (512, 384), (512, 384), (512, 384), (512, 384), (512, 384), (512, 384), (512, 384), (512, 384), (512, 384), (512, 384), (512, 384), (512, 384), (512, 384), (512, 384), (512, 384), (512, 384), (512, 384), (512, 384), (512, 384), (512, 384), (512, 384), (512, 384), (512, 384), (512, 384), (512, 384), (512, 384), (512, 384), (512, 384), (512, 384), (512, 384), (512, 384), (512, 384), (512, 384), (512, 384), (512, 384), (512, 384), (512, 384), (512, 384), (512, 384), (512, 384), (512, 384), (512, 384), (512, 384), (512, 384), (512, 384), (512, 384), (512, 384), (512, 384), (512, 384), (512, 384), (512, 384), (512, 384), (512, 384), (512, 384), (512, 384), (512, 384), (512, 384), (512, 384), (512, 384), (512, 384), (512, 384), (512, 384), (512, 384), (512, 384), (512, 384), (512, 384), (512, 384), (512, 384), (512, 384), (512, 384), (512, 384), (512, 384), (512, 384), (512, 384), (512, 384), (512, 384), (512, 384), (512, 384), (512, 384), (512, 384), (512, 384), (512, 384), (512, 384), (512, 384), (512, 384), (512, 384), (512, 384), (512, 384), (512, 384), (512, 384), (512, 384), (512, 384), (512, 384), (512, 384), (512, 384), (512, 384), (512, 384), (512, 384), (512, 384), (512, 384), (512, 384), (512, 384), (512, 384), (512, 384), (512, 384), (512, 384), (512, 384), (512, 384), (512, 384), (512, 384), (512, 384), (512, 384), (512, 384), (512, 384), (512, 384), (512, 384), (512, 384), (512, 384), (512, 384), (512, 384), (512, 384), (512, 384), (512, 384), (512, 384), (512, 384), (512, 384), (512, 384), (512, 384), (512, 384), (512, 384), (512, 384), (512, 384), (512, 384), (512, 384), (512, 384), (512, 384), (512, 384), (512, 384), (512, 384), (512, 384), (512, 384), (512, 384), (512, 384), (512, 384), (512, 384), (512, 383), (514, 374), (515, 371), (518, 367), (519, 364), (522, 359), (523, 358), (523, 356), (524, 355), (524, 355), (524, 355), (524, 355), (524, 355), (524, 355), (524, 355), (524, 355), (524, 355), (524, 355), (524, 355), (524, 355), (524, 355), (524, 355), (524, 355), (524, 355), (524, 355), (524, 355), (524, 355), (524, 355), (524, 355), (524, 355), (524, 355), (525, 354), (525, 354), (529, 349), (531, 347), (533, 344), (535, 342), (539, 338), (542, 336), (542, 336), (542, 335), (543, 335), (544, 334), (544, 334), (545, 333), (550, 328), (553, 325), (553, 324), (555, 323), (555, 323), (556, 322), (556, 322), (556, 322), (556, 321), (556, 321), (556, 321), (556, 321), (556, 321), (556, 321), (556, 321), (556, 321), (556, 321), (556, 321), (556, 321), (556, 321), (556, 321), (556, 321), (556, 321), (556, 321), (556, 321), (556, 321), (556, 321), (556, 321), (557, 321), (558, 321), (558, 321), (558, 321), (558, 321), (559, 321), (559, 321), (559, 319), (563, 309), (567, 300), (572, 290), (576, 281), (589, 261), (595, 251), (601, 242), (607, 231), (618, 209), (624, 198), (628, 188), (632, 179), (637, 161)]",299.2722921834997,"[8, 1, 6, 2, 4, 7, 3, 9, 5]","(0, 0.25)",THI010C,THI,C,Chinese,Tue Nov  6 08:38:42 2018,Mouse
2,2,3,0,35,7,7,1,672,612,60,139,0,500,200,8000,"[(512, 384), (512, 384), (512, 384), (512, 384), (512, 384), (512, 384), (512, 384), (512, 384), (512, 384), (512, 384), (512, 384), (512, 384), (512, 384), (512, 384), (512, 384), (512, 384), (512, 384), (512, 384), (512, 384), (512, 384), (512, 384), (512, 384), (512, 384), (512, 384), (512, 384), (512, 384), (512, 384), (512, 384), (512, 384), (512, 384), (512, 384), (512, 384), (512, 384), (512, 384), (512, 384), (512, 384), (512, 384), (512, 384), (512, 384), (512, 384), (512, 384), (512, 384), (512, 384), (512, 384), (512, 384), (512, 384), (512, 384), (512, 384), (512, 384), (512, 384), (512, 384), (512, 384), (512, 384), (512, 384), (512, 384), (512, 384), (512, 384), (512, 384), (512, 384), (512, 384), (512, 384), (501, 371), (477, 340), (446, 312), (395, 277), (370, 260), (343, 243), (317, 226)]",219.01634241698193,"[8, 1, 6, 2, 4, 7, 3, 9, 5]","(0, 0.25)",THI010C,THI,C,Chinese,Tue Nov  6 08:38:42 2018,Mouse
2,2,3,0,36,3,3,1,800,720,80,138,0,500,200,8000,"[(512, 384), (512, 384), (512, 384), (512, 384), (512, 384), (512, 384), (512, 384), (512, 384), (512, 384), (512, 384), (512, 384), (512, 384), (512, 384), (512, 384), (512, 384), (512, 384), (512, 384), (512, 384), (512, 384), (512, 384), (512, 384), (512, 384), (512, 384), (512, 384), (512, 384), (512, 384), (512, 384), (512, 384), (512, 384), (512, 384), (512, 384), (512, 384), (512, 384), (512, 384), (512, 384), (512, 384), (512, 384), (512, 384), (512, 384), (512, 384), (512, 384), (512, 384), (512, 384), (512, 384), (512, 384), (512, 384), (512, 384), (512, 384), (512, 384), (512, 384), (512, 384), (512, 384), (512, 384), (512, 384), (512, 384), (512, 384), (512, 384), (512, 384), (512, 384), (512, 384), (512, 384), (512, 384), (512, 384), (512, 384), (512, 384), (512, 384), (512, 384), (512, 384), (512, 384), (512, 384), (512, 384), (512, 381), (506, 348), (500, 326), (492, 300), (486, 273), (475, 221), (470, 194), (467, 168), (458, 129)]",258.0434157568509,"[8, 1, 6, 2, 4, 7, 3, 9, 5]","(0, 0.25)",THI010C,THI,C,Chinese,Tue Nov  6 08:38:42 2018,Mouse
2,2,3,0,37,6,6,1,343,273,70,137,0,500,200,8000,"[(512, 384), (512, 384), (512, 384), (512, 384), (512, 384), (512, 384), (512, 384), (512, 384), (512, 384), (512, 384), (512, 384), (512, 384), (512, 384), (512, 384), (512, 384), (512, 384), (512, 384), (512, 384), (512, 384), (512, 384), (512, 384), (512, 384), (512, 384), (512, 384), (512, 384), (512, 384), (512, 384), (512, 387), (509, 399), (489, 450), (474, 489), (461, 523), (452, 556), (439, 616), (434, 651)]",106.2849224718834,"[8, 1, 6, 2, 4, 7, 3, 9, 5]","(0, 0.25)",THI010C,THI,C,Chinese,Tue Nov  6 08:38:42 2018,Mouse
2,2,3,0,38,1,1,1,502,392,110,136,0,500,200,8000,"[(512, 384), (512, 384), (512, 384), (512, 384), (512, 384), (512, 384), (512, 384), (512, 384), (512, 384), (512, 384), (512, 384), (512, 384), (512, 384), (512, 384), (512, 384), (512, 384), (512, 384), (512, 384), (512, 384), (512, 384), (512, 384), (512, 384), (512, 384), (512, 384), (512, 384), (512, 384), (512, 384), (512, 384), (512, 384), (512, 384), (512, 384), (512, 384), (512, 384), (512, 384), (512, 384), (512, 384), (512, 384), (512, 384), (512, 384), (515, 390), (528, 409), (541, 426), (554, 447), (558, 454), (563, 463), (569, 473), (583, 496), (595, 512), (611, 534), (624, 551), (661, 600)]",55.4015131537612,"[8, 1, 6, 2, 4, 7, 3, 9, 5]","(0, 0.25)",THI010C,THI,C,Chinese,Tue Nov  6 08:38:42 2018,Mouse
2,2,3,0,39,7,7,1,1001,931,70,135,0,500,200,8000,"[(512, 384), (512, 384), (512, 384), (512, 384), (512, 384), (512, 384), (512, 384), (512, 384), (512, 384), (512, 384), (512, 384), (512, 384), (512, 384), (512, 384), (512, 384), (512, 384), (512, 384), (512, 384), (512, 384), (512, 384), (512, 384), (512, 384), (512, 384), (512, 384), (512, 384), (512, 384), (512, 384), (512, 384), (512, 384), (512, 384), (512, 384), (512, 384), (512, 384), (512, 384), (512, 384), (512, 384), (512, 384), (512, 384), (512, 384), (512, 384), (512, 384), (512, 384), (512, 384), (512, 384), (512, 384), (512, 384), (512, 384), (512, 384), (512, 384), (512, 384), (512, 384), (512, 384), (512, 384), (512, 384), (512, 384), (512, 384), (512, 384), (512, 384), (512, 384), (512, 384), (512, 384), (512, 384), (512, 384), (512, 384), (512, 384), (512, 384), (512, 384), (512, 384), (512, 384), (512, 384), (512, 384), (512, 384), (512, 384), (512, 384), (512, 384), (512, 384), (512, 384), (512, 384), (512, 384), (512, 384), (512, 384), (512, 384), (512, 384), (512, 384), (512, 384), (512, 384), (512, 384), (512, 384), (512, 384), (512, 384), (512, 384), (512, 384), (512, 384), (498, 372), (487, 360), (473, 342), (459, 329), (410, 286), (381, 263), (355, 240), (323, 212)]",222.30385261452744,"[8, 1, 6, 2, 4, 7, 3, 9, 5]","(0, 0.25)",THI010C,THI,C,Chinese,Tue Nov  6 08:38:42 2018,Mouse
2,2,3,0,40,7,7,1,932,772,160,134,0,500,200,8000,"[(512, 384), (512, 384), (512, 384), (512, 384), (512, 384), (512, 384), (512, 384), (512, 384), (512, 384), (512, 384), (512, 384), (512, 384), (512, 384), (512, 384), (512, 384), (512, 384), (512, 384), (512, 384), (512, 384), (512, 384), (512, 384), (512, 384), (512, 384), (512, 384), (512, 384), (512, 384), (512, 384), (512, 384), (512, 384), (512, 384), (512, 384), (512, 384), (512, 384), (512, 384), (512, 384), (512, 384), (512, 384), (512, 384), (512, 384), (512, 384), (512, 384), (512, 384), (512, 384), (512, 384), (512, 384), (512, 384), (512, 384), (512, 384), (512, 384), (512, 384), (512, 384), (512, 384), (512, 384), (512, 384), (512, 384), (512, 384), (512, 384), (512, 384), (512, 384), (512, 384), (512, 384), (512, 384), (512, 384), (512, 384), (512, 384), (512, 384), (512, 384), (512, 384), (512, 384), (512, 384), (512, 384), (512, 384), (512, 384), (512, 384), (512, 384), (512, 384), (512, 384), (510, 384), (508, 384), (500, 380), (491, 371), (474, 358), (464, 350), (453, 341), (441, 330), (413, 311), (401, 301), (389, 293), (379, 286), (352, 268), (341, 260), (326, 251), (312, 242), (279, 223)]",214.64397375072997,"[8, 1, 6, 2, 4, 7, 3, 9, 5]","(0, 0.25)",THI010C,THI,C,Chinese,Tue Nov  6 08:38:42 2018,Mouse
2,2,3,0,41,5,7,0,-1832,512,1320,133,0,500,200,8000,"[(512, 384), (512, 384), (512, 384), (512, 384), (512, 384), (512, 384), (512, 384), (512, 384), (512, 384), (512, 384), (512, 384), (512, 384), (512, 384), (512, 384), (512, 384), (512, 384), (512, 384), (512, 384), (512, 384), (512, 384), (512, 384), (512, 384), (512, 384), (512, 384), (512, 384), (512, 384), (512, 384), (512, 384), (512, 384), (512, 384), (512, 384), (512, 384), (512, 384), (512, 384), (512, 384), (512, 384), (512, 384), (512, 384), (512, 384), (512, 384), (512, 384), (512, 384), (512, 384), (512, 384), (512, 384), (512, 384), (512, 384), (512, 384), (512, 384), (512, 384), (512, 384), (513, 383), (513, 383), (513, 383), (513, 383), (513, 383), (513, 383), (513, 383), (513, 383), (513, 383), (513, 383), (513, 383), (513, 383), (513, 383), (513, 383), (513, 383), (513, 383), (513, 383), (513, 382), (513, 382), (513, 382), (513, 382), (513, 382), (512, 381), (512, 381), (512, 380), (512, 379), (510, 377), (509, 376), (508, 375), (506, 375), (505, 374), (503, 372), (503, 372), (502, 372), (502, 372), (502, 372), (502, 372), (502, 372), (502, 372), (502, 372), (502, 372), (502, 372), (502, 372), (502, 372), (502, 372), (502, 372), (502, 372), (502, 372), (502, 372), (502, 372), (502, 372), (501, 371), (499, 368), (498, 367), (496, 365), (495, 364), (493, 362), (492, 361), (490, 360), (489, 359), (487, 357), (486, 356), (485, 355), (485, 354), (483, 353), (480, 349), (480, 348), (479, 348), (478, 347), (477, 345), (477, 345), (476, 345), (476, 345), (476, 345), (476, 345), (476, 345), (476, 345), (476, 345), (476, 345), (476, 345), (476, 345), (475, 344), (475, 344), (475, 344), (475, 344), (475, 344), (475, 344), (475, 344), (475, 343), (475, 336), (475, 334), (475, 330), (475, 324), (472, 306), (471, 295), (470, 284), (468, 273), (464, 249), (464, 237), (464, 222), (464, 210), (464, 188), (462, 183), (462, 179), (462, 177), (462, 177), (462, 177), (462, 177), (462, 177), (462, 177), (462, 177), (462, 177), (462, 177), (460, 177), (460, 177), (460, 177), (460, 177), (459, 177), (459, 177), (458, 178), (458, 178), (454, 180), (453, 180), (451, 181), (450, 181), (448, 182), (447, 183), (445, 183), (444, 183), (430, 185), (414, 185), (377, 185), (342, 177)]",230.6052424664722,"[8, 1, 6, 2, 4, 7, 3, 9, 5]","(0, 0.25)",THI010C,THI,C,Chinese,Tue Nov  6 08:38:42 2018,Mouse
2,2,3,0,42,9,9,1,1572,1452,120,134,0,500,200,8000,"[(512, 384), (512, 384), (512, 384), (512, 384), (512, 384), (512, 384), (512, 384), (512, 384), (512, 384), (512, 384), (512, 384), (512, 384), (512, 384), (512, 384), (512, 384), (512, 384), (512, 384), (512, 384), (512, 384), (512, 384), (512, 384), (512, 384), (512, 384), (512, 384), (512, 384), (512, 384), (512, 384), (512, 384), (512, 384), (512, 384), (512, 384), (512, 384), (512, 384), (512, 384), (512, 384), (512, 384), (512, 384), (512, 384), (512, 384), (512, 384), (512, 384), (512, 384), (512, 384), (512, 384), (512, 384), (512, 384), (512, 384), (512, 384), (512, 384), (512, 384), (512, 384), (512, 384), (512, 384), (512, 384), (512, 384), (512, 384), (512, 384), (512, 384), (512, 384), (512, 384), (512, 384), (512, 384), (512, 384), (512, 384), (512, 384), (512, 384), (512, 384), (512, 384), (512, 384), (512, 384), (512, 384), (512, 384), (512, 384), (512, 384), (512, 384), (512, 384), (512, 384), (512, 384), (512, 384), (512, 384), (512, 384), (512, 384), (512, 384), (512, 384), (512, 384), (512, 384), (512, 384), (512, 384), (512, 384), (512, 384), (512, 384), (512, 384), (512, 384), (512, 384), (512, 384), (512, 384), (512, 384), (512, 384), (512, 384), (512, 384), (512, 384), (512, 384), (512, 384), (512, 384), (512, 384), (512, 384), (512, 384), (512, 384), (512, 384), (512, 384), (512, 384), (512, 384), (512, 384), (512, 384), (512, 384), (512, 384), (512, 384), (512, 384), (512, 384), (512, 384), (512, 384), (512, 384), (512, 384), (512, 384), (512, 384), (512, 384), (512, 384), (512, 384), (512, 384), (512, 384), (512, 384), (512, 384), (512, 384), (512, 384), (512, 384), (512, 384), (512, 384), (512, 384), (512, 384), (512, 384), (512, 384), (512, 384), (512, 384), (512, 384), (512, 384), (518, 371), (524, 363), (530, 354), (537, 344), (551, 325), (559, 316), (568, 303), (589, 274), (597, 262), (609, 244), (621, 225), (644, 187), (650, 175)]",303.4362672833935,"[8, 1, 6, 2, 4, 7, 3, 9, 5]","(0, 0.25)",THI010C,THI,C,Chinese,Tue Nov  6 08:38:42 2018,Mouse
2,2,3,0,43,1,7,0,-1722,962,760,134,0,500,200,8000,"[(512, 384), (512, 384), (512, 384), (512, 384), (512, 384), (512, 384), (512, 384), (512, 384), (512, 384), (512, 384), (512, 384), (512, 384), (512, 384), (512, 384), (512, 384), (512, 384), (512, 384), (512, 384), (512, 384), (512, 384), (512, 384), (512, 384), (512, 384), (512, 384), (512, 384), (512, 384), (512, 384), (512, 384), (512, 384), (512, 384), (512, 384), (512, 384), (512, 384), (512, 384), (512, 384), (512, 384), (512, 384), (512, 384), (512, 384), (512, 384), (512, 384), (512, 384), (512, 384), (512, 384), (512, 384), (512, 384), (512, 384), (512, 384), (512, 384), (512, 384), (512, 384), (512, 384), (512, 384), (512, 384), (512, 384), (512, 384), (512, 384), (512, 384), (512, 384), (512, 384), (512, 384), (512, 384), (512, 384), (512, 384), (512, 384), (512, 384), (512, 384), (512, 384), (512, 384), (512, 384), (512, 384), (512, 384), (512, 384), (512, 384), (512, 384), (512, 384), (512, 384), (512, 384), (512, 384), (512, 384), (512, 384), (512, 384), (512, 384), (512, 384), (512, 384), (512, 384), (512, 384), (512, 384), (512, 384), (512, 384), (512, 384), (512, 384), (512, 384), (512, 384), (512, 384), (512, 384), (515, 386), (524, 389), (525, 389), (524, 391), (524, 391), (524, 391), (524, 391), (524, 391), (524, 391), (524, 391), (524, 391), (524, 391), (524, 391), (524, 391), (524, 391), (524, 391), (524, 391), (524, 391), (524, 391), (524, 391), (524, 391), (524, 391), (524, 391), (524, 391), (524, 391), (524, 391), (524, 391), (524, 391), (524, 391), (524, 391), (524, 391), (523, 392), (523, 392), (523, 392), (523, 392), (523, 392), (523, 392), (523, 392), (523, 392), (523, 392), (523, 392), (523, 392), (523, 392), (522, 389), (522, 389), (520, 387), (519, 386), (519, 384), (519, 383), (518, 382), (518, 382), (517, 381), (517, 381), (517, 379), (516, 379), (514, 376), (513, 375), (512, 375), (511, 373), (507, 370), (504, 368), (500, 364), (496, 360), (483, 352), (476, 346), (465, 337), (455, 327), (430, 309), (418, 301), (402, 289), (388, 281), (359, 264), (346, 257), (337, 251), (327, 246), (315, 239), (310, 235)]",216.41336723174496,"[8, 1, 6, 2, 4, 7, 3, 9, 5]","(0, 0.25)",THI010C,THI,C,Chinese,Tue Nov  6 08:38:42 2018,Mouse
2,2,3,0,44,3,3,1,1480,280,1200,135,0,500,200,8000,"[(512, 384), (512, 384), (512, 384), (512, 384), (512, 384), (512, 384), (512, 384), (512, 384), (512, 384), (512, 384), (512, 384), (512, 384), (512, 384), (512, 384), (512, 384), (512, 384), (512, 384), (512, 384), (512, 384), (512, 384), (512, 384), (512, 384), (512, 384), (512, 384), (512, 384), (512, 384), (512, 384), (512, 379), (512, 372), (512, 366), (512, 361), (512, 355), (512, 354), (512, 353), (512, 353), (512, 353), (512, 353), (512, 353), (512, 353), (512, 353), (512, 353), (512, 353), (512, 353), (512, 353), (512, 353), (512, 353), (512, 353), (512, 353), (512, 353), (512, 353), (512, 353), (512, 353), (512, 353), (512, 353), (512, 352), (512, 345), (512, 340), (510, 331), (509, 323), (507, 310), (505, 305), (505, 304), (505, 303), (505, 303), (505, 303), (505, 303), (505, 303), (505, 303), (505, 303), (505, 303), (505, 303), (505, 303), (505, 303), (505, 303), (505, 303), (505, 303), (505, 303), (504, 302), (504, 302), (504, 302), (504, 302), (504, 302), (504, 302), (504, 302), (504, 302), (504, 302), (504, 302), (504, 302), (504, 302), (504, 302), (504, 302), (504, 302), (504, 302), (504, 302), (504, 302), (504, 302), (504, 302), (504, 302), (504, 302), (504, 302), (504, 302), (504, 302), (504, 302), (504, 302), (504, 302), (504, 302), (504, 302), (504, 302), (504, 302), (504, 302), (504, 302), (504, 302), (504, 302), (504, 302), (504, 302), (504, 302), (502, 301), (502, 301), (502, 301), (501, 300), (499, 297), (498, 297), (498, 297), (497, 295), (497, 295), (497, 295), (497, 295), (497, 295), (497, 295), (497, 295), (497, 295), (496, 294), (496, 294), (496, 294), (496, 294), (496, 294), (495, 293), (495, 292), (495, 291), (495, 284), (494, 276), (494, 266), (491, 252), (490, 211), (490, 194), (487, 170), (484, 146), (484, 99)]",264.38894772745596,"[8, 1, 6, 2, 4, 7, 3, 9, 5]","(0, 0.25)",THI010C,THI,C,Chinese,Tue Nov  6 08:38:42 2018,Mouse
2,2,3,0,45,6,4,0,-1322,1242,80,135,0,500,200,8000,"[(512, 384), (512, 384), (512, 384), (512, 384), (512, 384), (512, 384), (512, 384), (512, 384), (512, 384), (512, 384), (512, 384), (512, 384), (512, 384), (512, 384), (512, 384), (512, 384), (512, 384), (512, 384), (512, 384), (512, 384), (512, 384), (512, 384), (512, 384), (512, 384), (512, 384), (512, 384), (512, 384), (512, 384), (512, 384), (512, 384), (512, 384), (512, 384), (512, 384), (512, 384), (512, 384), (512, 384), (512, 384), (512, 384), (512, 384), (512, 384), (512, 384), (512, 384), (512, 384), (512, 384), (512, 384), (512, 384), (512, 384), (512, 384), (512, 384), (512, 384), (512, 384), (512, 384), (512, 384), (512, 384), (512, 384), (512, 384), (512, 384), (512, 384), (512, 384), (512, 384), (512, 384), (512, 384), (512, 384), (512, 384), (512, 384), (512, 384), (512, 384), (512, 384), (512, 384), (512, 384), (512, 384), (512, 384), (512, 384), (512, 384), (512, 384), (512, 384), (512, 384), (512, 384), (512, 384), (512, 384), (512, 384), (512, 384), (512, 384), (512, 384), (512, 384), (512, 384), (512, 384), (512, 384), (512, 384), (512, 384), (512, 384), (512, 384), (512, 384), (512, 384), (512, 384), (512, 384), (512, 384), (512, 384), (512, 384), (512, 384), (512, 384), (512, 384), (512, 384), (512, 384), (512, 384), (512, 384), (512, 384), (512, 384), (512, 384), (512, 384), (512, 384), (512, 384), (512, 384), (512, 384), (512, 384), (512, 384), (512, 384), (512, 384), (512, 384), (512, 384), (512, 384), (512, 384), (512, 384), (512, 384), (494, 386), (480, 387), (467, 387), (453, 387), (422, 387), (394, 387), (366, 387), (324, 387), (244, 387)]",179.35865612105746,"[8, 1, 6, 2, 4, 7, 3, 9, 5]","(0, 0.25)",THI010C,THI,C,Chinese,Tue Nov  6 08:38:42 2018,Mouse
2,2,3,0,46,7,7,1,692,602,90,136,0,500,200,8000,"[(512, 384), (512, 384), (512, 384), (512, 384), (512, 384), (512, 384), (512, 384), (512, 384), (512, 384), (512, 384), (512, 384), (512, 384), (512, 384), (512, 384), (512, 384), (512, 384), (512, 384), (512, 384), (512, 384), (512, 384), (512, 384), (512, 384), (512, 384), (512, 384), (512, 384), (512, 384), (512, 384), (512, 384), (512, 384), (512, 384), (512, 384), (512, 384), (512, 384), (512, 384), (512, 384), (512, 384), (512, 384), (512, 384), (512, 384), (512, 384), (512, 384), (512, 384), (512, 384), (512, 384), (512, 384), (512, 384), (512, 384), (512, 384), (512, 384), (512, 384), (512, 384), (512, 384), (512, 384), (512, 384), (512, 384), (512, 384), (512, 384), (512, 384), (512, 384), (512, 384), (510, 378), (504, 371), (496, 365), (483, 355), (456, 339), (439, 326), (414, 309), (388, 291), (330, 250), (302, 231)]",216.0760115563686,"[8, 1, 6, 2, 4, 7, 3, 9, 5]","(0, 0.25)",THI010C,THI,C,Chinese,Tue Nov  6 08:38:42 2018,Mouse
2,2,3,0,47,2,2,1,582,472,110,136,0,500,200,8000,"[(512, 384), (512, 384), (512, 384), (512, 384), (512, 384), (512, 384), (512, 384), (512, 384), (512, 384), (512, 384), (512, 384), (512, 384), (512, 384), (512, 384), (512, 384), (512, 384), (512, 384), (512, 384), (512, 384), (512, 384), (512, 384), (512, 384), (512, 384), (512, 384), (512, 384), (512, 384), (512, 384), (512, 384), (512, 384), (512, 384), (512, 384), (512, 384), (512, 384), (512, 384), (512, 384), (512, 384), (512, 384), (512, 384), (512, 384), (512, 384), (512, 384), (512, 384), (512, 384), (512, 384), (512, 384), (512, 384), (512, 384), (511, 383), (504, 388), (491, 396), (449, 424), (425, 437), (403, 450), (379, 463), (348, 484), (336, 493), (324, 502), (311, 511), (294, 528)]",146.55322519228505,"[8, 1, 6, 2, 4, 7, 3, 9, 5]","(0, 0.25)",THI010C,THI,C,Chinese,Tue Nov  6 08:38:42 2018,Mouse
2,2,3,0,48,9,7,0,-1122,1082,40,135,0,500,200,8000,"[(512, 384), (512, 384), (512, 384), (512, 384), (512, 384), (512, 384), (512, 384), (512, 384), (512, 384), (512, 384), (512, 384), (512, 384), (512, 384), (512, 384), (512, 384), (512, 384), (512, 384), (512, 384), (512, 384), (512, 384), (512, 384), (512, 384), (512, 384), (512, 384), (512, 384), (512, 384), (512, 384), (512, 384), (512, 384), (512, 384), (512, 384), (512, 384), (512, 384), (512, 384), (512, 384), (512, 384), (512, 384), (512, 384), (512, 384), (512, 384), (512, 384), (512, 384), (512, 384), (512, 384), (512, 384), (512, 384), (512, 384), (512, 384), (512, 384), (512, 384), (512, 384), (512, 384), (512, 384), (512, 384), (512, 384), (512, 384), (512, 384), (512, 384), (512, 384), (512, 384), (512, 384), (512, 384), (512, 384), (512, 384), (512, 384), (512, 384), (512, 384), (512, 384), (512, 384), (512, 384), (512, 384), (512, 384), (512, 384), (512, 384), (512, 384), (512, 384), (512, 384), (512, 384), (512, 384), (512, 384), (512, 384), (512, 384), (512, 384), (512, 384), (512, 384), (512, 384), (512, 384), (512, 384), (512, 384), (512, 384), (512, 384), (512, 384), (512, 384), (512, 384), (512, 384), (512, 384), (512, 384), (512, 384), (512, 384), (512, 384), (512, 384), (512, 384), (512, 384), (512, 384), (512, 384), (512, 384), (512, 384), (512, 384), (474, 356), (434, 325), (395, 297), (353, 265), (261, 198)]",216.5397719676939,"[8, 1, 6, 2, 4, 7, 3, 9, 5]","(0, 0.25)",THI010C,THI,C,Chinese,Tue Nov  6 08:38:42 2018,Mouse
2,2,3,0,49,4,4,1,801,691,110,136,0,500,200,8000,"[(512, 384), (512, 384), (512, 384), (512, 384), (512, 384), (512, 384), (512, 384), (512, 384), (512, 384), (512, 384), (512, 384), (512, 384), (512, 384), (512, 384), (512, 384), (512, 384), (512, 384), (512, 384), (512, 384), (512, 384), (512, 384), (512, 384), (512, 384), (512, 384), (512, 384), (512, 384), (512, 384), (512, 384), (512, 384), (512, 384), (512, 384), (512, 384), (512, 384), (512, 384), (512, 384), (512, 384), (512, 384), (512, 384), (512, 384), (512, 384), (512, 384), (512, 384), (512, 384), (512, 384), (512, 384), (512, 384), (512, 384), (512, 384), (512, 384), (512, 384), (512, 384), (512, 384), (512, 384), (512, 384), (512, 384), (512, 384), (512, 384), (512, 384), (512, 384), (512, 384), (512, 384), (512, 384), (512, 384), (512, 384), (512, 384), (512, 384), (512, 384), (512, 384), (512, 384), (510, 384), (501, 384), (491, 384), (480, 384), (465, 384), (452, 385), (440, 387), (420, 393), (364, 408), (323, 419), (282, 427), (241, 436)]",169.1379998176214,"[8, 1, 6, 2, 4, 7, 3, 9, 5]","(0, 0.25)",THI010C,THI,C,Chinese,Tue Nov  6 08:38:42 2018,Mouse
2,2,3,0,50,1,1,1,352,292,60,136,0,500,200,8000,"[(512, 384), (512, 384), (512, 384), (512, 384), (512, 384), (512, 384), (512, 384), (512, 384), (512, 384), (512, 384), (512, 384), (512, 384), (512, 384), (512, 384), (512, 384), (512, 384), (512, 384), (512, 384), (512, 384), (512, 384), (512, 384), (512, 384), (512, 384), (512, 384), (512, 384), (512, 384), (512, 384), (512, 384), (512, 384), (522, 405), (535, 429), (556, 457), (572, 487), (604, 549), (623, 577), (644, 605)]",59.1507585309924,"[8, 1, 6, 2, 4, 7, 3, 9, 5]","(0, 0.25)",THI010C,THI,C,Chinese,Tue Nov  6 08:38:42 2018,Mouse
2,2,3,0,51,9,1,0,-1654,1604,50,135,0,500,200,8000,"[(512, 384), (512, 384), (512, 384), (512, 384), (512, 384), (512, 384), (512, 384), (512, 384), (512, 384), (512, 384), (512, 384), (512, 384), (512, 384), (512, 384), (512, 384), (512, 384), (512, 384), (512, 384), (512, 384), (512, 384), (512, 384), (512, 384), (512, 384), (512, 384), (512, 384), (512, 384), (512, 384), (512, 384), (512, 384), (512, 384), (512, 384), (512, 384), (512, 384), (512, 384), (512, 384), (512, 384), (512, 384), (512, 384), (512, 384), (512, 384), (512, 384), (512, 384), (512, 384), (512, 384), (512, 384), (512, 384), (512, 384), (512, 384), (512, 384), (512, 384), (512, 384), (512, 384), (512, 384), (512, 384), (512, 384), (512, 384), (512, 384), (512, 384), (512, 384), (512, 384), (512, 384), (512, 384), (512, 384), (512, 384), (512, 384), (512, 384), (512, 384), (512, 384), (512, 384), (512, 384), (512, 384), (512, 384), (512, 384), (512, 384), (512, 384), (512, 384), (512, 384), (512, 384), (512, 384), (512, 384), (512, 384), (512, 384), (512, 384), (512, 384), (512, 384), (512, 384), (512, 384), (512, 384), (512, 384), (512, 384), (512, 384), (512, 384), (512, 384), (512, 384), (512, 384), (512, 384), (512, 384), (512, 384), (512, 384), (512, 384), (512, 384), (512, 384), (512, 384), (512, 384), (512, 384), (512, 384), (512, 384), (512, 384), (512, 384), (512, 384), (512, 384), (512, 384), (512, 384), (512, 384), (512, 384), (512, 384), (512, 384), (512, 384), (512, 384), (512, 384), (512, 384), (512, 384), (512, 384), (512, 384), (512, 384), (512, 384), (512, 384), (512, 384), (512, 384), (512, 384), (512, 384), (512, 384), (512, 384), (512, 384), (512, 384), (512, 384), (512, 384), (512, 384), (512, 384), (512, 384), (512, 384), (512, 384), (512, 384), (512, 384), (512, 384), (512, 384), (512, 384), (512, 384), (512, 384), (512, 384), (512, 384), (512, 384), (512, 384), (512, 384), (512, 384), (512, 384), (512, 384), (512, 384), (512, 384), (512, 384), (523, 397), (568, 457), (584, 479), (605, 510), (627, 541), (671, 593)]",52.73737277320629,"[8, 1, 6, 2, 4, 7, 3, 9, 5]","(0, 0.25)",THI010C,THI,C,Chinese,Tue Nov  6 08:38:42 2018,Mouse
2,2,3,0,52,4,4,1,741,451,290,136,0,500,200,8000,"[(512, 384), (512, 384), (512, 384), (512, 384), (512, 384), (512, 384), (512, 384), (512, 384), (512, 384), (512, 384), (512, 384), (512, 384), (512, 384), (512, 384), (512, 384), (512, 384), (512, 384), (512, 384), (512, 384), (512, 384), (512, 384), (512, 384), (512, 384), (512, 384), (512, 384), (512, 384), (512, 384), (512, 384), (512, 384), (512, 384), (512, 384), (512, 384), (512, 384), (512, 384), (512, 384), (512, 384), (512, 384), (512, 384), (512, 384), (512, 384), (512, 384), (512, 384), (512, 384), (512, 384), (512, 384), (513, 384), (513, 383), (513, 383), (513, 382), (513, 382), (513, 382), (513, 382), (513, 382), (513, 382), (513, 382), (513, 382), (513, 382), (513, 382), (513, 382), (513, 382), (513, 382), (513, 382), (513, 382), (513, 382), (513, 382), (513, 382), (513, 382), (511, 382), (505, 382), (493, 382), (474, 382), (399, 382), (355, 382), (296, 377), (241, 367)]",183.58949674083817,"[8, 1, 6, 2, 4, 7, 3, 9, 5]","(0, 0.25)",THI010C,THI,C,Chinese,Tue Nov  6 08:38:42 2018,Mouse
2,2,3,0,53,4,4,1,363,313,50,136,0,500,200,8000,"[(512, 384), (512, 384), (512, 384), (512, 384), (512, 384), (512, 384), (512, 384), (512, 384), (512, 384), (512, 384), (512, 384), (512, 384), (512, 384), (512, 384), (512, 384), (512, 384), (512, 384), (512, 384), (512, 384), (512, 384), (512, 384), (512, 384), (512, 384), (512, 384), (512, 384), (512, 384), (512, 384), (512, 384), (512, 384), (512, 384), (512, 384), (511, 384), (495, 384), (411, 384), (367, 384), (317, 384), (259, 384)]",180.0,"[8, 1, 6, 2, 4, 7, 3, 9, 5]","(0, 0.25)",THI010C,THI,C,Chinese,Tue Nov  6 08:38:42 2018,Mouse
2,2,3,0,54,3,7,0,-2133,164,1969,135,0,500,200,8000,"[(512, 384), (512, 384), (512, 384), (512, 384), (512, 384), (512, 384), (512, 384), (512, 384), (512, 384), (512, 384), (512, 384), (512, 384), (512, 384), (512, 384), (512, 384), (512, 384), (511, 384), (510, 384), (509, 384), (509, 384), (509, 384), (508, 384), (508, 384), (508, 384), (508, 384), (508, 384), (508, 384), (508, 384), (508, 384), (508, 384), (508, 384), (508, 384), (508, 384), (508, 384), (508, 384), (508, 384), (508, 384), (508, 384), (508, 384), (508, 384), (508, 384), (508, 384), (508, 384), (508, 384), (508, 384), (508, 384), (508, 384), (508, 384), (508, 384), (508, 384), (508, 384), (508, 384), (508, 384), (508, 384), (508, 384), (508, 384), (508, 384), (508, 384), (508, 384), (508, 384), (508, 384), (508, 384), (508, 384), (508, 384), (508, 384), (508, 384), (508, 384), (508, 384), (508, 384), (508, 384), (508, 384), (508, 384), (508, 384), (508, 384), (508, 384), (508, 384), (508, 384), (508, 384), (508, 384), (508, 384), (508, 384), (508, 384), (508, 384), (508, 384), (508, 384), (508, 384), (508, 384), (508, 384), (508, 384), (508, 384), (508, 384), (508, 384), (508, 384), (508, 384), (508, 384), (508, 384), (508, 384), (508, 384), (508, 384), (508, 384), (508, 384), (508, 384), (508, 384), (508, 384), (508, 384), (508, 384), (508, 384), (508, 384), (508, 384), (508, 384), (508, 384), (508, 384), (508, 384), (508, 384), (508, 384), (508, 384), (508, 384), (508, 384), (508, 384), (508, 384), (508, 384), (508, 384), (508, 384), (508, 384), (508, 384), (508, 384), (508, 384), (508, 384), (508, 384), (508, 384), (508, 384), (508, 384), (508, 384), (508, 384), (508, 384), (508, 384), (508, 384), (508, 384), (508, 384), (508, 384), (508, 384), (508, 384), (508, 384), (508, 384), (508, 384), (508, 384), (508, 384), (508, 384), (508, 384), (508, 384), (508, 384), (508, 384), (508, 384), (508, 384), (508, 384), (508, 384), (508, 384), (508, 384), (508, 384), (508, 384), (508, 384), (508, 384), (508, 384), (508, 384), (508, 384), (508, 384), (508, 384), (508, 384), (508, 384), (508, 384), (508, 384), (508, 384), (508, 384), (508, 384), (508, 384), (508, 384), (508, 384), (508, 384), (508, 384), (508, 384), (508, 384), (508, 384), (508, 384), (508, 384), (508, 384), (508, 384), (508, 384), (508, 384), (508, 384), (508, 384), (508, 384), (508, 384), (508, 384), (508, 384), (508, 384), (508, 384), (508, 384), (508, 384), (508, 384), (508, 384), (508, 384), (508, 384), (508, 384), (508, 384), (508, 384), (508, 384), (508, 384), (506, 384), (493, 382), (443, 350), (410, 330), (366, 302), (327, 275), (244, 219)]",211.619428927907,"[8, 1, 6, 2, 4, 7, 3, 9, 5]","(0, 0.25)",THI010C,THI,C,Chinese,Tue Nov  6 08:38:42 2018,Mouse
2,2,3,0,55,8,4,0,-1274,1234,40,136,0,500,200,8000,"[(512, 384), (512, 384), (512, 384), (512, 384), (512, 384), (512, 384), (512, 384), (512, 384), (512, 384), (512, 384), (512, 384), (512, 384), (512, 384), (512, 384), (512, 384), (512, 384), (512, 384), (512, 384), (512, 384), (512, 384), (512, 384), (512, 384), (512, 384), (512, 384), (512, 384), (512, 384), (512, 384), (512, 384), (512, 384), (512, 384), (512, 384), (512, 384), (512, 384), (512, 384), (512, 384), (512, 384), (512, 384), (512, 384), (512, 384), (512, 384), (512, 384), (512, 384), (512, 384), (512, 384), (512, 384), (512, 384), (512, 384), (512, 384), (512, 384), (512, 384), (512, 384), (512, 384), (512, 384), (512, 384), (512, 384), (512, 384), (512, 384), (512, 384), (512, 384), (512, 384), (512, 384), (512, 384), (512, 384), (512, 384), (512, 384), (512, 384), (512, 384), (512, 384), (512, 384), (512, 384), (512, 384), (512, 384), (512, 384), (512, 384), (512, 384), (512, 384), (512, 384), (512, 384), (512, 384), (512, 384), (512, 384), (512, 384), (512, 384), (512, 384), (512, 384), (512, 384), (512, 384), (512, 384), (512, 384), (512, 384), (512, 384), (512, 384), (512, 384), (512, 384), (512, 384), (512, 384), (512, 384), (512, 384), (512, 384), (512, 384), (512, 384), (512, 384), (512, 384), (512, 384), (512, 384), (512, 384), (512, 384), (512, 384), (512, 384), (512, 384), (512, 384), (512, 384), (512, 384), (512, 384), (512, 384), (512, 384), (512, 384), (512, 384), (512, 384), (512, 384), (512, 384), (512, 384), (512, 384), (491, 385), (447, 385), (400, 385), (339, 385), (215, 375)]",181.73570458892837,"[8, 1, 6, 2, 4, 7, 3, 9, 5]","(0, 0.25)",THI010C,THI,C,Chinese,Tue Nov  6 08:38:42 2018,Mouse
2,2,3,0,56,2,2,1,2822,1312,1510,137,0,500,200,8000,"[(512, 384), (512, 384), (512, 384), (512, 384), (512, 384), (512, 384), (512, 384), (512, 384), (512, 384), (512, 384), (512, 384), (512, 384), (512, 384), (512, 384), (512, 384), (512, 384), (512, 384), (512, 384), (512, 384), (512, 384), (512, 384), (512, 384), (512, 384), (512, 384), (512, 384), (512, 384), (512, 384), (512, 384), (512, 384), (512, 384), (512, 384), (512, 384), (512, 384), (512, 384), (512, 384), (512, 384), (512, 384), (512, 384), (512, 384), (512, 384), (512, 384), (512, 384), (512, 384), (512, 384), (512, 384), (512, 384), (512, 384), (512, 384), (512, 384), (512, 384), (512, 384), (512, 384), (512, 384), (512, 384), (512, 384), (512, 384), (512, 384), (512, 384), (512, 384), (512, 384), (512, 384), (512, 384), (512, 384), (512, 384), (512, 384), (512, 384), (512, 384), (512, 384), (512, 384), (512, 384), (512, 384), (512, 384), (512, 384), (512, 384), (512, 384), (512, 384), (512, 384), (512, 384), (512, 384), (512, 384), (512, 384), (512, 384), (512, 384), (512, 384), (512, 384), (512, 384), (512, 384), (512, 384), (512, 384), (512, 384), (512, 384), (512, 384), (512, 384), (512, 384), (512, 384), (512, 384), (512, 384), (512, 384), (512, 384), (512, 384), (512, 384), (512, 384), (512, 384), (512, 384), (512, 384), (512, 384), (512, 384), (512, 384), (512, 384), (512, 384), (512, 384), (512, 384), (512, 384), (512, 384), (512, 384), (512, 384), (512, 384), (512, 384), (512, 384), (512, 384), (512, 384), (512, 384), (512, 384), (512, 384), (512, 384), (512, 384), (512, 384), (512, 384), (512, 384), (512, 384), (512, 384), (513, 383), (513, 383), (513, 383), (513, 383), (513, 383), (513, 383), (513, 383), (513, 383), (513, 383), (513, 383), (513, 383), (513, 383), (513, 383), (513, 383), (513, 383), (513, 383), (513, 383), (513, 383), (513, 383), (513, 383), (513, 383), (513, 383), (513, 383), (513, 383), (513, 383), (513, 383), (513, 383), (513, 383), (513, 383), (513, 383), (513, 383), (513, 383), (513, 383), (513, 383), (513, 383), (513, 383), (513, 383), (513, 383), (513, 383), (513, 383), (513, 383), (513, 383), (513, 383), (513, 383), (513, 383), (513, 383), (513, 383), (513, 383), (513, 383), (513, 383), (513, 383), (513, 383), (513, 383), (513, 383), (513, 383), (513, 383), (513, 383), (513, 383), (513, 383), (513, 383), (513, 383), (513, 383), (513, 383), (513, 383), (513, 383), (513, 383), (513, 383), (513, 383), (513, 383), (513, 383), (513, 383), (513, 383), (513, 383), (513, 383), (513, 383), (513, 383), (513, 383), (513, 383), (513, 383), (513, 383), (513, 383), (513, 383), (513, 383), (513, 383), (513, 383), (513, 383), (513, 383), (513, 383), (513, 383), (513, 383), (513, 383), (513, 383), (513, 383), (513, 383), (513, 383), (513, 383), (513, 383), (513, 383), (513, 383), (513, 383), (513, 383), (513, 383), (513, 383), (513, 383), (513, 383), (513, 383), (513, 383), (513, 383), (513, 383), (513, 383), (513, 383), (513, 383), (513, 383), (513, 383), (513, 383), (513, 383), (513, 383), (513, 383), (513, 383), (513, 383), (513, 383), (513, 383), (513, 383), (513, 383), (513, 383), (513, 383), (513, 383), (513, 383), (513, 383), (513, 383), (513, 383), (513, 383), (513, 383), (513, 383), (513, 383), (513, 383), (513, 383), (513, 383), (513, 383), (513, 383), (513, 383), (513, 383), (513, 383), (513, 383), (505, 383), (494, 387), (481, 395), (465, 404), (414, 441), (372, 473), (330, 503), (285, 536)]",146.1935960257472,"[8, 1, 6, 2, 4, 7, 3, 9, 5]","(0, 0.25)",THI010C,THI,C,Chinese,Tue Nov  6 08:38:42 2018,Mouse
2,2,3,0,57,2,7,0,-1703,662,1041,137,0,500,200,8000,"[(512, 384), (512, 384), (512, 384), (512, 384), (512, 384), (512, 384), (512, 384), (512, 384), (512, 384), (512, 384), (512, 384), (512, 384), (512, 384), (512, 384), (512, 384), (512, 384), (512, 384), (512, 384), (512, 384), (512, 384), (512, 384), (512, 384), (512, 384), (512, 384), (512, 384), (512, 384), (512, 384), (512, 384), (512, 384), (512, 384), (512, 384), (512, 384), (512, 384), (512, 384), (512, 384), (512, 384), (512, 384), (512, 384), (512, 384), (512, 384), (512, 384), (512, 384), (512, 384), (512, 384), (512, 384), (512, 384), (512, 384), (512, 384), (512, 384), (512, 384), (512, 384), (512, 384), (512, 384), (512, 384), (512, 384), (512, 384), (512, 384), (512, 384), (512, 384), (512, 384), (512, 384), (512, 384), (512, 384), (512, 384), (512, 384), (512, 384), (513, 383), (511, 372), (506, 364), (496, 345), (489, 338), (485, 333), (481, 326), (475, 318), (472, 317), (472, 317), (472, 317), (472, 317), (472, 317), (472, 317), (472, 317), (472, 317), (472, 317), (472, 317), (472, 317), (472, 317), (472, 317), (472, 317), (472, 317), (472, 317), (472, 317), (472, 317), (472, 317), (472, 317), (472, 317), (472, 317), (472, 317), (472, 317), (470, 317), (467, 315), (465, 314), (458, 314), (454, 313), (447, 310), (439, 304), (422, 294), (415, 291), (406, 287), (399, 283), (388, 278), (385, 276), (381, 274), (381, 273), (380, 272), (380, 272), (378, 271), (378, 271), (377, 270), (377, 270), (376, 269), (374, 268), (372, 266), (369, 264), (369, 264), (367, 262), (364, 259), (363, 259), (363, 258), (361, 257), (361, 256), (361, 256), (361, 256), (360, 256), (360, 255), (360, 255), (360, 255), (360, 255), (360, 255), (360, 255), (360, 255), (360, 254), (360, 253), (360, 252), (359, 251), (358, 250), (358, 249), (358, 248), (358, 248), (358, 248), (358, 248), (358, 248), (358, 248), (358, 248), (358, 248), (358, 248), (358, 248), (358, 248), (358, 248), (358, 248), (358, 248), (358, 248), (358, 248), (358, 248), (358, 248), (358, 248), (358, 248), (358, 248), (355, 246), (350, 241), (330, 224), (318, 212)]",221.56013030625397,"[8, 1, 6, 2, 4, 7, 3, 9, 5]","(0, 0.25)",THI010C,THI,C,Chinese,Tue Nov  6 08:38:42 2018,Mouse
2,2,3,0,58,1,1,1,270,180,90,138,0,500,200,8000,"[(512, 384), (512, 384), (512, 384), (512, 384), (512, 384), (512, 384), (512, 384), (512, 384), (512, 384), (512, 384), (512, 384), (512, 384), (512, 384), (512, 384), (512, 384), (512, 384), (512, 384), (513, 391), (535, 435), (549, 458), (566, 485), (582, 508), (609, 545), (623, 560), (632, 570), (642, 582), (659, 603)]",56.12918928961119,"[8, 1, 6, 2, 4, 7, 3, 9, 5]","(0, 0.25)",THI010C,THI,C,Chinese,Tue Nov  6 08:38:42 2018,Mouse
2,2,3,0,59,5,5,1,1004,434,570,138,0,500,200,8000,"[(512, 384), (512, 384), (512, 384), (512, 384), (512, 384), (512, 384), (512, 384), (512, 384), (512, 384), (512, 384), (512, 384), (512, 384), (512, 384), (512, 384), (512, 384), (512, 384), (512, 384), (512, 384), (512, 384), (512, 384), (512, 384), (512, 384), (512, 384), (512, 384), (512, 384), (512, 384), (512, 384), (512, 384), (512, 384), (512, 384), (512, 384), (512, 384), (512, 384), (512, 384), (512, 384), (512, 384), (512, 384), (512, 384), (512, 384), (512, 384), (512, 384), (512, 384), (512, 384), (512, 383), (512, 382), (513, 382), (513, 382), (513, 382), (514, 381), (514, 381), (514, 381), (514, 381), (514, 381), (514, 381), (514, 381), (514, 381), (514, 381), (514, 381), (514, 381), (514, 381), (514, 381), (514, 381), (514, 381), (514, 381), (514, 381), (514, 381), (514, 381), (514, 381), (516, 381), (521, 381), (525, 381), (529, 381), (530, 379), (531, 378), (531, 378), (531, 378), (531, 378), (531, 378), (531, 378), (531, 378), (531, 378), (531, 378), (531, 378), (531, 378), (531, 378), (531, 378), (531, 378), (531, 378), (535, 378), (535, 378), (535, 378), (535, 378), (538, 378), (544, 378), (553, 376), (564, 372), (597, 363), (625, 355), (655, 349), (691, 338), (769, 315)]",344.9714949320727,"[8, 1, 6, 2, 4, 7, 3, 9, 5]","(0, 0.25)",THI010C,THI,C,Chinese,Tue Nov  6 08:38:42 2018,Mouse
2,2,3,0,60,9,5,0,-1952,1162,790,137,0,500,200,8000,"[(512, 384), (512, 384), (512, 384), (512, 384), (512, 384), (512, 384), (512, 384), (512, 384), (512, 384), (512, 384), (512, 384), (512, 384), (512, 384), (512, 384), (512, 384), (512, 384), (512, 384), (512, 384), (512, 384), (512, 384), (512, 384), (512, 384), (512, 384), (512, 384), (512, 384), (512, 384), (512, 384), (512, 384), (512, 384), (512, 384), (512, 384), (512, 384), (512, 384), (512, 384), (512, 384), (512, 384), (512, 384), (512, 384), (512, 384), (512, 384), (512, 384), (512, 384), (512, 384), (512, 384), (512, 384), (512, 384), (512, 384), (512, 384), (512, 384), (512, 384), (512, 384), (512, 384), (512, 384), (512, 384), (512, 384), (512, 384), (512, 384), (512, 384), (512, 384), (512, 384), (512, 384), (512, 384), (512, 384), (512, 384), (512, 384), (512, 384), (512, 384), (512, 384), (512, 384), (512, 384), (512, 384), (512, 384), (512, 384), (512, 384), (512, 384), (512, 384), (512, 384), (512, 384), (512, 384), (512, 384), (512, 384), (512, 384), (512, 384), (512, 384), (512, 384), (512, 384), (512, 384), (512, 384), (512, 384), (512, 384), (512, 384), (512, 384), (512, 384), (512, 384), (512, 384), (512, 384), (512, 384), (512, 384), (512, 384), (512, 384), (512, 384), (512, 384), (512, 384), (512, 384), (512, 384), (512, 384), (512, 384), (512, 384), (512, 384), (512, 384), (512, 384), (512, 384), (512, 384), (512, 384), (512, 384), (512, 384), (531, 365), (543, 353), (552, 343), (563, 331), (586, 312), (599, 300), (606, 293), (610, 289), (613, 287), (613, 287), (613, 287), (613, 287), (613, 287), (613, 287), (613, 287), (613, 287), (613, 287), (613, 287), (613, 287), (613, 287), (613, 287), (613, 287), (613, 287), (613, 287), (613, 287), (613, 287), (613, 287), (613, 287), (613, 287), (613, 287), (613, 287), (613, 287), (613, 287), (613, 287), (613, 287), (613, 287), (613, 287), (613, 287), (613, 287), (613, 287), (613, 287), (613, 287), (613, 287), (613, 287), (613, 287), (613, 287), (613, 287), (613, 287), (613, 287), (613, 287), (613, 287), (613, 287), (613, 287), (613, 287), (613, 287), (613, 287), (613, 287), (613, 287), (613, 287), (613, 287), (613, 287), (613, 287), (613, 287), (613, 287), (613, 287), (613, 287), (613, 287), (613, 287), (613, 287), (613, 287), (613, 287), (613, 287), (613, 287), (613, 287), (614, 286), (615, 285), (636, 285), (664, 285), (714, 285), (766, 285)]",338.70596494415685,"[8, 1, 6, 2, 4, 7, 3, 9, 5]","(0, 0.25)",THI010C,THI,C,Chinese,Tue Nov  6 08:38:42 2018,Mouse
2,2,3,0,61,9,4,0,-1082,82,1000,138,0,500,200,8000,"[(512, 384), (512, 384), (512, 384), (512, 384), (512, 384), (512, 384), (512, 384), (512, 384), (509, 385), (509, 385), (508, 385), (508, 385), (508, 385), (508, 385), (508, 385), (508, 385), (508, 385), (508, 385), (508, 385), (508, 385), (508, 385), (508, 385), (508, 385), (508, 385), (508, 385), (508, 385), (508, 385), (508, 386), (507, 386), (508, 385), (508, 385), (508, 385), (508, 385), (508, 385), (508, 385), (508, 385), (508, 385), (508, 385), (508, 385), (508, 385), (508, 385), (508, 385), (508, 385), (508, 385), (508, 385), (508, 385), (508, 385), (508, 385), (508, 385), (508, 385), (508, 385), (508, 385), (508, 385), (508, 385), (508, 385), (508, 385), (508, 385), (508, 385), (508, 385), (508, 385), (508, 385), (508, 385), (508, 385), (508, 385), (508, 385), (508, 385), (508, 385), (508, 385), (508, 385), (508, 385), (508, 385), (508, 385), (508, 385), (508, 385), (508, 385), (508, 385), (508, 385), (508, 385), (508, 385), (508, 385), (508, 385), (508, 385), (508, 385), (508, 385), (508, 385), (508, 385), (508, 385), (508, 385), (508, 385), (508, 385), (508, 385), (508, 385), (508, 385), (508, 385), (508, 385), (508, 385), (508, 385), (508, 385), (508, 385), (508, 385), (508, 385), (508, 385), (508, 385), (508, 385), (480, 389), (452, 391), (402, 391), (349, 393), (238, 393)]",178.11869822929577,"[8, 1, 6, 2, 4, 7, 3, 9, 5]","(0, 0.25)",THI010C,THI,C,Chinese,Tue Nov  6 08:38:42 2018,Mouse
2,2,3,0,62,3,7,0,-1793,392,1401,139,0,500,200,8000,"[(512, 384), (512, 384), (512, 384), (512, 384), (512, 384), (512, 384), (512, 384), (512, 384), (512, 384), (512, 384), (512, 384), (512, 384), (512, 384), (512, 384), (512, 384), (512, 384), (512, 384), (512, 384), (512, 384), (512, 384), (512, 384), (512, 384), (512, 384), (512, 384), (512, 384), (512, 384), (512, 384), (512, 384), (512, 384), (512, 384), (512, 384), (512, 384), (512, 384), (512, 384), (512, 384), (512, 384), (512, 384), (512, 384), (512, 384), (513, 384), (511, 380), (511, 380), (511, 380), (511, 380), (511, 380), (511, 380), (511, 380), (511, 380), (511, 380), (511, 380), (511, 380), (511, 380), (511, 380), (511, 380), (511, 380), (511, 380), (511, 380), (511, 380), (511, 380), (511, 380), (511, 380), (511, 380), (511, 380), (511, 380), (511, 380), (511, 380), (511, 380), (511, 380), (511, 379), (511, 379), (511, 379), (511, 378), (509, 376), (508, 372), (508, 371), (504, 367), (499, 361), (497, 359), (494, 357), (492, 354), (485, 346), (483, 343), (478, 337), (471, 329), (461, 317), (455, 308), (450, 301), (446, 296), (440, 285), (437, 280), (437, 280), (436, 277), (435, 273), (435, 273), (435, 271), (435, 270), (435, 268), (435, 268), (435, 268), (435, 268), (435, 268), (435, 268), (435, 268), (435, 267), (435, 267), (435, 265), (435, 265), (435, 265), (435, 265), (435, 264), (435, 264), (435, 262), (435, 261), (435, 259), (435, 258), (436, 256), (436, 255), (436, 255), (437, 255), (437, 255), (437, 255), (437, 255), (437, 255), (437, 255), (437, 255), (437, 255), (437, 255), (437, 255), (437, 255), (437, 255), (437, 255), (437, 255), (437, 255), (437, 255), (437, 255), (437, 255), (437, 255), (437, 255), (437, 255), (437, 255), (437, 255), (437, 255), (437, 255), (437, 255), (437, 255), (437, 255), (437, 255), (437, 255), (437, 255), (437, 255), (437, 255), (437, 255), (437, 255), (437, 255), (437, 255), (437, 255), (437, 255), (437, 255), (437, 255), (437, 255), (437, 255), (437, 255), (437, 255), (437, 255), (437, 255), (437, 255), (437, 255), (437, 255), (437, 255), (437, 255), (437, 255), (437, 255), (437, 255), (437, 255), (437, 255), (437, 254), (410, 242), (386, 231), (360, 219), (331, 205)]",224.6816933885486,"[8, 1, 6, 2, 4, 7, 3, 9, 5]","(0, 0.25)",THI010C,THI,C,Chinese,Tue Nov  6 08:38:42 2018,Mouse
2,2,3,0,63,7,7,1,414,54,360,140,0,500,200,8000,"[(512, 384), (512, 384), (512, 384), (512, 384), (512, 384), (513, 380), (513, 380), (511, 380), (511, 380), (511, 380), (511, 380), (511, 380), (511, 380), (511, 380), (511, 380), (511, 380), (511, 380), (511, 380), (511, 380), (511, 380), (511, 380), (511, 380), (511, 380), (511, 380), (511, 380), (511, 380), (511, 380), (511, 380), (512, 381), (512, 381), (512, 381), (511, 380), (505, 375), (500, 370), (494, 364), (491, 358), (479, 339), (470, 327), (452, 306), (430, 282), (367, 229), (333, 204)]",225.1595978588467,"[8, 1, 6, 2, 4, 7, 3, 9, 5]","(0, 0.25)",THI010C,THI,C,Chinese,Tue Nov  6 08:38:42 2018,Mouse
2,2,3,0,64,6,6,1,401,121,280,140,0,500,200,8000,"[(512, 384), (512, 384), (512, 384), (512, 384), (512, 384), (512, 384), (512, 384), (512, 384), (512, 384), (512, 384), (512, 384), (512, 384), (511, 384), (511, 384), (509, 384), (509, 384), (508, 385), (508, 385), (508, 385), (508, 385), (508, 385), (508, 385), (508, 385), (508, 385), (507, 387), (507, 391), (507, 392), (507, 396), (507, 409), (507, 421), (507, 436), (507, 456), (507, 507), (507, 532), (507, 551), (507, 566), (507, 589), (507, 600), (507, 612), (507, 627), (504, 658)]",91.67239436108927,"[8, 1, 6, 2, 4, 7, 3, 9, 5]","(0, 0.25)",THI010C,THI,C,Chinese,Tue Nov  6 08:38:42 2018,Mouse
2,2,3,0,65,9,9,1,1542,162,1380,139,0,500,200,8000,"[(512, 384), (512, 384), (512, 384), (512, 384), (512, 384), (512, 384), (512, 384), (512, 384), (512, 384), (512, 384), (512, 384), (512, 384), (512, 384), (512, 384), (512, 384), (512, 384), (513, 382), (513, 382), (513, 382), (513, 382), (516, 382), (516, 382), (516, 382), (516, 382), (516, 382), (516, 382), (516, 382), (516, 382), (516, 382), (516, 382), (516, 382), (516, 382), (516, 382), (516, 382), (516, 382), (516, 382), (516, 382), (516, 382), (516, 382), (516, 382), (516, 382), (516, 382), (516, 382), (516, 382), (516, 382), (516, 382), (516, 382), (516, 382), (516, 382), (516, 382), (516, 382), (516, 382), (516, 382), (516, 382), (516, 382), (516, 382), (516, 382), (516, 382), (516, 382), (516, 382), (516, 382), (516, 382), (516, 382), (516, 382), (516, 382), (516, 382), (516, 382), (516, 382), (516, 382), (516, 382), (516, 382), (516, 382), (516, 382), (516, 382), (516, 382), (516, 382), (516, 382), (516, 382), (516, 382), (516, 382), (516, 382), (516, 382), (516, 382), (516, 382), (516, 382), (516, 382), (516, 382), (516, 382), (516, 382), (516, 382), (517, 383), (517, 383), (517, 383), (517, 383), (517, 384), (517, 384), (517, 384), (517, 384), (517, 384), (517, 384), (517, 384), (517, 384), (517, 384), (517, 384), (517, 384), (517, 384), (517, 384), (517, 384), (517, 384), (517, 384), (517, 385), (520, 384), (521, 384), (522, 384), (525, 382), (526, 381), (526, 381), (528, 380), (530, 380), (535, 377), (537, 376), (542, 374), (545, 372), (553, 368), (556, 364), (559, 360), (559, 356), (558, 356), (558, 356), (558, 356), (558, 356), (558, 356), (558, 356), (558, 356), (558, 356), (558, 356), (558, 356), (558, 356), (558, 356), (558, 356), (557, 361), (557, 362), (557, 362), (557, 362), (557, 362), (557, 362), (557, 355), (574, 333), (580, 326), (589, 318), (595, 305), (631, 262), (654, 229), (669, 202), (680, 178)]",309.198413112353,"[8, 1, 6, 2, 4, 7, 3, 9, 5]","(0, 0.25)",THI010C,THI,C,Chinese,Tue Nov  6 08:38:42 2018,Mouse
2,2,3,0,66,4,8,0,-1692,1652,40,138,0,500,200,8000,"[(512, 384), (512, 384), (512, 384), (512, 384), (512, 384), (512, 384), (512, 384), (512, 384), (512, 384), (512, 384), (512, 384), (512, 384), (512, 384), (512, 384), (512, 384), (512, 384), (512, 384), (512, 384), (512, 384), (512, 384), (512, 384), (512, 384), (512, 384), (512, 384), (512, 384), (512, 384), (512, 384), (512, 384), (512, 384), (512, 384), (512, 384), (512, 384), (512, 384), (512, 384), (512, 384), (512, 384), (512, 384), (512, 384), (512, 384), (512, 384), (512, 384), (512, 384), (512, 384), (512, 384), (512, 384), (512, 384), (512, 384), (512, 384), (512, 384), (512, 384), (512, 384), (512, 384), (512, 384), (512, 384), (512, 384), (512, 384), (512, 384), (512, 384), (512, 384), (512, 384), (512, 384), (512, 384), (512, 384), (512, 384), (512, 384), (512, 384), (512, 384), (512, 384), (512, 384), (512, 384), (512, 384), (512, 384), (512, 384), (512, 384), (512, 384), (512, 384), (512, 384), (512, 384), (512, 384), (512, 384), (512, 384), (512, 384), (512, 384), (512, 384), (512, 384), (512, 384), (512, 384), (512, 384), (512, 384), (512, 384), (512, 384), (512, 384), (512, 384), (512, 384), (512, 384), (512, 384), (512, 384), (512, 384), (512, 384), (512, 384), (512, 384), (512, 384), (512, 384), (512, 384), (512, 384), (512, 384), (512, 384), (512, 384), (512, 384), (512, 384), (512, 384), (512, 384), (512, 384), (512, 384), (512, 384), (512, 384), (512, 384), (512, 384), (512, 384), (512, 384), (512, 384), (512, 384), (512, 384), (512, 384), (512, 384), (512, 384), (512, 384), (512, 384), (512, 384), (512, 384), (512, 384), (512, 384), (512, 384), (512, 384), (512, 384), (512, 384), (512, 384), (512, 384), (512, 384), (512, 384), (512, 384), (512, 384), (512, 384), (512, 384), (512, 384), (512, 384), (512, 384), (512, 384), (512, 384), (512, 384), (512, 384), (512, 384), (512, 384), (512, 384), (512, 384), (512, 384), (512, 384), (512, 384), (512, 384), (512, 384), (512, 384), (512, 384), (512, 384), (512, 384), (512, 384), (521, 384), (545, 393), (597, 416), (643, 440), (755, 503)]",26.091543118343065,"[8, 1, 6, 2, 4, 7, 3, 9, 5]","(0, 0.25)",THI010C,THI,C,Chinese,Tue Nov  6 08:38:42 2018,Mouse
2,2,3,0,67,9,9,1,721,381,340,139,0,500,200,8000,"[(512, 384), (512, 384), (512, 384), (512, 384), (512, 384), (512, 384), (512, 384), (512, 384), (512, 384), (512, 384), (512, 384), (512, 384), (512, 384), (512, 384), (512, 384), (512, 384), (512, 384), (512, 384), (512, 384), (512, 384), (512, 384), (512, 384), (512, 384), (512, 384), (512, 384), (512, 384), (512, 384), (512, 384), (512, 384), (512, 384), (512, 384), (512, 384), (512, 384), (512, 384), (512, 384), (512, 384), (512, 384), (512, 384), (512, 383), (513, 382), (515, 382), (517, 378), (518, 378), (518, 378), (518, 378), (518, 378), (518, 378), (518, 378), (518, 378), (518, 378), (518, 378), (518, 378), (518, 378), (518, 378), (518, 378), (518, 378), (519, 380), (519, 380), (519, 380), (519, 380), (519, 380), (519, 380), (519, 379), (523, 375), (537, 363), (543, 356), (550, 350), (557, 339), (586, 293), (600, 264), (615, 222), (626, 188), (648, 116)]",296.90609345593685,"[8, 1, 6, 2, 4, 7, 3, 9, 5]","(0, 0.25)",THI010C,THI,C,Chinese,Tue Nov  6 08:38:42 2018,Mouse
2,2,3,0,68,5,5,1,557,477,80,139,0,500,200,8000,"[(512, 384), (512, 384), (512, 384), (512, 384), (512, 384), (512, 384), (512, 384), (512, 384), (512, 384), (512, 384), (512, 384), (512, 384), (512, 384), (512, 384), (512, 384), (512, 384), (512, 384), (512, 384), (512, 384), (512, 384), (512, 384), (512, 384), (512, 384), (512, 384), (512, 384), (512, 384), (512, 384), (512, 384), (512, 384), (512, 384), (512, 384), (512, 384), (512, 384), (512, 384), (512, 384), (512, 384), (512, 384), (512, 384), (512, 384), (512, 384), (512, 384), (512, 384), (512, 384), (512, 384), (512, 384), (512, 384), (512, 384), (523, 384), (539, 378), (559, 373), (576, 368), (626, 354), (653, 347), (692, 336), (727, 321), (789, 297)]",342.5635693271571,"[8, 1, 6, 2, 4, 7, 3, 9, 5]","(0, 0.25)",THI010C,THI,C,Chinese,Tue Nov  6 08:38:42 2018,Mouse
2,2,3,0,69,8,5,0,-652,312,340,138,0,500,200,8000,"[(512, 384), (512, 384), (512, 384), (512, 384), (512, 384), (512, 384), (512, 384), (512, 384), (512, 384), (512, 384), (512, 384), (512, 384), (512, 384), (512, 384), (512, 384), (512, 384), (512, 384), (512, 384), (512, 384), (512, 384), (512, 384), (512, 384), (512, 384), (512, 384), (512, 384), (512, 384), (512, 384), (512, 384), (512, 384), (512, 384), (512, 384), (510, 384), (506, 383), (506, 383), (506, 383), (506, 383), (506, 383), (506, 383), (506, 383), (506, 383), (506, 383), (506, 383), (506, 383), (506, 383), (506, 383), (506, 383), (506, 383), (506, 383), (506, 383), (506, 383), (506, 383), (506, 383), (506, 383), (507, 382), (509, 381), (512, 381), (524, 374), (530, 372), (541, 368), (554, 362), (587, 349), (615, 341), (640, 335), (668, 326), (729, 308), (752, 302)]",341.1364124443759,"[8, 1, 6, 2, 4, 7, 3, 9, 5]","(0, 0.25)",THI010C,THI,C,Chinese,Tue Nov  6 08:38:42 2018,Mouse
2,2,3,0,70,6,6,1,361,271,90,139,0,500,200,8000,"[(512, 384), (512, 384), (512, 384), (512, 384), (512, 384), (512, 384), (512, 384), (512, 384), (512, 384), (512, 384), (512, 384), (512, 384), (512, 384), (512, 384), (512, 384), (512, 384), (512, 384), (512, 384), (512, 384), (512, 384), (512, 384), (512, 384), (512, 384), (512, 384), (512, 384), (512, 384), (512, 384), (511, 385), (510, 393), (509, 407), (506, 420), (503, 438), (491, 487), (488, 514), (483, 541), (475, 569), (464, 636)]",100.78429786756261,"[8, 1, 6, 2, 4, 7, 3, 9, 5]","(0, 0.25)",THI010C,THI,C,Chinese,Tue Nov  6 08:38:42 2018,Mouse
2,2,3,0,71,8,5,0,-1472,332,1140,139,0,500,200,8000,"[(512, 384), (512, 384), (512, 384), (512, 384), (512, 384), (512, 384), (512, 384), (512, 384), (512, 384), (512, 384), (512, 384), (512, 384), (512, 384), (512, 384), (512, 384), (512, 384), (512, 384), (512, 384), (512, 384), (512, 384), (512, 384), (512, 384), (512, 384), (512, 384), (512, 384), (512, 384), (512, 384), (512, 384), (512, 384), (512, 384), (512, 384), (512, 384), (512, 384), (513, 384), (513, 384), (514, 384), (514, 383), (514, 382), (514, 382), (514, 382), (514, 382), (514, 382), (514, 382), (514, 382), (514, 382), (514, 382), (514, 382), (514, 382), (514, 382), (514, 382), (514, 382), (514, 382), (514, 382), (514, 382), (514, 382), (514, 382), (514, 382), (514, 382), (514, 382), (514, 382), (517, 382), (517, 382), (517, 382), (517, 382), (517, 382), (517, 382), (517, 382), (517, 382), (517, 382), (517, 382), (517, 382), (517, 382), (517, 382), (517, 382), (517, 382), (517, 382), (517, 382), (517, 382), (517, 382), (517, 382), (517, 382), (517, 382), (517, 382), (517, 382), (517, 382), (517, 382), (517, 382), (517, 382), (517, 382), (517, 382), (517, 382), (517, 382), (517, 382), (517, 382), (517, 382), (517, 382), (517, 382), (517, 382), (517, 382), (517, 382), (517, 382), (517, 382), (517, 382), (517, 382), (517, 382), (517, 382), (517, 382), (517, 382), (517, 382), (517, 382), (517, 382), (517, 382), (517, 382), (517, 382), (517, 382), (517, 382), (517, 382), (517, 382), (517, 382), (517, 382), (517, 382), (517, 382), (517, 382), (517, 382), (517, 382), (517, 382), (517, 382), (517, 382), (517, 382), (517, 382), (517, 382), (517, 382), (517, 382), (517, 382), (517, 382), (517, 382), (517, 382), (517, 382), (517, 382), (517, 382), (517, 382), (519, 382), (526, 379), (563, 358), (598, 341), (647, 317), (700, 297), (824, 248)]",336.44773632710536,"[8, 1, 6, 2, 4, 7, 3, 9, 5]","(0, 0.25)",THI010C,THI,C,Chinese,Tue Nov  6 08:38:42 2018,Mouse
2,2,3,0,72,1,6,0,-282,32,250,140,0,500,200,8000,"[(512, 384), (512, 384), (512, 384), (512, 385), (512, 405), (512, 416), (512, 430), (512, 441), (512, 465), (512, 479), (512, 487), (514, 497), (518, 511), (520, 517), (523, 527), (527, 535), (532, 554), (534, 561), (535, 569), (536, 575), (537, 586), (539, 590), (539, 593), (540, 597), (540, 607), (541, 613), (545, 621), (547, 627), (551, 635)]",81.1680913490307,"[8, 1, 6, 2, 4, 7, 3, 9, 5]","(0, 0.25)",THI010C,THI,C,Chinese,Tue Nov  6 08:38:42 2018,Mouse
2,2,3,0,73,1,1,1,419,119,300,141,0,500,200,8000,"[(512, 384), (512, 384), (512, 384), (512, 384), (512, 384), (512, 384), (512, 384), (512, 384), (512, 384), (512, 384), (512, 384), (513, 389), (516, 397), (517, 401), (520, 408), (523, 420), (526, 423), (526, 428), (527, 430), (530, 438), (532, 442), (534, 447), (536, 452), (541, 462), (543, 466), (545, 470), (547, 475), (554, 486), (559, 495), (564, 504), (569, 515), (580, 535), (585, 541), (590, 548), (596, 554), (603, 564), (607, 569), (613, 576), (617, 582), (622, 594), (624, 600), (627, 606)]",62.615029418786136,"[8, 1, 6, 2, 4, 7, 3, 9, 5]","(0, 0.25)",THI010C,THI,C,Chinese,Tue Nov  6 08:38:42 2018,Mouse
2,2,3,0,74,7,7,1,375,285,90,141,0,500,200,8000,"[(512, 384), (512, 384), (512, 384), (512, 384), (512, 384), (512, 384), (512, 384), (512, 384), (512, 384), (512, 384), (512, 384), (512, 384), (512, 384), (512, 384), (512, 384), (512, 384), (512, 384), (512, 384), (512, 384), (512, 384), (512, 384), (512, 384), (512, 384), (512, 384), (512, 384), (512, 384), (512, 384), (512, 384), (512, 383), (512, 383), (512, 382), (510, 375), (496, 362), (464, 339), (445, 325), (420, 309), (381, 281), (308, 230)]",217.04922657360697,"[8, 1, 6, 2, 4, 7, 3, 9, 5]","(0, 0.25)",THI010C,THI,C,Chinese,Tue Nov  6 08:38:42 2018,Mouse
2,2,3,0,75,9,9,1,662,242,420,140,0,500,200,8000,"[(512, 384), (512, 384), (512, 384), (512, 384), (512, 384), (512, 384), (512, 384), (512, 384), (512, 384), (512, 384), (512, 384), (512, 384), (512, 384), (512, 384), (512, 384), (512, 384), (512, 384), (512, 384), (512, 384), (512, 384), (512, 384), (512, 384), (512, 384), (512, 384), (517, 383), (518, 382), (520, 379), (520, 376), (520, 373), (520, 372), (520, 372), (520, 372), (520, 372), (520, 372), (520, 372), (520, 372), (520, 372), (520, 372), (520, 372), (520, 372), (520, 372), (520, 372), (520, 372), (520, 372), (520, 372), (520, 372), (520, 372), (520, 372), (520, 372), (520, 372), (520, 372), (520, 372), (520, 372), (520, 372), (520, 372), (522, 373), (523, 373), (523, 373), (523, 371), (525, 368), (540, 347), (550, 335), (564, 317), (585, 293), (636, 233), (670, 193), (698, 161)]",309.83083378000777,"[8, 1, 6, 2, 4, 7, 3, 9, 5]","(0, 0.25)",THI010C,THI,C,Chinese,Tue Nov  6 08:38:42 2018,Mouse
