NativeLangNumber,LanuageNumber,SessionNumber,Block,TrialNum,ConditionNumber,Response,Accuracy,RT,MovementOnsetTime,TimeInMotion,SignalContrast,SignalContrastNumber,StimDisplayTime,MaskTime,MaxResponseTime,MousePositionXY,MouseAngle,WheelOrder,NoiseMuSigma,ParticipantID,LanuageTested,SessionTested,NativeLanuage,Date,ResponseDevice
1,2,3,0,1,3,3,1,968,418,550,153,0,500,200,8000,"[(960, 540), (960, 540), (960, 540), (960, 540), (960, 540), (960, 540), (960, 540), (960, 540), (960, 540), (960, 540), (960, 540), (960, 540), (960, 540), (960, 540), (960, 540), (960, 540), (960, 540), (960, 540), (960, 540), (960, 540), (960, 540), (960, 540), (960, 540), (960, 540), (960, 540), (960, 540), (960, 540), (960, 540), (960, 540), (960, 540), (960, 540), (960, 540), (960, 540), (960, 540), (960, 540), (960, 540), (960, 540), (960, 540), (960, 540), (960, 540), (960, 540), (961, 541), (961, 541), (961, 541), (961, 542), (961, 544), (961, 546), (959, 548), (957, 554), (956, 555), (955, 558), (953, 562), (950, 567), (948, 570), (946, 573), (944, 576), (936, 585), (933, 590), (928, 594), (922, 599), (906, 612), (898, 617), (888, 624), (879, 630), (850, 647), (840, 653), (831, 659), (821, 663), (805, 672), (799, 676), (790, 680), (784, 683), (773, 689), (767, 693), (756, 696), (749, 698), (735, 706), (727, 709), (718, 712), (714, 714), (701, 721), (697, 724), (693, 727), (688, 730), (685, 733), (681, 735), (680, 737), (675, 742), (670, 751), (666, 756), (663, 762), (659, 768), (652, 779), (651, 781), (651, 785), (650, 786), (647, 791)]",141.27328350908397,"[1, 9, 7, 3, 4, 2, 8, 5, 6]","(0, 0.25)",THI010C,THI,C,English,Tue Sep 04 11:28:50 2018,Mouse
1,2,3,0,2,6,6,1,1709,1329,380,153,0,500,200,8000,"[(960, 540), (960, 540), (960, 540), (960, 540), (960, 540), (960, 540), (960, 540), (960, 540), (960, 540), (960, 540), (960, 540), (960, 540), (960, 540), (960, 540), (960, 540), (960, 540), (960, 540), (960, 540), (960, 540), (960, 540), (960, 540), (960, 540), (960, 540), (960, 540), (960, 540), (960, 540), (960, 540), (960, 540), (960, 540), (960, 540), (960, 540), (960, 540), (960, 540), (960, 540), (960, 540), (960, 540), (960, 540), (960, 540), (960, 540), (960, 540), (960, 540), (960, 540), (960, 540), (960, 540), (960, 540), (960, 540), (960, 540), (960, 540), (960, 540), (960, 540), (960, 540), (960, 540), (960, 540), (960, 540), (960, 540), (960, 540), (960, 540), (960, 540), (960, 540), (960, 540), (960, 540), (960, 540), (960, 540), (960, 540), (960, 540), (960, 540), (960, 540), (960, 540), (960, 540), (960, 540), (960, 540), (960, 540), (960, 540), (960, 540), (960, 540), (960, 540), (960, 540), (960, 540), (960, 540), (960, 540), (960, 540), (960, 540), (960, 540), (960, 540), (960, 540), (960, 540), (960, 540), (960, 540), (960, 540), (960, 540), (960, 540), (960, 540), (960, 540), (960, 540), (960, 540), (960, 540), (960, 540), (960, 540), (960, 540), (960, 540), (960, 540), (960, 540), (960, 540), (960, 540), (960, 540), (960, 540), (960, 540), (960, 540), (960, 540), (960, 540), (960, 540), (960, 540), (960, 540), (960, 540), (960, 540), (960, 540), (960, 540), (960, 540), (960, 540), (960, 540), (960, 540), (960, 540), (960, 540), (960, 540), (960, 540), (960, 540), (960, 540), (960, 540), (960, 540), (960, 540), (960, 540), (960, 540), (960, 539), (960, 539), (960, 537), (966, 534), (970, 533), (975, 530), (984, 527), (1000, 523), (1008, 520), (1016, 518), (1022, 517), (1040, 511), (1048, 509), (1056, 507), (1065, 504), (1084, 498), (1092, 495), (1102, 491), (1110, 488), (1132, 476), (1140, 472), (1150, 468), (1158, 463), (1171, 457), (1177, 454), (1183, 452), (1192, 449), (1206, 444), (1213, 442), (1222, 440), (1231, 436), (1251, 427), (1265, 420), (1278, 414), (1291, 408), (1311, 400), (1319, 396), (1329, 392), (1341, 387)]",338.1208486624247,"[1, 9, 7, 3, 4, 2, 8, 5, 6]","(0, 0.25)",THI010C,THI,C,English,Tue Sep 04 11:28:50 2018,Mouse
1,2,3,0,3,5,5,1,640,30,610,152,0,500,200,8000,"[(960, 540), (960, 540), (960, 539), (960, 538), (961, 535), (962, 530), (963, 530), (963, 527), (965, 525), (965, 523), (965, 522), (965, 522), (965, 522), (965, 522), (965, 522), (965, 522), (965, 522), (965, 522), (965, 522), (965, 522), (965, 522), (965, 522), (965, 522), (965, 522), (965, 522), (965, 522), (965, 522), (966, 520), (969, 516), (974, 507), (977, 505), (983, 499), (989, 493), (1000, 483), (1005, 479), (1009, 474), (1016, 469), (1031, 458), (1037, 453), (1042, 449), (1048, 443), (1058, 430), (1064, 423), (1072, 415), (1077, 408), (1092, 386), (1100, 376), (1106, 361), (1112, 349), (1124, 325), (1129, 317), (1132, 306), (1138, 295), (1147, 275), (1148, 267), (1151, 258), (1153, 250), (1157, 234), (1159, 228), (1162, 221), (1164, 215), (1168, 207), (1169, 203), (1173, 197)]",301.8399193533819,"[1, 9, 7, 3, 4, 2, 8, 5, 6]","(0, 0.25)",THI010C,THI,C,English,Tue Sep 04 11:28:50 2018,Mouse
1,2,3,0,4,9,9,1,1401,530,871,151,0,500,200,8000,"[(960, 540), (960, 540), (960, 540), (960, 540), (960, 540), (960, 540), (960, 540), (960, 540), (960, 540), (960, 540), (960, 540), (960, 540), (960, 540), (960, 540), (960, 540), (960, 540), (960, 540), (960, 540), (960, 540), (960, 540), (960, 540), (960, 540), (960, 540), (960, 540), (960, 540), (960, 540), (960, 540), (960, 540), (960, 540), (960, 540), (960, 540), (960, 540), (960, 540), (960, 540), (960, 540), (960, 540), (960, 540), (960, 540), (960, 540), (960, 540), (960, 540), (960, 540), (960, 540), (960, 540), (960, 540), (960, 540), (960, 540), (960, 540), (960, 540), (960, 540), (960, 540), (960, 540), (960, 541), (960, 541), (960, 541), (960, 541), (959, 543), (958, 544), (958, 544), (958, 544), (958, 544), (958, 544), (958, 544), (958, 544), (958, 544), (958, 544), (958, 544), (958, 544), (958, 545), (958, 545), (958, 546), (958, 547), (958, 547), (958, 548), (958, 548), (958, 548), (958, 549), (958, 549), (958, 549), (958, 549), (958, 549), (958, 549), (958, 549), (958, 549), (958, 549), (958, 549), (958, 550), (958, 550), (958, 552), (958, 552), (958, 553), (958, 553), (958, 554), (958, 554), (958, 554), (958, 554), (958, 554), (958, 554), (958, 555), (958, 555), (958, 556), (958, 558), (958, 561), (958, 563), (958, 569), (958, 571), (958, 575), (958, 578), (958, 588), (958, 595), (961, 601), (963, 608), (983, 638), (998, 658), (1007, 672), (1015, 682), (1030, 703), (1036, 710), (1040, 715), (1043, 719), (1045, 723), (1045, 725), (1045, 728), (1046, 732), (1047, 738), (1047, 741), (1049, 747), (1054, 757), (1060, 773), (1063, 780), (1066, 787), (1071, 797), (1082, 819), (1086, 829), (1096, 846), (1103, 857), (1114, 879), (1119, 890), (1129, 902), (1135, 913)]",64.8654907174331,"[1, 9, 7, 3, 4, 2, 8, 5, 6]","(0, 0.25)",THI010C,THI,C,English,Tue Sep 04 11:28:50 2018,Mouse
1,2,3,0,5,6,6,1,1110,720,390,150,0,500,200,8000,"[(960, 540), (960, 540), (960, 540), (960, 540), (960, 540), (960, 540), (960, 540), (960, 540), (960, 540), (960, 540), (960, 540), (960, 540), (960, 540), (960, 540), (960, 540), (960, 540), (960, 540), (960, 540), (960, 540), (960, 540), (960, 540), (960, 540), (960, 540), (960, 540), (960, 540), (960, 540), (960, 540), (960, 540), (960, 540), (960, 540), (960, 540), (960, 540), (960, 540), (960, 540), (960, 540), (960, 540), (960, 540), (960, 540), (960, 540), (960, 540), (960, 540), (960, 540), (960, 540), (960, 540), (960, 540), (960, 540), (960, 540), (960, 540), (960, 540), (960, 540), (960, 540), (960, 540), (960, 540), (960, 540), (960, 540), (960, 540), (960, 540), (960, 540), (960, 540), (960, 540), (960, 540), (960, 540), (960, 540), (960, 540), (960, 540), (960, 540), (960, 540), (960, 540), (960, 540), (960, 540), (960, 540), (960, 539), (961, 537), (963, 534), (965, 533), (970, 526), (973, 523), (976, 521), (981, 516), (983, 514), (985, 512), (986, 511), (990, 506), (997, 500), (1005, 496), (1013, 493), (1034, 483), (1043, 478), (1053, 476), (1063, 472), (1081, 466), (1089, 465), (1095, 463), (1105, 462), (1132, 458), (1149, 458), (1164, 458), (1177, 458), (1192, 458), (1216, 458), (1230, 455), (1243, 453), (1266, 446), (1276, 444), (1283, 440), (1292, 435), (1310, 426), (1318, 421), (1327, 415), (1336, 408), (1354, 397)]",340.05192962100966,"[1, 9, 7, 3, 4, 2, 8, 5, 6]","(0, 0.25)",THI010C,THI,C,English,Tue Sep 04 11:28:50 2018,Mouse
1,2,3,0,6,7,7,1,1049,649,400,149,0,500,200,8000,"[(960, 540), (960, 540), (960, 540), (960, 540), (960, 540), (960, 540), (960, 540), (960, 540), (960, 540), (960, 540), (960, 540), (960, 540), (960, 540), (960, 540), (960, 540), (960, 540), (960, 540), (960, 540), (960, 540), (960, 540), (960, 540), (960, 540), (960, 540), (960, 540), (960, 540), (960, 540), (960, 540), (960, 540), (960, 540), (960, 540), (960, 540), (960, 540), (960, 540), (960, 540), (960, 540), (960, 540), (960, 540), (960, 540), (960, 540), (960, 540), (960, 540), (960, 540), (960, 540), (960, 540), (960, 540), (960, 540), (960, 540), (960, 540), (960, 540), (960, 540), (960, 540), (960, 540), (960, 540), (960, 540), (960, 540), (960, 540), (960, 540), (960, 540), (960, 540), (960, 540), (960, 540), (960, 540), (960, 540), (960, 540), (960, 541), (960, 541), (960, 541), (960, 541), (960, 541), (960, 542), (959, 543), (958, 543), (958, 543), (958, 544), (956, 545), (956, 547), (954, 550), (952, 553), (950, 558), (949, 560), (948, 563), (947, 566), (942, 577), (941, 580), (939, 586), (937, 596), (934, 617), (933, 628), (932, 641), (932, 658), (930, 706), (930, 721), (930, 735), (930, 748), (930, 775), (930, 786), (928, 800), (927, 812), (922, 838), (921, 851), (919, 864), (919, 878), (916, 908), (916, 935), (916, 954)]",96.06663307360512,"[1, 9, 7, 3, 4, 2, 8, 5, 6]","(0, 0.25)",THI010C,THI,C,English,Tue Sep 04 11:28:50 2018,Mouse
1,2,3,0,7,2,2,1,650,130,520,148,0,500,200,8000,"[(960, 540), (960, 540), (960, 540), (960, 540), (960, 540), (960, 540), (960, 540), (960, 540), (960, 540), (960, 540), (960, 540), (960, 540), (961, 540), (961, 540), (962, 540), (962, 540), (962, 538), (963, 538), (963, 538), (963, 537), (963, 536), (963, 535), (963, 534), (963, 534), (963, 533), (963, 532), (963, 531), (963, 530), (961, 524), (960, 522), (957, 517), (956, 513), (951, 507), (949, 504), (947, 501), (945, 498), (939, 494), (934, 491), (930, 491), (927, 489), (922, 486), (917, 484), (908, 479), (897, 475), (881, 470), (875, 467), (865, 461), (857, 455), (837, 441), (827, 435), (818, 431), (809, 424), (797, 414), (792, 410), (787, 406), (781, 400), (766, 388), (760, 383), (746, 375), (732, 368), (706, 351), (687, 343), (666, 332), (643, 323), (594, 304)]",212.81427669037203,"[1, 9, 7, 3, 4, 2, 8, 5, 6]","(0, 0.25)",THI010C,THI,C,English,Tue Sep 04 11:28:50 2018,Mouse
1,2,3,0,8,2,2,1,559,299,260,147,0,500,200,8000,"[(960, 540), (960, 540), (960, 540), (960, 540), (960, 540), (960, 540), (960, 540), (960, 540), (960, 540), (960, 540), (960, 540), (960, 540), (960, 540), (960, 540), (960, 540), (960, 540), (960, 540), (960, 540), (960, 540), (960, 540), (960, 540), (960, 540), (960, 540), (960, 540), (960, 540), (960, 540), (960, 540), (960, 540), (960, 540), (958, 540), (956, 538), (950, 532), (944, 528), (935, 523), (924, 518), (901, 508), (891, 503), (884, 501), (879, 500), (872, 495), (866, 491), (861, 487), (857, 484), (848, 475), (840, 468), (832, 457), (825, 447), (802, 419), (788, 399), (775, 382), (758, 357), (734, 320), (722, 294), (713, 280), (703, 261), (675, 226)]",227.77175497193488,"[1, 9, 7, 3, 4, 2, 8, 5, 6]","(0, 0.25)",THI010C,THI,C,English,Tue Sep 04 11:28:50 2018,Mouse
1,2,3,0,9,2,2,1,800,400,400,146,0,500,200,8000,"[(960, 540), (960, 540), (960, 540), (960, 540), (960, 540), (960, 540), (960, 540), (960, 540), (960, 540), (960, 540), (960, 540), (960, 540), (960, 540), (960, 540), (960, 540), (960, 540), (960, 540), (960, 540), (960, 540), (960, 540), (960, 540), (960, 540), (960, 540), (960, 540), (960, 540), (960, 540), (960, 540), (960, 540), (960, 540), (960, 540), (960, 540), (960, 540), (960, 540), (960, 540), (960, 540), (960, 540), (960, 540), (960, 540), (960, 540), (960, 541), (960, 541), (960, 541), (960, 541), (960, 541), (960, 541), (960, 541), (960, 541), (960, 541), (960, 541), (959, 541), (956, 541), (954, 541), (952, 541), (950, 541), (947, 541), (945, 541), (943, 541), (942, 541), (936, 538), (933, 537), (928, 533), (924, 530), (917, 526), (911, 523), (905, 518), (898, 513), (884, 502), (876, 495), (870, 489), (860, 480), (844, 462), (835, 452), (824, 442), (812, 430), (782, 404), (769, 393), (743, 370), (722, 352), (668, 311), (634, 284)]",218.14169927622802,"[1, 9, 7, 3, 4, 2, 8, 5, 6]","(0, 0.25)",THI010C,THI,C,English,Tue Sep 04 11:28:50 2018,Mouse
1,2,3,0,10,5,5,1,1220,800,420,145,0,500,200,8000,"[(960, 540), (960, 540), (960, 540), (960, 540), (960, 540), (960, 540), (960, 540), (960, 540), (960, 540), (960, 540), (960, 540), (960, 540), (960, 540), (960, 540), (960, 540), (960, 540), (960, 540), (960, 540), (960, 540), (960, 540), (960, 540), (960, 540), (960, 540), (960, 540), (960, 540), (960, 540), (960, 540), (960, 540), (960, 540), (960, 540), (960, 540), (960, 540), (960, 540), (960, 540), (960, 540), (960, 540), (960, 540), (960, 540), (960, 540), (960, 540), (960, 540), (960, 540), (960, 540), (960, 540), (960, 540), (960, 540), (960, 540), (960, 540), (960, 540), (960, 540), (960, 540), (960, 540), (960, 540), (960, 540), (960, 540), (960, 540), (960, 540), (960, 540), (960, 540), (960, 540), (960, 540), (960, 540), (960, 540), (960, 540), (960, 540), (960, 540), (960, 540), (960, 540), (960, 540), (960, 540), (960, 540), (960, 540), (960, 540), (960, 540), (960, 540), (960, 540), (960, 540), (960, 540), (960, 540), (958, 540), (957, 541), (957, 541), (956, 541), (956, 541), (956, 541), (956, 541), (956, 541), (956, 541), (956, 541), (956, 541), (956, 541), (956, 541), (956, 541), (956, 541), (956, 541), (956, 541), (956, 541), (957, 538), (961, 537), (968, 530), (973, 526), (976, 523), (980, 520), (992, 511), (997, 507), (1001, 502), (1004, 498), (1012, 485), (1015, 479), (1018, 473), (1020, 467), (1030, 451), (1036, 440), (1040, 433), (1051, 419), (1072, 393), (1088, 378), (1101, 360), (1118, 333), (1159, 274), (1173, 242), (1192, 210)]",305.10838027317783,"[1, 9, 7, 3, 4, 2, 8, 5, 6]","(0, 0.25)",THI010C,THI,C,English,Tue Sep 04 11:28:50 2018,Mouse
1,2,3,0,11,2,2,1,559,149,410,144,0,500,200,8000,"[(960, 540), (960, 540), (960, 540), (960, 540), (960, 540), (960, 540), (960, 540), (960, 540), (960, 540), (960, 540), (960, 540), (960, 540), (960, 540), (960, 540), (959, 540), (956, 540), (956, 540), (954, 540), (951, 540), (946, 538), (942, 537), (941, 537), (938, 537), (935, 536), (932, 534), (930, 534), (927, 533), (920, 532), (914, 529), (909, 528), (901, 525), (880, 519), (871, 517), (864, 515), (857, 512), (844, 504), (839, 501), (834, 497), (826, 490), (810, 477), (803, 470), (793, 463), (782, 453), (763, 439), (754, 430), (746, 418), (738, 408), (722, 387), (713, 374), (706, 364), (698, 353), (680, 328), (670, 318), (669, 316), (659, 302), (645, 285)]",218.99099404250546,"[1, 9, 7, 3, 4, 2, 8, 5, 6]","(0, 0.25)",THI010C,THI,C,English,Tue Sep 04 11:28:50 2018,Mouse
1,2,3,0,12,2,2,1,590,190,400,143,0,500,200,8000,"[(960, 540), (960, 540), (960, 540), (960, 540), (960, 540), (960, 540), (960, 540), (960, 540), (960, 540), (960, 540), (960, 540), (960, 540), (960, 540), (960, 540), (960, 540), (960, 540), (960, 540), (960, 540), (958, 540), (958, 540), (958, 540), (957, 540), (955, 540), (952, 539), (951, 537), (948, 536), (944, 531), (940, 526), (932, 518), (926, 507), (911, 474), (897, 459), (886, 451), (876, 443), (846, 425), (831, 418), (821, 414), (813, 411), (799, 406), (795, 403), (791, 401), (789, 400), (787, 395), (785, 393), (784, 392), (782, 389), (776, 381), (772, 377), (767, 373), (762, 369), (754, 361), (749, 356), (746, 350), (742, 345), (731, 326), (720, 311), (705, 293), (684, 275), (623, 234)]",222.23982125208755,"[1, 9, 7, 3, 4, 2, 8, 5, 6]","(0, 0.25)",THI010C,THI,C,English,Tue Sep 04 11:28:50 2018,Mouse
1,2,3,0,13,8,8,1,549,229,320,142,0,500,200,8000,"[(960, 540), (960, 540), (960, 540), (960, 540), (960, 540), (960, 540), (960, 540), (960, 540), (960, 540), (960, 540), (960, 540), (960, 540), (960, 540), (960, 540), (960, 540), (960, 540), (960, 540), (960, 540), (960, 540), (960, 540), (960, 540), (960, 540), (960, 539), (960, 534), (959, 528), (958, 520), (955, 500), (953, 489), (950, 478), (946, 467), (941, 447), (937, 437), (936, 432), (935, 425), (931, 412), (930, 403), (929, 395), (927, 388), (922, 371), (921, 366), (919, 356), (917, 349), (913, 333), (909, 325), (906, 319), (904, 312), (897, 294), (894, 283), (891, 273), (889, 261), (883, 233), (879, 211), (876, 182), (876, 149), (876, 74)]",259.78173567842003,"[1, 9, 7, 3, 4, 2, 8, 5, 6]","(0, 0.25)",THI010C,THI,C,English,Tue Sep 04 11:28:50 2018,Mouse
1,2,3,0,14,8,8,1,639,159,480,141,0,500,200,8000,"[(960, 540), (960, 540), (960, 540), (960, 540), (960, 540), (960, 540), (960, 540), (960, 540), (960, 540), (960, 540), (960, 540), (960, 540), (960, 540), (960, 540), (960, 540), (963, 539), (963, 539), (963, 539), (963, 539), (964, 539), (966, 538), (966, 538), (966, 537), (968, 534), (969, 529), (969, 526), (969, 522), (970, 517), (971, 513), (971, 508), (971, 503), (972, 490), (972, 486), (972, 480), (972, 473), (972, 454), (968, 438), (963, 424), (955, 406), (932, 365), (918, 343), (907, 329), (897, 314), (884, 298), (880, 293), (876, 287), (871, 279), (866, 265), (864, 259), (863, 250), (861, 243), (859, 228), (859, 220), (859, 211), (859, 205), (860, 194), (861, 190), (862, 186), (865, 179), (871, 170), (873, 165), (874, 162), (875, 159), (877, 147)]",258.07460919228436,"[1, 9, 7, 3, 4, 2, 8, 5, 6]","(0, 0.25)",THI010C,THI,C,English,Tue Sep 04 11:28:50 2018,Mouse
1,2,3,0,15,4,5,0,-1300,970,330,140,0,500,200,8000,"[(960, 540), (960, 540), (960, 540), (960, 540), (960, 540), (960, 540), (960, 540), (960, 540), (960, 540), (960, 540), (960, 540), (960, 540), (960, 540), (960, 540), (960, 540), (960, 540), (960, 540), (960, 540), (960, 540), (960, 540), (960, 540), (960, 540), (960, 540), (960, 540), (960, 540), (960, 540), (960, 540), (960, 540), (960, 540), (960, 540), (960, 540), (960, 540), (960, 540), (960, 540), (960, 540), (960, 540), (960, 540), (960, 540), (960, 540), (960, 540), (960, 540), (960, 540), (960, 540), (960, 540), (960, 540), (960, 540), (960, 540), (960, 540), (960, 540), (960, 540), (960, 540), (960, 540), (960, 540), (960, 540), (960, 540), (960, 540), (960, 540), (960, 540), (960, 540), (960, 540), (960, 540), (960, 540), (960, 540), (960, 540), (960, 540), (960, 540), (960, 540), (960, 540), (960, 540), (960, 540), (960, 540), (960, 540), (960, 540), (960, 540), (960, 540), (960, 540), (960, 540), (960, 540), (960, 540), (960, 540), (960, 540), (960, 540), (960, 540), (960, 540), (960, 540), (960, 540), (960, 540), (960, 540), (960, 540), (960, 540), (960, 540), (960, 540), (960, 540), (960, 540), (960, 540), (960, 540), (960, 539), (960, 539), (962, 537), (963, 536), (963, 536), (964, 534), (969, 529), (971, 528), (976, 522), (981, 516), (991, 501), (998, 492), (1001, 485), (1007, 479), (1017, 464), (1023, 453), (1030, 440), (1037, 429), (1052, 403), (1059, 390), (1068, 369), (1086, 336), (1107, 298), (1112, 290), (1117, 282), (1123, 271), (1136, 250), (1141, 242), (1145, 238), (1149, 230), (1156, 219), (1159, 211), (1164, 202), (1168, 194)]",301.01243602716846,"[1, 9, 7, 3, 4, 2, 8, 5, 6]","(0, 0.25)",THI010C,THI,C,English,Tue Sep 04 11:28:50 2018,Mouse
1,2,3,0,16,6,6,1,670,240,430,141,0,500,200,8000,"[(960, 540), (960, 540), (960, 540), (960, 540), (960, 540), (960, 540), (960, 540), (960, 540), (960, 540), (960, 540), (960, 540), (960, 540), (960, 540), (960, 540), (960, 540), (960, 540), (960, 540), (960, 540), (960, 540), (960, 540), (960, 540), (960, 540), (960, 540), (961, 542), (961, 542), (963, 543), (965, 544), (968, 545), (973, 545), (976, 545), (980, 545), (985, 545), (989, 545), (994, 545), (997, 544), (1006, 542), (1012, 539), (1016, 538), (1025, 536), (1043, 527), (1055, 522), (1068, 516), (1078, 510), (1108, 495), (1114, 491), (1123, 485), (1129, 481), (1140, 475), (1143, 474), (1146, 472), (1148, 471), (1157, 469), (1162, 467), (1170, 466), (1177, 463), (1198, 457), (1211, 455), (1225, 450), (1239, 447), (1268, 439), (1281, 438), (1296, 436), (1307, 434), (1326, 434), (1335, 432), (1343, 432), (1350, 429)]",344.1128314972361,"[1, 9, 7, 3, 4, 2, 8, 5, 6]","(0, 0.25)",THI010C,THI,C,English,Tue Sep 04 11:28:50 2018,Mouse
1,2,3,0,17,8,8,1,370,20,350,141,0,500,200,8000,"[(959, 540), (958, 540), (958, 540), (958, 540), (958, 540), (958, 540), (957, 540), (955, 538), (954, 538), (953, 536), (952, 534), (951, 532), (951, 530), (951, 528), (948, 523), (947, 521), (944, 518), (942, 515), (933, 504), (929, 497), (924, 490), (922, 485), (917, 464), (912, 449), (909, 437), (905, 421), (894, 384), (887, 362), (883, 348), (880, 332), (869, 286), (869, 258), (867, 237), (865, 219), (866, 182), (868, 166), (869, 149)]",256.8984083893067,"[1, 9, 7, 3, 4, 2, 8, 5, 6]","(0, 0.25)",THI010C,THI,C,English,Tue Sep 04 11:28:50 2018,Mouse
1,2,3,0,18,4,4,1,2730,2510,220,140,0,500,200,8000,"[(960, 540), (960, 540), (960, 540), (960, 540), (960, 540), (960, 540), (960, 540), (960, 540), (960, 540), (960, 540), (960, 540), (960, 540), (960, 540), (960, 540), (960, 540), (960, 540), (960, 540), (960, 540), (960, 540), (960, 540), (960, 540), (960, 540), (960, 540), (960, 540), (960, 540), (960, 540), (960, 540), (960, 540), (960, 540), (960, 540), (960, 540), (960, 540), (960, 540), (960, 540), (960, 540), (960, 540), (960, 540), (960, 540), (960, 540), (960, 540), (960, 540), (960, 540), (960, 540), (960, 540), (960, 540), (960, 540), (960, 540), (960, 540), (960, 540), (960, 540), (960, 540), (960, 540), (960, 540), (960, 540), (960, 540), (960, 540), (960, 540), (960, 540), (960, 540), (960, 540), (960, 540), (960, 540), (960, 540), (960, 540), (960, 540), (960, 540), (960, 540), (960, 540), (960, 540), (960, 540), (960, 540), (960, 540), (960, 540), (960, 540), (960, 540), (960, 540), (960, 540), (960, 540), (960, 540), (960, 540), (960, 540), (960, 540), (960, 540), (960, 540), (960, 540), (960, 540), (960, 540), (960, 540), (960, 540), (960, 540), (960, 540), (960, 540), (960, 540), (960, 540), (960, 540), (960, 540), (960, 540), (960, 540), (960, 540), (960, 540), (960, 540), (960, 540), (960, 540), (960, 540), (960, 540), (960, 540), (960, 540), (960, 540), (960, 540), (960, 540), (960, 540), (960, 540), (960, 540), (960, 540), (960, 540), (960, 540), (960, 540), (960, 540), (960, 540), (960, 540), (960, 540), (960, 540), (960, 540), (960, 540), (960, 540), (960, 540), (960, 540), (960, 540), (960, 540), (960, 540), (960, 540), (960, 540), (960, 540), (960, 540), (960, 540), (960, 540), (960, 540), (960, 540), (960, 540), (960, 540), (960, 540), (960, 540), (960, 540), (960, 540), (960, 540), (960, 540), (960, 540), (960, 540), (960, 540), (960, 540), (960, 540), (960, 540), (960, 540), (960, 540), (960, 540), (960, 540), (960, 540), (960, 540), (960, 540), (960, 540), (960, 540), (960, 540), (960, 540), (960, 540), (960, 540), (960, 540), (960, 540), (960, 540), (960, 540), (960, 540), (960, 540), (960, 540), (960, 540), (960, 540), (960, 540), (960, 540), (960, 540), (960, 540), (960, 540), (960, 540), (960, 540), (960, 540), (960, 540), (960, 540), (960, 540), (960, 540), (960, 540), (960, 540), (960, 540), (960, 540), (960, 540), (960, 540), (960, 540), (960, 540), (960, 540), (960, 540), (960, 540), (960, 540), (960, 540), (960, 540), (960, 540), (960, 540), (960, 540), (960, 540), (960, 540), (960, 540), (960, 540), (960, 540), (960, 540), (960, 540), (960, 540), (960, 540), (960, 540), (960, 540), (960, 540), (960, 540), (960, 540), (960, 540), (960, 540), (960, 540), (960, 540), (960, 540), (960, 540), (960, 540), (960, 540), (960, 540), (960, 540), (960, 540), (960, 540), (960, 540), (960, 540), (960, 540), (960, 540), (960, 540), (960, 540), (960, 540), (960, 540), (960, 540), (960, 540), (960, 540), (960, 540), (960, 540), (960, 540), (960, 540), (960, 540), (960, 540), (960, 540), (960, 540), (960, 540), (960, 540), (960, 541), (960, 543), (959, 543), (957, 544), (948, 549), (942, 552), (937, 553), (935, 555), (927, 558), (920, 561), (911, 563), (899, 566), (871, 572), (852, 573), (831, 578), (810, 579), (738, 588), (700, 588), (674, 588), (644, 588), (588, 588), (571, 588), (557, 588)]",173.20768767771963,"[1, 9, 7, 3, 4, 2, 8, 5, 6]","(0, 0.25)",THI010C,THI,C,English,Tue Sep 04 11:28:50 2018,Mouse
1,2,3,0,19,9,9,1,1938,418,1520,139,0,500,200,8000,"[(960, 540), (960, 540), (960, 540), (960, 540), (960, 540), (960, 540), (960, 540), (960, 540), (960, 540), (960, 540), (960, 540), (960, 540), (960, 540), (960, 540), (960, 540), (960, 540), (960, 540), (960, 540), (960, 540), (960, 540), (960, 540), (960, 540), (960, 540), (960, 540), (960, 540), (960, 540), (960, 540), (960, 540), (960, 540), (960, 540), (960, 540), (960, 540), (960, 540), (960, 540), (960, 540), (960, 540), (960, 540), (960, 540), (960, 540), (960, 540), (960, 540), (958, 542), (958, 543), (957, 543), (957, 545), (956, 547), (955, 547), (955, 548), (955, 548), (955, 549), (955, 550), (955, 551), (955, 551), (954, 552), (954, 552), (953, 554), (953, 554), (952, 556), (952, 556), (952, 557), (952, 557), (952, 558), (952, 559), (952, 559), (952, 560), (952, 560), (951, 562), (951, 562), (951, 562), (951, 562), (951, 562), (951, 562), (951, 562), (951, 563), (951, 564), (951, 564), (951, 565), (950, 565), (950, 566), (949, 567), (946, 570), (945, 572), (945, 572), (945, 572), (945, 573), (945, 573), (945, 573), (944, 574), (944, 574), (944, 574), (944, 574), (944, 574), (944, 574), (942, 578), (941, 580), (939, 583), (937, 585), (934, 588), (934, 590), (934, 592), (933, 593), (933, 593), (933, 593), (933, 593), (932, 594), (932, 594), (932, 595), (932, 595), (932, 595), (931, 600), (931, 602), (931, 605), (930, 607), (930, 613), (930, 616), (928, 619), (928, 621), (927, 625), (927, 627), (927, 628), (927, 629), (927, 632), (927, 632), (927, 634), (927, 635), (927, 637), (927, 637), (927, 638), (927, 639), (927, 641), (927, 644), (927, 648), (927, 654), (927, 668), (927, 675), (926, 684), (925, 693), (922, 712), (922, 719), (921, 726), (920, 736), (917, 757), (917, 765), (917, 777), (916, 789), (912, 814), (912, 824), (912, 829), (912, 833), (912, 841), (912, 842), (912, 843), (912, 845), (912, 846), (912, 847), (912, 847), (912, 848), (912, 848), (912, 848), (912, 848), (912, 848), (912, 848), (912, 848), (915, 845), (918, 843), (925, 837), (931, 833), (937, 830), (941, 828), (946, 824), (948, 824), (950, 823), (951, 821), (954, 821), (954, 821), (954, 821), (956, 821), (959, 821), (962, 822), (966, 823), (970, 825), (983, 828), (990, 830), (999, 836), (1007, 841), (1035, 852), (1048, 856), (1065, 861), (1078, 864), (1103, 871), (1113, 874), (1124, 877), (1137, 881), (1162, 888)]",59.86655895418449,"[1, 9, 7, 3, 4, 2, 8, 5, 6]","(0, 0.25)",THI010C,THI,C,English,Tue Sep 04 11:28:50 2018,Mouse
1,2,3,0,20,1,1,1,660,510,150,138,0,500,200,8000,"[(960, 540), (960, 540), (960, 540), (960, 540), (960, 540), (960, 540), (960, 540), (960, 540), (960, 540), (960, 540), (960, 540), (960, 540), (960, 540), (960, 540), (960, 540), (960, 540), (960, 540), (960, 540), (960, 540), (960, 540), (960, 540), (960, 540), (960, 540), (960, 540), (960, 540), (960, 540), (960, 540), (960, 540), (960, 540), (960, 540), (960, 540), (960, 540), (960, 540), (960, 540), (960, 540), (960, 540), (960, 540), (960, 540), (960, 540), (960, 540), (960, 540), (960, 540), (960, 540), (960, 540), (960, 540), (960, 540), (960, 540), (960, 540), (960, 540), (960, 540), (963, 542), (970, 546), (977, 549), (989, 554), (1018, 567), (1042, 578), (1068, 588), (1094, 598), (1145, 617), (1169, 628), (1198, 640), (1226, 648), (1281, 663), (1311, 668), (1328, 669), (1348, 669)]",18.390636550617717,"[1, 9, 7, 3, 4, 2, 8, 5, 6]","(0, 0.25)",THI010C,THI,C,English,Tue Sep 04 11:28:50 2018,Mouse
1,2,3,0,21,6,6,1,1781,341,1440,137,0,500,200,8000,"[(960, 540), (960, 540), (960, 540), (960, 540), (960, 540), (960, 540), (960, 540), (960, 540), (960, 540), (960, 540), (960, 540), (960, 540), (960, 540), (960, 540), (960, 540), (960, 540), (960, 540), (960, 540), (960, 540), (960, 540), (960, 540), (960, 540), (960, 540), (960, 540), (960, 540), (960, 540), (960, 540), (960, 540), (960, 540), (960, 540), (960, 540), (960, 540), (960, 540), (960, 540), (959, 540), (959, 540), (959, 540), (959, 540), (959, 540), (959, 540), (959, 540), (959, 540), (959, 540), (959, 540), (957, 540), (957, 540), (957, 540), (957, 539), (957, 537), (957, 537), (957, 536), (957, 536), (957, 535), (957, 534), (957, 534), (956, 531), (948, 527), (948, 526), (948, 526), (948, 526), (948, 526), (948, 526), (948, 526), (948, 526), (948, 526), (948, 526), (948, 526), (948, 526), (948, 526), (948, 526), (948, 526), (948, 526), (948, 526), (948, 526), (948, 526), (948, 526), (948, 526), (948, 526), (948, 526), (948, 526), (948, 526), (948, 526), (948, 526), (948, 526), (948, 526), (948, 526), (948, 526), (948, 526), (948, 526), (948, 526), (948, 526), (948, 526), (948, 526), (948, 526), (948, 526), (948, 526), (948, 526), (948, 526), (948, 526), (949, 525), (949, 525), (949, 525), (949, 524), (950, 523), (953, 523), (953, 523), (954, 523), (954, 523), (954, 523), (954, 523), (954, 523), (954, 523), (954, 523), (954, 523), (954, 523), (954, 523), (954, 523), (954, 523), (954, 523), (954, 523), (954, 523), (954, 523), (954, 523), (954, 523), (954, 523), (954, 523), (954, 523), (955, 523), (955, 523), (955, 523), (955, 523), (955, 523), (957, 522), (958, 520), (960, 516), (966, 512), (969, 510), (977, 506), (985, 505), (999, 501), (1007, 499), (1015, 499), (1021, 497), (1026, 497), (1035, 497), (1037, 497), (1038, 497), (1040, 497), (1042, 497), (1044, 496), (1045, 496), (1049, 494), (1057, 492), (1060, 491), (1067, 487), (1080, 483), (1089, 481), (1099, 477), (1107, 475), (1122, 469), (1156, 451), (1167, 445), (1178, 438), (1187, 429), (1204, 421), (1213, 418), (1218, 416), (1225, 413), (1237, 410), (1243, 407), (1251, 405), (1258, 402), (1288, 395), (1295, 394), (1311, 390), (1319, 389), (1328, 386), (1336, 384)]",337.4667499209957,"[1, 9, 7, 3, 4, 2, 8, 5, 6]","(0, 0.25)",THI010C,THI,C,English,Tue Sep 04 11:28:50 2018,Mouse
1,2,3,0,22,1,1,1,619,429,190,136,0,500,200,8000,"[(960, 540), (960, 540), (960, 540), (960, 540), (960, 540), (960, 540), (960, 540), (960, 540), (960, 540), (960, 540), (960, 540), (960, 540), (960, 540), (960, 540), (960, 540), (960, 540), (960, 540), (960, 540), (960, 540), (960, 540), (960, 540), (960, 540), (960, 540), (960, 540), (960, 540), (960, 540), (960, 540), (960, 540), (960, 540), (960, 540), (960, 540), (960, 540), (960, 540), (960, 540), (960, 540), (960, 540), (960, 540), (960, 540), (960, 540), (960, 540), (960, 540), (960, 540), (962, 540), (975, 548), (986, 553), (1001, 561), (1015, 570), (1062, 588), (1085, 597), (1106, 608), (1121, 614), (1152, 627), (1167, 635), (1179, 640), (1191, 646), (1223, 660), (1239, 666), (1254, 673), (1272, 679), (1303, 689), (1317, 693), (1333, 697)]",22.826786650740424,"[1, 9, 7, 3, 4, 2, 8, 5, 6]","(0, 0.25)",THI010C,THI,C,English,Tue Sep 04 11:28:50 2018,Mouse
1,2,3,0,23,8,3,0,-1550,1370,180,135,0,500,200,8000,"[(960, 540), (960, 540), (960, 540), (960, 540), (960, 540), (960, 540), (960, 540), (960, 540), (960, 540), (960, 540), (960, 540), (960, 540), (960, 540), (960, 540), (960, 540), (960, 540), (960, 540), (960, 540), (960, 540), (960, 540), (960, 540), (960, 540), (960, 540), (960, 540), (960, 540), (960, 540), (960, 540), (960, 540), (960, 540), (960, 540), (960, 540), (960, 540), (960, 540), (960, 540), (960, 540), (960, 540), (960, 540), (960, 540), (960, 540), (960, 540), (960, 540), (960, 540), (960, 540), (960, 540), (960, 540), (960, 540), (960, 540), (960, 540), (960, 540), (960, 540), (960, 540), (960, 540), (960, 540), (960, 540), (960, 540), (960, 540), (960, 540), (960, 540), (960, 540), (960, 540), (960, 540), (960, 540), (960, 540), (960, 540), (960, 540), (960, 540), (960, 540), (960, 540), (960, 540), (960, 540), (960, 540), (960, 540), (960, 540), (960, 540), (960, 540), (960, 540), (960, 540), (960, 540), (960, 540), (960, 540), (960, 540), (960, 540), (960, 540), (960, 540), (960, 540), (960, 540), (960, 540), (960, 540), (960, 540), (960, 540), (960, 540), (960, 540), (960, 540), (960, 540), (960, 540), (960, 540), (960, 540), (960, 540), (960, 540), (960, 540), (960, 540), (960, 540), (960, 540), (960, 540), (960, 540), (960, 540), (960, 540), (960, 540), (960, 540), (960, 540), (960, 540), (960, 540), (960, 540), (960, 540), (960, 540), (960, 540), (960, 540), (960, 540), (960, 540), (960, 540), (960, 540), (960, 540), (960, 540), (960, 540), (960, 540), (960, 540), (960, 540), (960, 540), (960, 540), (960, 540), (960, 540), (960, 540), (960, 540), (960, 540), (960, 540), (960, 540), (954, 544), (947, 548), (939, 554), (934, 558), (918, 568), (912, 574), (903, 582), (898, 587), (885, 599), (879, 608), (872, 618), (860, 634), (812, 682), (788, 706), (767, 726), (743, 746), (699, 783), (681, 800), (666, 814)]",137.0166238746231,"[1, 9, 7, 3, 4, 2, 8, 5, 6]","(0, 0.25)",THI010C,THI,C,English,Tue Sep 04 11:28:50 2018,Mouse
1,2,3,0,24,1,1,1,388,38,350,136,0,500,200,8000,"[(960, 540), (960, 540), (960, 540), (960, 542), (960, 543), (960, 544), (960, 544), (960, 544), (960, 545), (960, 545), (960, 545), (960, 545), (960, 545), (960, 545), (960, 545), (961, 547), (961, 547), (961, 547), (961, 547), (962, 547), (963, 547), (963, 547), (964, 548), (966, 549), (967, 549), (968, 549), (971, 550), (977, 551), (981, 553), (990, 556), (1001, 560), (1039, 577), (1065, 587), (1097, 603), (1129, 617), (1209, 651), (1254, 671), (1305, 691), (1345, 708)]",23.574706201912615,"[1, 9, 7, 3, 4, 2, 8, 5, 6]","(0, 0.25)",THI010C,THI,C,English,Tue Sep 04 11:28:50 2018,Mouse
1,2,3,0,25,7,7,1,2240,1959,281,136,0,500,200,8000,"[(960, 540), (960, 540), (960, 540), (960, 540), (960, 540), (960, 540), (960, 540), (960, 540), (960, 540), (960, 540), (960, 540), (960, 540), (960, 540), (960, 540), (960, 540), (960, 540), (960, 540), (960, 540), (960, 540), (960, 540), (960, 540), (960, 540), (960, 540), (960, 540), (960, 540), (960, 540), (960, 540), (960, 540), (960, 540), (960, 540), (960, 540), (960, 540), (960, 540), (960, 540), (960, 540), (960, 540), (960, 540), (960, 540), (960, 540), (960, 540), (960, 540), (960, 540), (960, 540), (960, 540), (960, 540), (960, 540), (960, 540), (960, 540), (960, 540), (960, 540), (960, 540), (960, 540), (960, 540), (960, 540), (960, 540), (960, 540), (960, 540), (960, 540), (960, 540), (960, 540), (960, 540), (960, 540), (960, 540), (960, 540), (960, 540), (960, 540), (960, 540), (960, 540), (960, 540), (960, 540), (960, 540), (960, 540), (960, 540), (960, 540), (960, 540), (960, 540), (960, 540), (960, 540), (960, 540), (960, 540), (960, 540), (960, 540), (960, 540), (960, 540), (960, 540), (960, 540), (960, 540), (960, 540), (960, 540), (960, 540), (960, 540), (960, 540), (960, 540), (960, 540), (960, 540), (960, 540), (960, 540), (960, 540), (960, 540), (960, 540), (960, 540), (960, 540), (960, 540), (960, 540), (960, 540), (960, 540), (960, 540), (960, 540), (960, 540), (960, 540), (960, 540), (960, 540), (960, 540), (960, 540), (960, 540), (960, 540), (960, 540), (960, 540), (960, 540), (960, 540), (960, 540), (960, 540), (960, 540), (960, 540), (960, 540), (960, 540), (960, 540), (960, 540), (960, 540), (960, 540), (960, 540), (960, 540), (960, 540), (960, 540), (960, 540), (960, 540), (960, 540), (960, 540), (960, 540), (960, 540), (960, 540), (960, 540), (960, 540), (960, 540), (960, 540), (960, 540), (960, 540), (960, 540), (960, 540), (960, 540), (960, 540), (960, 540), (960, 540), (960, 540), (960, 540), (960, 540), (960, 540), (960, 540), (960, 540), (960, 540), (960, 540), (960, 540), (960, 540), (960, 540), (960, 540), (960, 540), (960, 540), (960, 540), (960, 540), (960, 540), (960, 540), (960, 540), (960, 540), (960, 540), (960, 540), (960, 540), (960, 540), (960, 540), (960, 540), (960, 540), (960, 540), (960, 540), (960, 540), (960, 540), (960, 540), (960, 540), (960, 540), (960, 540), (960, 540), (960, 540), (960, 540), (960, 540), (960, 540), (960, 540), (960, 540), (968, 539), (968, 539), (968, 539), (968, 539), (968, 539), (967, 539), (966, 540), (965, 541), (959, 547), (956, 553), (954, 558), (949, 567), (945, 582), (943, 589), (943, 600), (943, 611), (943, 637), (943, 652), (943, 665), (939, 687), (932, 732), (929, 756), (920, 784), (913, 809), (901, 851), (896, 868), (891, 890), (884, 910), (867, 956)]",102.60170306360321,"[1, 9, 7, 3, 4, 2, 8, 5, 6]","(0, 0.25)",THI010C,THI,C,English,Tue Sep 04 11:28:50 2018,Mouse
1,2,3,0,26,7,3,0,-2969,899,2070,135,0,500,200,8000,"[(960, 540), (960, 540), (960, 540), (960, 540), (960, 540), (960, 540), (960, 540), (960, 540), (960, 540), (960, 540), (960, 540), (960, 540), (960, 540), (960, 540), (960, 540), (960, 540), (960, 540), (960, 540), (960, 540), (960, 540), (960, 540), (960, 540), (960, 540), (960, 540), (960, 540), (960, 540), (960, 540), (960, 540), (960, 540), (960, 540), (960, 540), (960, 540), (960, 540), (960, 540), (960, 540), (960, 540), (960, 540), (960, 540), (960, 540), (960, 540), (960, 540), (960, 540), (960, 540), (960, 540), (960, 540), (960, 540), (960, 540), (960, 540), (960, 540), (960, 540), (960, 540), (960, 540), (960, 540), (960, 540), (960, 540), (960, 540), (960, 540), (960, 540), (960, 540), (960, 540), (960, 540), (960, 540), (960, 540), (960, 540), (960, 540), (960, 540), (960, 540), (960, 540), (960, 540), (960, 540), (960, 540), (960, 540), (960, 540), (960, 540), (960, 540), (960, 540), (960, 540), (960, 540), (960, 540), (960, 540), (960, 540), (960, 540), (960, 540), (960, 540), (960, 540), (960, 540), (960, 540), (960, 540), (960, 540), (960, 541), (960, 541), (960, 541), (960, 541), (960, 542), (960, 542), (960, 542), (960, 543), (960, 543), (960, 543), (960, 543), (960, 543), (960, 543), (960, 543), (960, 543), (960, 544), (960, 544), (960, 544), (960, 544), (960, 544), (961, 545), (961, 545), (961, 545), (961, 545), (961, 546), (961, 547), (961, 547), (961, 548), (962, 550), (962, 550), (962, 551), (962, 551), (962, 552), (962, 553), (962, 554), (962, 554), (962, 555), (963, 555), (963, 556), (963, 556), (963, 556), (963, 556), (963, 556), (963, 556), (963, 556), (963, 556), (963, 556), (963, 556), (963, 556), (963, 556), (963, 556), (963, 556), (963, 556), (963, 556), (963, 556), (963, 556), (963, 556), (963, 556), (963, 556), (963, 556), (963, 556), (963, 556), (963, 556), (963, 556), (963, 556), (963, 556), (963, 556), (963, 556), (963, 556), (963, 556), (963, 556), (963, 556), (963, 556), (963, 556), (963, 556), (963, 556), (963, 556), (963, 557), (963, 557), (963, 557), (963, 557), (963, 557), (963, 557), (962, 559), (961, 559), (961, 559), (961, 559), (961, 559), (959, 559), (957, 560), (957, 560), (956, 560), (953, 561), (953, 561), (952, 562), (952, 562), (951, 562), (951, 562), (951, 562), (950, 562), (949, 562), (948, 562), (948, 562), (947, 563), (947, 563), (947, 563), (947, 563), (947, 563), (947, 563), (947, 563), (947, 563), (947, 563), (946, 563), (946, 563), (946, 563), (946, 563), (946, 563), (946, 563), (946, 563), (946, 563), (946, 563), (946, 563), (946, 563), (946, 563), (946, 563), (945, 564), (945, 564), (945, 564), (945, 564), (944, 564), (944, 564), (944, 564), (943, 565), (942, 565), (942, 565), (942, 565), (941, 566), (941, 566), (941, 567), (941, 567), (941, 567), (941, 567), (941, 567), (941, 567), (941, 567), (941, 567), (941, 567), (941, 567), (941, 567), (940, 568), (940, 568), (940, 568), (940, 568), (940, 568), (940, 568), (940, 568), (940, 568), (940, 568), (940, 568), (940, 568), (940, 568), (940, 568), (940, 568), (940, 568), (940, 568), (940, 568), (940, 568), (940, 568), (939, 568), (939, 568), (939, 568), (939, 568), (939, 568), (939, 568), (938, 569), (938, 569), (938, 569), (938, 569), (937, 570), (937, 570), (935, 572), (933, 572), (931, 575), (927, 576), (913, 584), (906, 588), (900, 593), (894, 597), (881, 609), (874, 617), (865, 623), (856, 630), (837, 642), (824, 651), (812, 657), (797, 665), (771, 677), (758, 683), (747, 691), (738, 699), (719, 721), (711, 737), (706, 749), (700, 766), (688, 791), (680, 802), (671, 814), (662, 823)]",136.4789084640407,"[1, 9, 7, 3, 4, 2, 8, 5, 6]","(0, 0.25)",THI010C,THI,C,English,Tue Sep 04 11:28:50 2018,Mouse
1,2,3,0,27,9,6,0,-1439,199,1240,136,0,500,200,8000,"[(960, 540), (960, 540), (960, 540), (960, 540), (960, 540), (960, 540), (960, 540), (960, 540), (960, 540), (960, 540), (960, 540), (960, 540), (960, 540), (960, 540), (960, 540), (960, 540), (960, 540), (960, 540), (960, 540), (960, 541), (960, 541), (961, 541), (961, 541), (962, 541), (962, 541), (963, 541), (963, 541), (964, 541), (965, 541), (965, 541), (966, 541), (971, 541), (972, 541), (973, 540), (975, 540), (977, 538), (979, 538), (980, 537), (982, 536), (982, 536), (982, 536), (982, 536), (982, 536), (982, 536), (982, 536), (982, 536), (982, 536), (982, 536), (982, 536), (982, 536), (982, 536), (982, 536), (982, 536), (983, 536), (983, 536), (983, 536), (983, 536), (983, 536), (983, 536), (983, 536), (983, 536), (983, 536), (983, 536), (983, 536), (983, 536), (983, 536), (983, 536), (983, 536), (983, 536), (983, 536), (983, 536), (983, 536), (983, 536), (983, 536), (983, 536), (983, 536), (983, 536), (983, 536), (983, 536), (983, 536), (983, 536), (983, 536), (983, 536), (983, 536), (983, 536), (983, 536), (983, 536), (983, 536), (983, 536), (983, 536), (983, 536), (983, 536), (983, 536), (983, 536), (983, 536), (984, 536), (984, 536), (984, 536), (984, 536), (985, 536), (985, 536), (987, 536), (988, 536), (990, 536), (992, 535), (992, 535), (994, 534), (994, 534), (994, 534), (994, 534), (994, 534), (994, 534), (994, 534), (994, 534), (994, 534), (994, 534), (994, 534), (994, 534), (994, 534), (994, 534), (994, 534), (994, 534), (994, 534), (994, 534), (994, 534), (994, 534), (994, 534), (994, 534), (994, 534), (994, 534), (994, 534), (994, 534), (994, 534), (994, 534), (994, 534), (997, 534), (1004, 533), (1015, 528), (1036, 518), (1122, 491), (1170, 471), (1221, 451), (1275, 428), (1374, 388)]",339.83930154930613,"[1, 9, 7, 3, 4, 2, 8, 5, 6]","(0, 0.25)",THI010C,THI,C,English,Tue Sep 04 11:28:50 2018,Mouse
1,2,3,0,28,6,6,1,3308,1118,2190,137,0,500,200,8000,"[(960, 540), (960, 540), (960, 540), (960, 540), (960, 540), (960, 540), (960, 540), (960, 540), (960, 540), (960, 540), (960, 540), (960, 540), (960, 540), (960, 540), (960, 540), (960, 540), (960, 540), (960, 540), (960, 540), (960, 540), (960, 540), (960, 540), (960, 540), (960, 540), (960, 540), (960, 540), (960, 540), (960, 540), (960, 540), (960, 540), (960, 540), (960, 540), (960, 540), (960, 540), (960, 540), (960, 540), (960, 540), (960, 540), (960, 540), (960, 540), (960, 540), (960, 540), (960, 540), (960, 540), (960, 540), (960, 540), (960, 540), (960, 540), (960, 540), (960, 540), (960, 540), (960, 540), (960, 540), (960, 540), (960, 540), (960, 540), (960, 540), (960, 540), (960, 540), (960, 540), (960, 540), (960, 540), (960, 540), (960, 540), (960, 540), (960, 540), (960, 540), (960, 540), (960, 540), (960, 540), (960, 540), (960, 540), (960, 540), (960, 540), (960, 540), (960, 540), (960, 540), (960, 540), (960, 540), (960, 540), (960, 540), (960, 540), (960, 540), (960, 540), (960, 540), (960, 540), (960, 540), (960, 540), (960, 540), (960, 540), (960, 540), (960, 540), (960, 540), (960, 540), (960, 540), (960, 540), (960, 540), (960, 540), (960, 540), (960, 540), (960, 540), (960, 540), (960, 540), (960, 540), (960, 540), (960, 540), (960, 540), (960, 540), (960, 540), (960, 540), (960, 540), (957, 541), (957, 541), (955, 541), (954, 541), (953, 543), (953, 543), (951, 543), (951, 543), (950, 543), (949, 543), (949, 543), (949, 543), (949, 543), (948, 543), (948, 543), (948, 543), (948, 543), (948, 543), (948, 543), (948, 543), (948, 543), (948, 543), (948, 543), (948, 543), (948, 543), (948, 543), (948, 543), (948, 543), (948, 543), (948, 543), (948, 543), (948, 543), (948, 543), (948, 543), (948, 543), (948, 543), (948, 543), (948, 543), (948, 543), (948, 543), (948, 543), (948, 543), (948, 543), (948, 543), (948, 543), (948, 543), (948, 543), (948, 543), (948, 543), (948, 543), (948, 543), (948, 543), (948, 543), (948, 543), (948, 543), (948, 543), (948, 543), (948, 543), (948, 543), (948, 543), (948, 543), (948, 543), (948, 543), (948, 543), (948, 543), (948, 543), (948, 543), (948, 543), (948, 543), (948, 543), (948, 543), (948, 543), (948, 543), (948, 543), (948, 543), (948, 543), (948, 543), (948, 543), (948, 543), (948, 543), (948, 543), (948, 543), (948, 543), (948, 543), (948, 543), (948, 543), (948, 543), (948, 543), (948, 543), (948, 543), (948, 543), (948, 543), (948, 543), (948, 543), (948, 543), (948, 543), (948, 543), (948, 543), (948, 543), (948, 543), (948, 543), (948, 543), (948, 543), (948, 543), (948, 543), (948, 543), (948, 543), (948, 543), (948, 543), (948, 543), (948, 543), (948, 543), (948, 543), (948, 543), (948, 543), (948, 543), (948, 543), (948, 543), (948, 543), (948, 543), (948, 543), (948, 543), (948, 543), (948, 543), (948, 543), (948, 543), (948, 543), (948, 543), (948, 543), (948, 543), (948, 543), (948, 543), (948, 543), (948, 543), (948, 543), (948, 543), (948, 543), (948, 543), (948, 543), (948, 543), (948, 543), (948, 543), (948, 543), (948, 543), (948, 543), (948, 543), (948, 543), (948, 543), (948, 543), (948, 543), (948, 543), (948, 543), (948, 543), (948, 543), (948, 543), (948, 543), (948, 543), (948, 543), (948, 543), (948, 543), (948, 543), (948, 543), (948, 543), (948, 543), (948, 543), (948, 543), (948, 543), (948, 543), (948, 543), (948, 543), (948, 543), (948, 543), (948, 543), (948, 543), (948, 543), (948, 543), (948, 543), (948, 543), (948, 543), (948, 543), (948, 543), (948, 543), (948, 543), (948, 543), (948, 543), (948, 543), (948, 543), (948, 543), (954, 543), (958, 542), (963, 538), (968, 537), (979, 533), (983, 532), (985, 532), (987, 530), (991, 529), (994, 529), (998, 527), (1003, 524), (1014, 518), (1024, 512), (1034, 508), (1045, 503), (1067, 496), (1079, 492), (1094, 487), (1107, 484), (1142, 474), (1157, 469), (1171, 466), (1182, 461), (1205, 451), (1217, 446), (1234, 440), (1249, 433), (1287, 418), (1308, 409), (1331, 400), (1352, 389)]",338.933111547903,"[1, 9, 7, 3, 4, 2, 8, 5, 6]","(0, 0.25)",THI010C,THI,C,English,Tue Sep 04 11:28:50 2018,Mouse
1,2,3,0,29,3,3,1,791,120,671,137,0,500,200,8000,"[(960, 540), (960, 540), (960, 540), (960, 540), (960, 540), (960, 540), (960, 540), (960, 540), (960, 540), (960, 540), (960, 540), (959, 540), (958, 540), (957, 541), (957, 541), (955, 542), (954, 542), (954, 542), (953, 543), (953, 543), (953, 543), (953, 543), (953, 543), (953, 543), (952, 544), (952, 546), (951, 546), (950, 548), (949, 550), (948, 551), (947, 552), (946, 554), (944, 556), (943, 557), (942, 559), (940, 561), (939, 563), (937, 563), (934, 565), (929, 569), (925, 572), (921, 574), (914, 578), (898, 587), (889, 592), (881, 597), (869, 604), (852, 614), (844, 618), (837, 625), (826, 633), (799, 650), (782, 665), (767, 677), (756, 684), (740, 697), (734, 702), (729, 707), (721, 714), (706, 727), (697, 731), (691, 734), (685, 737), (675, 741), (671, 744), (666, 748), (662, 753), (656, 764), (654, 771), (651, 776), (650, 779), (649, 783), (648, 786), (648, 787), (648, 787), (648, 789), (648, 790), (648, 790), (648, 791)]",141.18376839952265,"[1, 9, 7, 3, 4, 2, 8, 5, 6]","(0, 0.25)",THI010C,THI,C,English,Tue Sep 04 11:28:50 2018,Mouse
1,2,3,0,30,4,4,1,2898,738,2160,136,0,500,200,8000,"[(960, 540), (960, 540), (960, 540), (960, 540), (960, 540), (960, 540), (960, 540), (960, 540), (960, 540), (960, 540), (960, 540), (960, 540), (960, 540), (960, 540), (960, 540), (960, 540), (960, 540), (960, 540), (960, 540), (960, 540), (960, 540), (960, 540), (960, 540), (960, 540), (960, 540), (960, 540), (960, 540), (960, 540), (960, 540), (960, 540), (960, 540), (960, 540), (960, 540), (960, 540), (960, 540), (960, 540), (960, 540), (960, 540), (960, 540), (960, 540), (960, 540), (960, 540), (960, 540), (960, 540), (960, 540), (960, 540), (960, 540), (960, 540), (960, 540), (960, 540), (960, 540), (960, 540), (960, 540), (960, 540), (960, 540), (960, 540), (960, 540), (960, 540), (960, 540), (960, 540), (960, 540), (960, 540), (960, 540), (960, 540), (960, 540), (960, 540), (960, 540), (960, 540), (960, 540), (960, 540), (960, 540), (960, 540), (960, 540), (959, 541), (957, 542), (956, 542), (956, 542), (956, 542), (956, 542), (956, 542), (956, 542), (956, 542), (956, 542), (956, 542), (956, 542), (956, 542), (956, 542), (956, 542), (956, 542), (956, 542), (956, 543), (956, 543), (956, 543), (956, 543), (956, 543), (956, 543), (956, 543), (956, 543), (956, 543), (956, 543), (956, 543), (956, 543), (956, 543), (956, 543), (956, 543), (956, 543), (956, 543), (956, 543), (956, 543), (956, 543), (956, 543), (956, 543), (956, 543), (956, 543), (956, 543), (956, 543), (956, 543), (956, 543), (956, 543), (956, 543), (956, 543), (956, 543), (956, 543), (956, 543), (956, 543), (956, 543), (956, 543), (956, 543), (956, 543), (956, 543), (956, 543), (956, 543), (956, 543), (956, 543), (956, 543), (956, 543), (956, 543), (956, 543), (956, 543), (956, 543), (956, 543), (956, 543), (956, 543), (956, 543), (956, 543), (956, 543), (956, 543), (956, 543), (956, 543), (956, 543), (956, 543), (956, 543), (956, 543), (956, 543), (956, 543), (956, 543), (956, 543), (956, 543), (956, 543), (956, 543), (956, 543), (956, 543), (956, 543), (956, 543), (956, 543), (956, 543), (956, 543), (956, 543), (956, 543), (956, 543), (956, 543), (956, 543), (956, 543), (956, 543), (956, 543), (956, 543), (956, 543), (956, 543), (956, 543), (956, 543), (956, 543), (956, 543), (956, 543), (956, 543), (956, 543), (956, 543), (956, 543), (956, 543), (956, 543), (956, 543), (956, 543), (956, 543), (956, 543), (956, 543), (956, 543), (956, 543), (956, 543), (956, 543), (956, 543), (956, 543), (956, 543), (956, 543), (956, 543), (956, 543), (956, 543), (956, 543), (956, 543), (956, 543), (956, 543), (956, 543), (956, 543), (956, 543), (956, 543), (956, 543), (956, 543), (956, 543), (956, 543), (956, 543), (956, 543), (956, 543), (956, 543), (956, 543), (956, 543), (956, 543), (956, 543), (956, 543), (956, 543), (956, 543), (956, 543), (956, 543), (956, 543), (956, 543), (956, 543), (956, 543), (956, 543), (956, 543), (956, 543), (956, 543), (956, 543), (956, 543), (956, 543), (956, 543), (956, 543), (956, 543), (956, 543), (956, 543), (956, 543), (956, 543), (954, 543), (953, 543), (952, 544), (951, 544), (950, 544), (948, 544), (948, 544), (947, 544), (945, 546), (944, 546), (942, 546), (941, 546), (937, 546), (935, 546), (933, 546), (930, 546), (923, 546), (918, 546), (909, 547), (900, 547), (880, 547), (869, 547), (857, 547), (842, 547), (812, 547), (798, 547), (785, 549), (774, 549), (753, 549), (741, 549), (725, 549), (702, 549), (657, 549), (644, 549), (627, 549), (614, 549), (592, 546), (582, 545), (575, 544), (568, 543), (561, 542), (559, 542)]",179.71423788312347,"[1, 9, 7, 3, 4, 2, 8, 5, 6]","(0, 0.25)",THI010C,THI,C,English,Tue Sep 04 11:28:50 2018,Mouse
1,2,3,0,31,8,1,0,-1209,319,890,135,0,500,200,8000,"[(960, 540), (960, 540), (960, 540), (960, 540), (960, 540), (960, 540), (960, 540), (960, 540), (960, 540), (960, 540), (960, 540), (960, 540), (960, 540), (960, 540), (960, 540), (960, 540), (960, 540), (960, 540), (960, 540), (960, 540), (960, 540), (960, 540), (960, 540), (960, 540), (960, 540), (960, 540), (960, 540), (960, 540), (960, 540), (960, 540), (960, 540), (959, 540), (959, 540), (955, 540), (955, 540), (954, 540), (954, 540), (950, 538), (950, 538), (950, 538), (950, 538), (949, 536), (949, 536), (949, 534), (950, 532), (952, 530), (953, 528), (954, 527), (954, 526), (954, 526), (954, 526), (954, 526), (954, 526), (954, 526), (954, 526), (954, 526), (954, 526), (954, 526), (954, 526), (954, 526), (954, 526), (954, 526), (954, 526), (954, 525), (954, 525), (954, 525), (954, 525), (954, 525), (954, 525), (954, 525), (954, 525), (954, 525), (953, 525), (952, 525), (951, 525), (948, 525), (943, 525), (937, 528), (921, 534), (912, 539), (906, 543), (896, 549), (895, 551), (894, 551), (894, 551), (894, 551), (894, 551), (894, 551), (894, 551), (897, 548), (902, 543), (907, 538), (912, 534), (921, 526), (927, 523), (931, 520), (937, 516), (944, 513), (948, 512), (951, 511), (953, 510), (959, 509), (961, 509), (964, 509), (966, 509), (972, 512), (976, 516), (984, 521), (993, 528), (1025, 548), (1055, 564), (1090, 584), (1126, 605), (1182, 632), (1210, 642), (1236, 651), (1261, 658), (1300, 663), (1317, 663), (1332, 664), (1350, 664)]",17.63799556229734,"[1, 9, 7, 3, 4, 2, 8, 5, 6]","(0, 0.25)",THI010C,THI,C,English,Tue Sep 04 11:28:50 2018,Mouse
1,2,3,0,32,8,4,0,-1328,159,1169,136,0,500,200,8000,"[(960, 540), (960, 540), (960, 540), (960, 540), (960, 540), (960, 540), (960, 540), (960, 540), (960, 540), (960, 540), (960, 540), (960, 540), (960, 540), (960, 540), (960, 540), (956, 542), (956, 543), (954, 544), (953, 544), (951, 547), (949, 547), (949, 547), (947, 548), (947, 548), (947, 548), (945, 550), (945, 550), (943, 550), (940, 552), (938, 553), (937, 554), (935, 555), (933, 555), (932, 556), (931, 557), (931, 557), (930, 557), (930, 557), (930, 557), (930, 557), (930, 557), (930, 557), (930, 557), (930, 557), (930, 557), (930, 557), (930, 557), (929, 556), (929, 550), (928, 547), (928, 544), (928, 542), (928, 540), (928, 538), (928, 538), (928, 536), (928, 535), (928, 535), (928, 534), (928, 534), (928, 533), (928, 533), (928, 533), (928, 533), (928, 533), (928, 533), (928, 533), (928, 533), (928, 533), (928, 533), (928, 533), (928, 533), (928, 533), (928, 533), (928, 533), (928, 533), (928, 533), (928, 533), (928, 533), (928, 533), (928, 533), (928, 533), (928, 533), (928, 533), (928, 533), (928, 533), (928, 533), (928, 533), (928, 533), (928, 530), (928, 530), (928, 528), (929, 526), (929, 524), (929, 523), (929, 523), (929, 523), (929, 523), (929, 523), (929, 523), (929, 522), (926, 522), (921, 523), (915, 524), (895, 528), (882, 529), (873, 530), (860, 533), (837, 539), (828, 541), (817, 545), (807, 546), (792, 548), (786, 548), (783, 550), (781, 550), (777, 550), (777, 550), (777, 550), (777, 550), (774, 550), (767, 550), (758, 551), (746, 555), (720, 557), (703, 558), (687, 558), (672, 558), (645, 558), (628, 558), (602, 558), (575, 553), (530, 545)]",179.33380002981687,"[1, 9, 7, 3, 4, 2, 8, 5, 6]","(0, 0.25)",THI010C,THI,C,English,Tue Sep 04 11:28:50 2018,Mouse
1,2,3,0,33,5,5,1,689,479,210,137,0,500,200,8000,"[(960, 540), (960, 540), (960, 540), (960, 540), (960, 540), (960, 540), (960, 540), (960, 540), (960, 540), (960, 540), (960, 540), (960, 540), (960, 540), (960, 540), (960, 540), (960, 540), (960, 540), (960, 540), (960, 540), (960, 540), (960, 540), (960, 540), (960, 540), (960, 540), (960, 540), (960, 540), (960, 540), (960, 540), (960, 540), (960, 540), (960, 540), (960, 540), (960, 540), (960, 540), (960, 540), (960, 540), (960, 540), (960, 540), (960, 540), (960, 540), (960, 540), (960, 540), (960, 540), (960, 540), (960, 540), (960, 540), (960, 540), (960, 538), (966, 531), (973, 522), (995, 502), (1007, 491), (1020, 480), (1031, 467), (1047, 445), (1054, 436), (1059, 425), (1065, 416), (1075, 399), (1082, 386), (1086, 376), (1093, 363), (1111, 336), (1124, 319), (1138, 301), (1154, 281), (1178, 247), (1185, 233), (1197, 217)]",306.2692150262632,"[1, 9, 7, 3, 4, 2, 8, 5, 6]","(0, 0.25)",THI010C,THI,C,English,Tue Sep 04 11:28:50 2018,Mouse
1,2,3,0,34,6,6,1,2770,530,2240,137,0,500,200,8000,"[(960, 540), (960, 540), (960, 540), (960, 540), (960, 540), (960, 540), (960, 540), (960, 540), (960, 540), (960, 540), (960, 540), (960, 540), (960, 540), (960, 540), (960, 540), (960, 540), (960, 540), (960, 540), (960, 540), (960, 540), (960, 540), (960, 540), (960, 540), (960, 540), (960, 540), (960, 540), (960, 540), (960, 540), (960, 540), (960, 540), (960, 540), (960, 540), (960, 540), (960, 540), (960, 540), (960, 540), (960, 540), (960, 540), (960, 540), (960, 540), (960, 540), (960, 540), (960, 540), (960, 540), (960, 540), (960, 540), (960, 540), (960, 540), (960, 540), (960, 540), (960, 540), (960, 540), (960, 542), (960, 542), (960, 543), (960, 543), (960, 545), (960, 545), (960, 545), (960, 545), (960, 546), (960, 546), (959, 547), (959, 547), (959, 548), (959, 548), (959, 548), (959, 548), (959, 548), (959, 548), (959, 548), (958, 549), (958, 549), (958, 549), (958, 549), (958, 549), (958, 549), (958, 549), (958, 549), (958, 549), (957, 551), (957, 551), (957, 551), (957, 551), (957, 552), (957, 552), (957, 553), (957, 553), (957, 553), (957, 553), (957, 553), (957, 553), (957, 553), (957, 553), (957, 553), (957, 553), (957, 553), (957, 553), (957, 553), (957, 553), (957, 554), (956, 554), (956, 554), (956, 554), (956, 554), (956, 554), (955, 556), (955, 556), (955, 556), (954, 557), (954, 557), (954, 557), (953, 558), (953, 558), (953, 558), (953, 558), (952, 559), (952, 559), (951, 559), (951, 559), (951, 559), (951, 559), (951, 559), (951, 559), (951, 559), (951, 560), (951, 560), (951, 560), (951, 560), (951, 560), (950, 560), (950, 560), (950, 560), (950, 560), (950, 560), (950, 560), (950, 560), (950, 560), (950, 561), (949, 562), (949, 562), (949, 562), (948, 562), (948, 562), (948, 562), (948, 562), (948, 562), (948, 562), (947, 562), (947, 562), (947, 562), (946, 562), (946, 562), (945, 563), (945, 563), (945, 563), (945, 563), (945, 563), (945, 563), (945, 563), (945, 563), (945, 563), (945, 563), (945, 563), (945, 563), (945, 563), (945, 563), (945, 563), (944, 564), (944, 564), (944, 564), (944, 564), (943, 564), (943, 564), (943, 564), (943, 564), (943, 564), (943, 564), (943, 564), (943, 564), (943, 564), (943, 564), (943, 564), (943, 564), (943, 564), (943, 564), (943, 564), (943, 564), (943, 564), (943, 564), (943, 564), (943, 564), (943, 564), (943, 564), (943, 564), (943, 564), (943, 564), (943, 564), (943, 564), (943, 564), (943, 564), (943, 564), (943, 564), (943, 564), (943, 564), (943, 564), (943, 564), (943, 564), (943, 564), (943, 564), (943, 564), (943, 564), (943, 564), (943, 564), (943, 564), (943, 564), (943, 564), (943, 564), (943, 564), (943, 564), (943, 564), (943, 564), (943, 564), (943, 564), (943, 564), (943, 564), (943, 564), (943, 564), (943, 564), (943, 564), (943, 564), (943, 564), (943, 564), (943, 564), (943, 564), (942, 565), (942, 565), (942, 565), (942, 565), (943, 566), (943, 566), (943, 566), (943, 566), (944, 566), (946, 566), (948, 566), (949, 566), (950, 566), (955, 565), (957, 564), (963, 562), (966, 561), (980, 556), (990, 551), (1000, 548), (1013, 545), (1038, 533), (1052, 527), (1071, 517), (1095, 504), (1139, 486), (1158, 478), (1175, 472), (1187, 469), (1214, 461), (1226, 457), (1237, 454), (1250, 452), (1271, 444), (1278, 443), (1289, 441), (1300, 437), (1319, 430), (1324, 427), (1332, 422), (1341, 419), (1356, 412)]",342.0874906140367,"[1, 9, 7, 3, 4, 2, 8, 5, 6]","(0, 0.25)",THI010C,THI,C,English,Tue Sep 04 11:28:50 2018,Mouse
1,2,3,0,35,5,3,0,-1389,99,1290,136,0,500,200,8000,"[(960, 540), (960, 540), (960, 540), (960, 540), (960, 540), (960, 540), (960, 540), (960, 540), (960, 540), (959, 540), (959, 540), (959, 540), (958, 540), (958, 540), (957, 541), (957, 541), (957, 541), (957, 541), (956, 542), (956, 542), (956, 542), (956, 542), (956, 543), (956, 543), (956, 543), (956, 543), (956, 543), (956, 543), (955, 543), (955, 543), (955, 543), (955, 543), (955, 543), (955, 543), (955, 543), (955, 543), (955, 543), (955, 543), (955, 544), (955, 544), (955, 544), (954, 544), (954, 544), (954, 544), (953, 545), (953, 545), (953, 545), (953, 546), (953, 546), (953, 546), (953, 546), (953, 546), (953, 546), (953, 546), (953, 546), (953, 546), (953, 546), (953, 546), (953, 546), (953, 546), (953, 546), (953, 546), (953, 546), (953, 546), (953, 546), (953, 546), (953, 546), (953, 546), (953, 546), (953, 546), (953, 546), (953, 546), (953, 546), (952, 547), (952, 547), (952, 547), (952, 547), (952, 547), (951, 548), (951, 548), (951, 548), (950, 549), (950, 551), (950, 551), (950, 551), (949, 553), (949, 553), (948, 553), (948, 554), (946, 556), (946, 556), (945, 558), (944, 559), (943, 562), (942, 563), (941, 565), (940, 567), (940, 568), (938, 569), (938, 571), (937, 572), (935, 575), (934, 577), (933, 578), (931, 580), (931, 581), (930, 581), (930, 582), (930, 583), (928, 585), (928, 585), (927, 586), (927, 587), (926, 588), (926, 589), (924, 591), (924, 591), (922, 594), (919, 597), (917, 598), (916, 600), (914, 602), (912, 604), (906, 610), (899, 614), (894, 619), (888, 626), (873, 639), (864, 644), (855, 651), (846, 660), (827, 676), (816, 686), (808, 698), (798, 713), (769, 767), (753, 799), (732, 828), (713, 856)]",128.01280397891065,"[1, 9, 7, 3, 4, 2, 8, 5, 6]","(0, 0.25)",THI010C,THI,C,English,Tue Sep 04 11:28:50 2018,Mouse
1,2,3,0,36,2,2,1,729,469,260,137,0,500,200,8000,"[(960, 540), (960, 540), (960, 540), (960, 540), (960, 540), (960, 540), (960, 540), (960, 540), (960, 540), (960, 540), (960, 540), (960, 540), (960, 540), (960, 540), (960, 540), (960, 540), (960, 540), (960, 540), (960, 540), (960, 540), (960, 540), (960, 540), (960, 540), (960, 540), (960, 540), (960, 540), (960, 540), (960, 540), (960, 540), (960, 540), (960, 540), (960, 540), (960, 540), (960, 540), (960, 540), (960, 540), (960, 540), (960, 540), (960, 540), (960, 540), (960, 540), (960, 540), (960, 540), (960, 540), (960, 540), (960, 540), (956, 540), (938, 529), (929, 524), (919, 518), (911, 511), (897, 499), (891, 494), (885, 489), (881, 485), (873, 475), (870, 471), (866, 466), (861, 458), (837, 431), (823, 413), (807, 397), (794, 386), (776, 365), (767, 355), (754, 341), (745, 332), (728, 315), (718, 305), (707, 297), (696, 287), (672, 270), (661, 262)]",222.9156316620983,"[1, 9, 7, 3, 4, 2, 8, 5, 6]","(0, 0.25)",THI010C,THI,C,English,Tue Sep 04 11:28:50 2018,Mouse
1,2,3,0,37,4,5,0,-1828,718,1110,137,0,500,200,8000,"[(960, 540), (960, 540), (960, 540), (960, 540), (960, 540), (960, 540), (960, 540), (960, 540), (960, 540), (960, 540), (960, 540), (960, 540), (960, 540), (960, 540), (960, 540), (960, 540), (960, 540), (960, 540), (960, 540), (960, 540), (960, 540), (960, 540), (960, 540), (960, 540), (960, 540), (960, 540), (960, 540), (960, 540), (960, 540), (960, 540), (960, 540), (960, 540), (960, 540), (960, 540), (960, 540), (960, 540), (960, 540), (960, 540), (960, 540), (960, 540), (960, 540), (960, 540), (960, 540), (960, 540), (960, 540), (960, 540), (960, 540), (960, 540), (960, 540), (960, 540), (960, 540), (960, 540), (960, 540), (960, 540), (960, 540), (960, 540), (960, 540), (960, 540), (960, 540), (960, 540), (960, 540), (960, 540), (960, 540), (960, 540), (960, 540), (960, 540), (960, 540), (960, 540), (960, 540), (960, 540), (960, 540), (959, 542), (959, 542), (958, 542), (958, 542), (958, 542), (958, 542), (958, 542), (958, 542), (958, 542), (958, 542), (958, 542), (958, 542), (958, 542), (958, 542), (958, 542), (958, 542), (958, 542), (958, 542), (958, 542), (958, 542), (958, 542), (958, 542), (958, 542), (958, 542), (958, 542), (958, 542), (958, 542), (958, 542), (958, 542), (958, 542), (958, 542), (958, 542), (958, 542), (958, 542), (958, 542), (958, 542), (958, 542), (958, 542), (957, 541), (959, 534), (962, 529), (963, 526), (964, 524), (965, 518), (967, 516), (968, 514), (968, 512), (970, 510), (970, 510), (970, 510), (970, 510), (970, 510), (970, 510), (970, 510), (970, 509), (970, 509), (970, 509), (970, 509), (970, 509), (970, 509), (970, 509), (970, 509), (970, 509), (970, 509), (970, 509), (970, 509), (970, 509), (970, 509), (970, 509), (970, 509), (970, 509), (970, 509), (970, 509), (970, 509), (970, 509), (970, 509), (970, 509), (970, 509), (970, 509), (970, 509), (970, 509), (970, 509), (970, 509), (970, 509), (970, 509), (970, 509), (970, 509), (970, 506), (973, 503), (975, 499), (981, 493), (993, 480), (1006, 469), (1018, 458), (1033, 446), (1061, 420), (1077, 406), (1090, 393), (1101, 381), (1122, 352), (1129, 342), (1138, 330), (1150, 317), (1162, 298), (1167, 292), (1173, 283), (1177, 274), (1185, 258), (1191, 248), (1196, 238), (1201, 226), (1212, 200)]",306.54497232282256,"[1, 9, 7, 3, 4, 2, 8, 5, 6]","(0, 0.25)",THI010C,THI,C,English,Tue Sep 04 11:28:50 2018,Mouse
1,2,3,0,38,6,6,1,909,19,890,138,0,500,200,8000,"[(960, 540), (960, 542), (959, 543), (959, 543), (959, 544), (959, 546), (956, 549), (955, 551), (955, 551), (955, 552), (955, 552), (955, 553), (954, 554), (954, 554), (953, 554), (953, 554), (953, 554), (953, 555), (953, 558), (952, 559), (952, 560), (952, 561), (951, 563), (950, 564), (950, 564), (950, 564), (950, 564), (950, 564), (950, 564), (950, 564), (950, 564), (950, 564), (950, 564), (950, 564), (950, 564), (950, 564), (950, 564), (950, 565), (950, 566), (950, 567), (950, 567), (950, 568), (950, 568), (950, 568), (950, 568), (950, 570), (950, 570), (950, 570), (950, 570), (951, 570), (952, 570), (952, 570), (952, 570), (952, 570), (952, 570), (952, 570), (952, 570), (952, 570), (952, 570), (952, 570), (952, 570), (952, 570), (952, 570), (952, 570), (952, 570), (953, 570), (957, 567), (963, 564), (966, 561), (972, 557), (987, 549), (996, 547), (1002, 543), (1006, 542), (1012, 538), (1013, 538), (1015, 538), (1015, 537), (1023, 533), (1029, 529), (1036, 526), (1045, 524), (1065, 518), (1078, 515), (1095, 508), (1118, 499), (1189, 474), (1230, 464), (1271, 453), (1313, 442), (1364, 426)]",344.2420896194101,"[1, 9, 7, 3, 4, 2, 8, 5, 6]","(0, 0.25)",THI010C,THI,C,English,Tue Sep 04 11:28:50 2018,Mouse
1,2,3,0,39,5,5,1,880,150,730,138,0,500,200,8000,"[(960, 540), (960, 540), (960, 540), (960, 540), (960, 540), (960, 540), (960, 540), (960, 540), (960, 540), (960, 540), (960, 540), (960, 540), (960, 540), (960, 540), (958, 541), (958, 541), (958, 541), (957, 541), (956, 541), (955, 541), (955, 541), (955, 541), (955, 541), (955, 541), (955, 541), (955, 541), (955, 541), (955, 541), (955, 541), (955, 541), (955, 541), (955, 541), (955, 541), (955, 541), (955, 541), (955, 541), (955, 541), (955, 541), (955, 541), (955, 541), (955, 541), (955, 542), (955, 542), (955, 542), (955, 542), (955, 542), (955, 542), (955, 542), (955, 542), (955, 542), (955, 542), (955, 542), (955, 542), (955, 542), (955, 542), (954, 543), (954, 543), (954, 543), (954, 543), (954, 543), (953, 543), (953, 543), (953, 543), (953, 543), (952, 543), (952, 543), (952, 543), (952, 543), (952, 543), (952, 543), (952, 543), (952, 543), (954, 542), (958, 537), (968, 522), (974, 509), (980, 493), (990, 467), (1009, 415), (1021, 386), (1031, 361), (1044, 334), (1068, 279), (1077, 253), (1085, 233), (1091, 215), (1102, 169), (1104, 160)]",290.7540713187994,"[1, 9, 7, 3, 4, 2, 8, 5, 6]","(0, 0.25)",THI010C,THI,C,English,Tue Sep 04 11:28:50 2018,Mouse
1,2,3,0,40,7,9,0,-2849,449,2400,137,0,500,200,8000,"[(960, 540), (960, 540), (960, 540), (960, 540), (960, 540), (960, 540), (960, 540), (960, 540), (960, 540), (960, 540), (960, 540), (960, 540), (960, 540), (960, 540), (960, 540), (960, 540), (960, 540), (960, 540), (960, 540), (960, 540), (960, 540), (960, 540), (960, 540), (960, 540), (960, 540), (960, 540), (960, 540), (960, 540), (960, 540), (960, 540), (960, 540), (960, 540), (960, 540), (960, 540), (960, 540), (960, 540), (960, 540), (960, 540), (960, 540), (960, 540), (960, 540), (960, 540), (960, 540), (960, 540), (960, 541), (960, 542), (960, 542), (959, 543), (959, 544), (958, 545), (958, 545), (958, 545), (957, 546), (956, 547), (956, 547), (956, 548), (956, 549), (956, 549), (956, 551), (956, 552), (956, 553), (956, 553), (956, 554), (956, 555), (956, 556), (956, 558), (954, 559), (954, 560), (954, 564), (954, 565), (954, 568), (954, 569), (953, 574), (952, 576), (952, 579), (950, 583), (949, 590), (948, 596), (945, 602), (944, 612), (940, 633), (938, 646), (937, 657), (935, 675), (935, 696), (935, 707), (935, 718), (935, 728), (935, 749), (935, 759), (935, 769), (935, 778), (935, 797), (935, 805), (934, 815), (931, 825), (927, 839), (924, 844), (923, 850), (922, 853), (919, 857), (919, 858), (918, 860), (917, 862), (916, 864), (916, 865), (915, 866), (915, 867), (915, 868), (915, 868), (915, 868), (915, 868), (915, 868), (915, 868), (915, 868), (915, 868), (915, 868), (915, 868), (915, 868), (915, 868), (915, 868), (916, 868), (917, 868), (919, 866), (920, 863), (921, 861), (922, 860), (922, 859), (923, 857), (923, 857), (923, 857), (923, 857), (923, 857), (923, 857), (923, 857), (923, 857), (923, 857), (923, 857), (923, 857), (923, 857), (923, 857), (923, 857), (923, 857), (923, 857), (923, 857), (923, 857), (923, 857), (923, 857), (923, 857), (923, 857), (923, 857), (923, 857), (923, 857), (923, 857), (923, 857), (923, 857), (923, 857), (923, 857), (923, 857), (923, 857), (923, 857), (923, 857), (923, 857), (923, 857), (923, 857), (923, 857), (923, 857), (923, 857), (923, 857), (923, 857), (923, 857), (923, 857), (923, 857), (923, 857), (923, 857), (923, 857), (923, 857), (923, 857), (923, 857), (923, 857), (923, 857), (923, 857), (923, 857), (923, 857), (922, 857), (921, 855), (920, 855), (920, 855), (919, 855), (918, 855), (918, 855), (918, 855), (916, 855), (916, 855), (916, 855), (916, 855), (916, 854), (916, 854), (916, 854), (916, 854), (916, 854), (916, 854), (916, 854), (916, 854), (916, 854), (916, 854), (916, 854), (916, 854), (916, 853), (916, 852), (916, 852), (916, 852), (915, 851), (915, 851), (915, 851), (915, 851), (915, 851), (915, 851), (915, 851), (915, 850), (915, 850), (915, 850), (915, 850), (915, 850), (915, 850), (915, 850), (915, 850), (915, 850), (915, 850), (915, 850), (915, 850), (915, 850), (915, 850), (915, 850), (915, 850), (915, 850), (915, 850), (915, 850), (915, 850), (915, 850), (915, 850), (915, 850), (915, 850), (915, 850), (915, 849), (915, 849), (915, 849), (915, 849), (915, 849), (915, 849), (915, 849), (915, 849), (915, 849), (915, 849), (915, 849), (915, 849), (915, 849), (915, 849), (915, 849), (915, 849), (915, 849), (915, 849), (915, 849), (915, 849), (915, 849), (915, 848), (915, 846), (915, 846), (915, 846), (915, 845), (915, 845), (915, 843), (920, 841), (923, 839), (929, 837), (935, 836), (952, 834), (962, 834), (979, 834), (999, 834), (1044, 842), (1067, 850), (1100, 858), (1126, 868), (1171, 892)]",59.060186541966566,"[1, 9, 7, 3, 4, 2, 8, 5, 6]","(0, 0.25)",THI010C,THI,C,English,Tue Sep 04 11:28:50 2018,Mouse
1,2,3,0,41,1,1,1,349,119,230,138,0,500,200,8000,"[(960, 540), (960, 540), (960, 540), (960, 540), (960, 540), (960, 540), (960, 540), (960, 540), (960, 540), (960, 540), (960, 540), (961, 540), (961, 540), (962, 540), (966, 539), (970, 539), (978, 536), (985, 535), (1002, 535), (1010, 535), (1018, 535), (1026, 535), (1047, 539), (1060, 542), (1072, 547), (1085, 549), (1126, 562), (1151, 570), (1176, 578), (1203, 589), (1253, 614), (1277, 627), (1301, 638), (1323, 652), (1361, 674)]",18.477802801103742,"[1, 9, 7, 3, 4, 2, 8, 5, 6]","(0, 0.25)",THI010C,THI,C,English,Tue Sep 04 11:28:50 2018,Mouse
1,2,3,0,42,4,4,1,2359,799,1560,138,0,500,200,8000,"[(960, 540), (960, 540), (960, 540), (960, 540), (960, 540), (960, 540), (960, 540), (960, 540), (960, 540), (960, 540), (960, 540), (960, 540), (960, 540), (960, 540), (960, 540), (960, 540), (960, 540), (960, 540), (960, 540), (960, 540), (960, 540), (960, 540), (960, 540), (960, 540), (960, 540), (960, 540), (960, 540), (960, 540), (960, 540), (960, 540), (960, 540), (960, 540), (960, 540), (960, 540), (960, 540), (960, 540), (960, 540), (960, 540), (960, 540), (960, 540), (960, 540), (960, 540), (960, 540), (960, 540), (960, 540), (960, 540), (960, 540), (960, 540), (960, 540), (960, 540), (960, 540), (960, 540), (960, 540), (960, 540), (960, 540), (960, 540), (960, 540), (960, 540), (960, 540), (960, 540), (960, 540), (960, 540), (960, 540), (960, 540), (960, 540), (960, 540), (960, 540), (960, 540), (960, 540), (960, 540), (960, 540), (960, 540), (960, 540), (960, 540), (960, 540), (960, 540), (960, 540), (960, 540), (960, 540), (960, 539), (960, 538), (960, 537), (960, 537), (960, 537), (960, 537), (960, 537), (960, 537), (960, 537), (960, 537), (960, 537), (960, 537), (960, 537), (960, 537), (960, 537), (960, 537), (960, 537), (960, 537), (960, 537), (960, 537), (960, 537), (960, 537), (960, 537), (960, 537), (960, 537), (960, 537), (960, 537), (960, 537), (960, 537), (960, 537), (960, 537), (960, 537), (960, 537), (960, 537), (960, 537), (960, 537), (960, 537), (960, 537), (960, 537), (960, 537), (960, 537), (960, 537), (960, 537), (960, 537), (960, 537), (960, 537), (960, 537), (959, 537), (959, 537), (957, 537), (956, 539), (956, 539), (955, 539), (953, 539), (953, 539), (953, 539), (953, 539), (953, 539), (953, 539), (953, 539), (953, 539), (953, 539), (953, 539), (953, 539), (952, 539), (952, 539), (952, 539), (952, 539), (950, 539), (949, 539), (947, 539), (947, 539), (946, 539), (946, 539), (946, 539), (946, 539), (946, 539), (945, 539), (945, 539), (945, 539), (945, 539), (945, 539), (945, 539), (945, 539), (945, 539), (944, 539), (944, 539), (944, 539), (943, 539), (941, 539), (941, 539), (941, 539), (940, 539), (940, 539), (940, 539), (940, 539), (940, 539), (940, 539), (940, 539), (940, 539), (940, 539), (940, 539), (940, 539), (940, 539), (940, 539), (940, 539), (940, 539), (940, 539), (940, 539), (940, 539), (940, 539), (940, 539), (940, 539), (940, 539), (940, 539), (940, 539), (940, 539), (940, 539), (940, 539), (940, 539), (940, 539), (940, 539), (940, 539), (940, 539), (940, 539), (940, 539), (940, 539), (940, 539), (940, 539), (940, 539), (940, 539), (940, 539), (940, 539), (940, 539), (940, 539), (940, 539), (940, 539), (940, 539), (940, 539), (938, 539), (936, 540), (933, 540), (930, 541), (926, 543), (922, 545), (907, 550), (895, 555), (883, 557), (872, 561), (851, 567), (835, 572), (815, 577), (788, 586), (696, 597), (645, 605), (594, 611), (550, 618)]",169.228545839802,"[1, 9, 7, 3, 4, 2, 8, 5, 6]","(0, 0.25)",THI010C,THI,C,English,Tue Sep 04 11:28:50 2018,Mouse
1,2,3,0,43,5,5,1,720,409,311,137,0,500,200,8000,"[(960, 540), (960, 540), (960, 540), (960, 540), (960, 540), (960, 540), (960, 540), (960, 540), (960, 540), (960, 540), (960, 540), (960, 540), (960, 540), (960, 540), (960, 540), (960, 540), (960, 540), (960, 540), (960, 540), (960, 540), (960, 540), (960, 540), (960, 540), (960, 540), (960, 540), (960, 540), (960, 540), (960, 540), (960, 540), (960, 540), (960, 540), (960, 540), (960, 540), (960, 540), (960, 540), (960, 540), (960, 540), (960, 540), (960, 540), (960, 540), (959, 540), (958, 540), (957, 540), (954, 540), (952, 540), (950, 540), (948, 540), (946, 540), (946, 540), (946, 540), (946, 540), (946, 540), (946, 540), (946, 540), (946, 540), (946, 540), (946, 540), (946, 540), (948, 536), (962, 518), (973, 504), (987, 489), (1011, 464), (1059, 420), (1083, 394), (1109, 365), (1127, 342), (1160, 292), (1173, 270), (1182, 249), (1192, 231), (1203, 202)]",305.7136765611307,"[1, 9, 7, 3, 4, 2, 8, 5, 6]","(0, 0.25)",THI010C,THI,C,English,Tue Sep 04 11:28:50 2018,Mouse
1,2,3,0,44,8,1,0,-700,590,110,136,0,500,200,8000,"[(960, 540), (960, 540), (960, 540), (960, 540), (960, 540), (960, 540), (960, 540), (960, 540), (960, 540), (960, 540), (960, 540), (960, 540), (960, 540), (960, 540), (960, 540), (960, 540), (960, 540), (960, 540), (960, 540), (960, 540), (960, 540), (960, 540), (960, 540), (960, 540), (960, 540), (960, 540), (960, 540), (960, 540), (960, 540), (960, 540), (960, 540), (960, 540), (960, 540), (960, 540), (960, 540), (960, 540), (960, 540), (960, 540), (960, 540), (960, 540), (960, 540), (960, 540), (960, 540), (960, 540), (960, 540), (960, 540), (960, 540), (960, 540), (960, 540), (960, 540), (960, 540), (960, 540), (960, 540), (960, 540), (960, 540), (960, 540), (960, 540), (960, 540), (961, 540), (964, 544), (973, 548), (986, 553), (1023, 564), (1050, 573), (1083, 578), (1130, 592), (1219, 617), (1268, 631), (1313, 644), (1363, 660)]",16.581781524840377,"[1, 9, 7, 3, 4, 2, 8, 5, 6]","(0, 0.25)",THI010C,THI,C,English,Tue Sep 04 11:28:50 2018,Mouse
1,2,3,0,45,5,5,1,1979,119,1860,137,0,500,200,8000,"[(960, 540), (960, 540), (960, 540), (960, 540), (960, 540), (960, 540), (960, 540), (960, 540), (960, 540), (960, 540), (960, 540), (959, 538), (959, 538), (959, 538), (959, 537), (959, 537), (959, 537), (959, 537), (958, 536), (957, 534), (957, 534), (957, 534), (957, 534), (957, 534), (957, 534), (957, 534), (957, 533), (957, 531), (957, 531), (957, 530), (957, 528), (958, 524), (961, 519), (962, 516), (965, 510), (972, 495), (976, 489), (981, 480), (987, 472), (998, 453), (1004, 444), (1010, 432), (1015, 422), (1024, 406), (1027, 403), (1030, 397), (1031, 395), (1031, 394), (1031, 393), (1031, 393), (1031, 393), (1031, 393), (1031, 393), (1031, 393), (1031, 393), (1031, 393), (1031, 393), (1031, 393), (1031, 393), (1031, 393), (1031, 393), (1031, 393), (1031, 393), (1031, 393), (1031, 393), (1031, 393), (1031, 393), (1031, 393), (1031, 393), (1031, 393), (1031, 393), (1031, 393), (1031, 393), (1031, 393), (1031, 393), (1031, 393), (1031, 393), (1031, 393), (1031, 393), (1031, 393), (1031, 393), (1031, 393), (1031, 393), (1031, 393), (1031, 393), (1031, 393), (1031, 393), (1031, 393), (1031, 393), (1031, 393), (1031, 393), (1031, 393), (1031, 393), (1031, 393), (1031, 393), (1031, 393), (1031, 393), (1032, 392), (1032, 391), (1033, 390), (1034, 390), (1034, 390), (1034, 388), (1037, 385), (1037, 384), (1037, 383), (1041, 376), (1042, 372), (1043, 372), (1044, 370), (1045, 368), (1046, 366), (1048, 363), (1049, 362), (1049, 361), (1051, 359), (1052, 357), (1052, 357), (1053, 357), (1053, 355), (1055, 354), (1055, 354), (1055, 354), (1055, 354), (1055, 354), (1055, 354), (1055, 354), (1055, 353), (1055, 353), (1055, 353), (1056, 353), (1057, 353), (1058, 351), (1059, 351), (1059, 351), (1061, 350), (1061, 350), (1062, 348), (1063, 348), (1065, 347), (1065, 347), (1065, 346), (1065, 346), (1065, 346), (1066, 345), (1066, 345), (1066, 345), (1066, 345), (1066, 345), (1066, 345), (1066, 345), (1066, 345), (1066, 345), (1066, 345), (1066, 345), (1066, 345), (1066, 345), (1066, 345), (1066, 345), (1066, 345), (1066, 345), (1066, 345), (1066, 345), (1066, 345), (1066, 345), (1066, 345), (1066, 345), (1066, 345), (1066, 345), (1066, 345), (1066, 345), (1066, 345), (1066, 345), (1066, 345), (1066, 345), (1066, 345), (1066, 345), (1066, 345), (1066, 345), (1066, 345), (1066, 345), (1066, 345), (1066, 345), (1067, 345), (1071, 340), (1077, 333), (1083, 324), (1100, 306), (1108, 296), (1116, 284), (1124, 274), (1137, 257), (1145, 246), (1151, 237), (1157, 227), (1164, 212), (1170, 203), (1174, 197)]",301.9603157452911,"[1, 9, 7, 3, 4, 2, 8, 5, 6]","(0, 0.25)",THI010C,THI,C,English,Tue Sep 04 11:28:50 2018,Mouse
1,2,3,0,46,3,3,1,910,480,430,137,0,500,200,8000,"[(960, 540), (960, 540), (960, 540), (960, 540), (960, 540), (960, 540), (960, 540), (960, 540), (960, 540), (960, 540), (960, 540), (960, 540), (960, 540), (960, 540), (960, 540), (960, 540), (960, 540), (960, 540), (960, 540), (960, 540), (960, 540), (960, 540), (960, 540), (960, 540), (960, 540), (960, 540), (960, 540), (960, 540), (960, 540), (960, 540), (960, 540), (960, 540), (960, 540), (960, 540), (960, 540), (960, 540), (960, 540), (960, 540), (960, 540), (960, 540), (960, 540), (960, 540), (960, 540), (960, 540), (960, 540), (960, 540), (960, 540), (960, 541), (959, 541), (959, 542), (957, 543), (957, 543), (957, 544), (957, 544), (956, 545), (955, 546), (952, 548), (952, 548), (951, 550), (949, 551), (946, 554), (946, 555), (944, 557), (943, 557), (940, 559), (939, 561), (937, 562), (936, 564), (933, 565), (928, 568), (921, 572), (912, 579), (897, 590), (888, 595), (881, 600), (876, 603), (862, 611), (855, 615), (849, 620), (841, 626), (825, 638), (814, 644), (806, 651), (793, 662), (766, 686), (748, 702), (736, 717), (716, 738), (684, 776), (667, 795), (655, 810)]",138.48327146899766,"[1, 9, 7, 3, 4, 2, 8, 5, 6]","(0, 0.25)",THI010C,THI,C,English,Tue Sep 04 11:28:50 2018,Mouse
1,2,3,0,47,5,5,1,1008,558,450,136,0,500,200,8000,"[(960, 540), (960, 540), (960, 540), (960, 540), (960, 540), (960, 540), (960, 540), (960, 540), (960, 540), (960, 540), (960, 540), (960, 540), (960, 540), (960, 540), (960, 540), (960, 540), (960, 540), (960, 540), (960, 540), (960, 540), (960, 540), (960, 540), (960, 540), (960, 540), (960, 540), (960, 540), (960, 540), (960, 540), (960, 540), (960, 540), (960, 540), (960, 540), (960, 540), (960, 540), (960, 540), (960, 540), (960, 540), (960, 540), (960, 540), (960, 540), (960, 540), (960, 540), (960, 540), (960, 540), (960, 540), (960, 540), (960, 540), (960, 540), (960, 540), (960, 540), (960, 540), (960, 540), (960, 540), (960, 540), (960, 540), (960, 538), (961, 533), (961, 532), (961, 531), (961, 528), (962, 526), (962, 525), (962, 524), (962, 522), (963, 518), (964, 517), (965, 514), (965, 512), (969, 503), (970, 500), (973, 495), (975, 492), (981, 480), (985, 475), (990, 468), (995, 461), (1007, 444), (1013, 436), (1020, 427), (1028, 413), (1044, 392), (1051, 379), (1064, 361), (1073, 347), (1090, 321), (1096, 308), (1103, 298), (1107, 290), (1114, 277), (1117, 272), (1119, 269), (1120, 265), (1123, 254), (1125, 248), (1127, 242), (1131, 233), (1137, 217), (1141, 209), (1145, 199), (1149, 189), (1156, 170)]",297.91149893716454,"[1, 9, 7, 3, 4, 2, 8, 5, 6]","(0, 0.25)",THI010C,THI,C,English,Tue Sep 04 11:28:50 2018,Mouse
1,2,3,0,48,9,1,0,-2250,979,1271,135,0,500,200,8000,"[(960, 540), (960, 540), (960, 540), (960, 540), (960, 540), (960, 540), (960, 540), (960, 540), (960, 540), (960, 540), (960, 540), (960, 540), (960, 540), (960, 540), (960, 540), (960, 540), (960, 540), (960, 540), (960, 540), (960, 540), (960, 540), (960, 540), (960, 540), (960, 540), (960, 540), (960, 540), (960, 540), (960, 540), (960, 540), (960, 540), (960, 540), (960, 540), (960, 540), (960, 540), (960, 540), (960, 540), (960, 540), (960, 540), (960, 540), (960, 540), (960, 540), (960, 540), (960, 540), (960, 540), (960, 540), (960, 540), (960, 540), (960, 540), (960, 540), (960, 540), (960, 540), (960, 540), (960, 540), (960, 540), (960, 540), (960, 540), (960, 540), (960, 540), (960, 540), (960, 540), (960, 540), (960, 540), (960, 540), (960, 540), (960, 540), (960, 540), (960, 540), (960, 540), (960, 540), (960, 540), (960, 540), (960, 540), (960, 540), (960, 540), (960, 540), (960, 540), (960, 540), (960, 540), (960, 540), (960, 540), (960, 540), (960, 540), (960, 540), (960, 540), (960, 540), (960, 540), (960, 540), (960, 540), (960, 540), (960, 540), (960, 540), (960, 540), (960, 540), (960, 540), (960, 540), (960, 540), (960, 540), (960, 539), (960, 539), (960, 539), (959, 540), (958, 541), (956, 543), (956, 544), (954, 546), (953, 547), (949, 550), (944, 554), (941, 557), (937, 560), (929, 568), (925, 571), (923, 573), (917, 576), (909, 581), (906, 584), (902, 587), (900, 588), (896, 591), (896, 591), (895, 591), (895, 592), (893, 592), (893, 593), (893, 593), (893, 593), (893, 593), (893, 593), (893, 593), (893, 593), (893, 593), (893, 593), (892, 594), (892, 594), (892, 594), (892, 594), (890, 595), (889, 597), (889, 597), (886, 599), (885, 600), (885, 600), (884, 601), (884, 602), (882, 602), (882, 603), (881, 603), (881, 604), (879, 605), (878, 606), (878, 606), (877, 607), (876, 608), (876, 608), (875, 609), (875, 609), (874, 610), (873, 611), (872, 612), (871, 613), (867, 616), (866, 616), (866, 617), (864, 619), (861, 621), (860, 622), (857, 624), (857, 624), (854, 627), (853, 628), (852, 629), (851, 630), (849, 632), (849, 632), (848, 633), (848, 633), (847, 634), (847, 634), (847, 634), (847, 634), (847, 634), (847, 634), (847, 634), (847, 634), (847, 634), (847, 634), (847, 634), (847, 634), (847, 634), (847, 635), (847, 635), (846, 635), (846, 635), (846, 635), (846, 636), (846, 636), (845, 636), (845, 637), (845, 637), (845, 637), (845, 637), (845, 637), (845, 637), (845, 637), (845, 637), (845, 637), (845, 637), (845, 637), (850, 636), (854, 634), (859, 633), (868, 630), (900, 623), (925, 621), (958, 614), (1001, 609), (1080, 603), (1119, 603), (1153, 603), (1189, 603), (1253, 603), (1282, 607), (1309, 612), (1339, 619), (1377, 631)]",12.310400458851326,"[1, 9, 7, 3, 4, 2, 8, 5, 6]","(0, 0.25)",THI010C,THI,C,English,Tue Sep 04 11:28:50 2018,Mouse
1,2,3,0,49,7,4,0,-1030,700,330,136,0,500,200,8000,"[(960, 540), (960, 540), (960, 540), (960, 540), (960, 540), (960, 540), (960, 540), (960, 540), (960, 540), (960, 540), (960, 540), (960, 540), (960, 540), (960, 540), (960, 540), (960, 540), (960, 540), (960, 540), (960, 540), (960, 540), (960, 540), (960, 540), (960, 540), (960, 540), (960, 540), (960, 540), (960, 540), (960, 540), (960, 540), (960, 540), (960, 540), (960, 540), (960, 540), (960, 540), (960, 540), (960, 540), (960, 540), (960, 540), (960, 540), (960, 540), (960, 540), (960, 540), (960, 540), (960, 540), (960, 540), (960, 540), (960, 540), (960, 540), (960, 540), (960, 540), (960, 540), (960, 540), (960, 540), (960, 540), (960, 540), (960, 540), (960, 540), (960, 540), (960, 540), (960, 540), (960, 540), (960, 540), (960, 540), (960, 540), (960, 540), (960, 540), (960, 540), (960, 540), (960, 540), (959, 541), (952, 544), (949, 545), (945, 548), (943, 549), (941, 549), (940, 550), (940, 550), (940, 550), (940, 550), (939, 550), (938, 550), (937, 550), (927, 550), (919, 550), (909, 550), (902, 553), (881, 560), (867, 564), (849, 566), (825, 570), (781, 574), (748, 574), (717, 574), (683, 574), (633, 574), (616, 574), (597, 572), (586, 571), (573, 566), (566, 565), (564, 565), (561, 565), (556, 565)]",176.4589843318949,"[1, 9, 7, 3, 4, 2, 8, 5, 6]","(0, 0.25)",THI010C,THI,C,English,Tue Sep 04 11:28:50 2018,Mouse
1,2,3,0,50,3,3,1,579,139,440,137,0,500,200,8000,"[(960, 540), (960, 540), (960, 540), (960, 540), (960, 540), (960, 540), (960, 540), (960, 540), (960, 540), (960, 540), (960, 540), (960, 540), (960, 540), (959, 540), (959, 540), (958, 540), (958, 540), (958, 540), (958, 540), (957, 540), (957, 540), (957, 540), (957, 540), (957, 540), (957, 540), (957, 540), (957, 540), (957, 540), (957, 540), (957, 540), (957, 540), (957, 540), (957, 540), (957, 540), (957, 540), (957, 540), (957, 540), (957, 540), (957, 540), (957, 540), (957, 541), (957, 541), (957, 542), (955, 546), (953, 548), (943, 558), (934, 566), (923, 574), (912, 583), (880, 607), (858, 621), (837, 636), (812, 655), (750, 699), (725, 717), (694, 741), (668, 764), (619, 802)]",142.46390238397285,"[1, 9, 7, 3, 4, 2, 8, 5, 6]","(0, 0.25)",THI010C,THI,C,English,Tue Sep 04 11:28:50 2018,Mouse
1,2,3,0,51,9,9,1,1430,910,520,137,0,500,200,8000,"[(960, 540), (960, 540), (960, 540), (960, 540), (960, 540), (960, 540), (960, 540), (960, 540), (960, 540), (960, 540), (960, 540), (960, 540), (960, 540), (960, 540), (960, 540), (960, 540), (960, 540), (960, 540), (960, 540), (960, 540), (960, 540), (960, 540), (960, 540), (960, 540), (960, 540), (960, 540), (960, 540), (960, 540), (960, 540), (960, 540), (960, 540), (960, 540), (960, 540), (960, 540), (960, 540), (960, 540), (960, 540), (960, 540), (960, 540), (960, 540), (960, 540), (960, 540), (960, 540), (960, 540), (960, 540), (960, 540), (960, 540), (960, 540), (960, 540), (960, 540), (960, 540), (960, 540), (960, 540), (960, 540), (960, 540), (960, 540), (960, 540), (960, 540), (960, 540), (960, 540), (960, 540), (960, 540), (960, 540), (960, 540), (960, 540), (960, 540), (960, 540), (960, 540), (960, 540), (960, 540), (960, 540), (960, 540), (960, 540), (960, 540), (960, 540), (960, 540), (960, 540), (960, 540), (960, 540), (960, 540), (960, 540), (960, 540), (960, 540), (960, 540), (960, 540), (960, 540), (960, 540), (960, 540), (960, 540), (960, 540), (959, 540), (958, 540), (957, 541), (957, 541), (957, 541), (956, 542), (956, 542), (956, 542), (955, 542), (954, 542), (954, 542), (954, 542), (954, 543), (954, 543), (954, 543), (954, 544), (953, 545), (953, 546), (953, 547), (953, 548), (953, 550), (953, 553), (953, 554), (953, 556), (953, 561), (953, 563), (953, 564), (953, 565), (953, 568), (953, 570), (953, 571), (953, 571), (953, 575), (953, 576), (954, 578), (954, 578), (954, 581), (955, 583), (955, 584), (956, 586), (960, 592), (961, 594), (962, 596), (964, 600), (972, 612), (978, 623), (987, 641), (1005, 672), (1053, 746), (1077, 782), (1100, 816), (1123, 847), (1161, 900)]",60.82392093202147,"[1, 9, 7, 3, 4, 2, 8, 5, 6]","(0, 0.25)",THI010C,THI,C,English,Tue Sep 04 11:28:50 2018,Mouse
1,2,3,0,52,5,4,0,-1758,1588,170,136,0,500,200,8000,"[(960, 540), (960, 540), (960, 540), (960, 540), (960, 540), (960, 540), (960, 540), (960, 540), (960, 540), (960, 540), (960, 540), (960, 540), (960, 540), (960, 540), (960, 540), (960, 540), (960, 540), (960, 540), (960, 540), (960, 540), (960, 540), (960, 540), (960, 540), (960, 540), (960, 540), (960, 540), (960, 540), (960, 540), (960, 540), (960, 540), (960, 540), (960, 540), (960, 540), (960, 540), (960, 540), (960, 540), (960, 540), (960, 540), (960, 540), (960, 540), (960, 540), (960, 540), (960, 540), (960, 540), (960, 540), (960, 540), (960, 540), (960, 540), (960, 540), (960, 540), (960, 540), (960, 540), (960, 540), (960, 540), (960, 540), (960, 540), (960, 540), (960, 540), (960, 540), (960, 540), (960, 540), (960, 540), (960, 540), (960, 540), (960, 540), (960, 540), (960, 540), (960, 540), (960, 540), (960, 540), (960, 540), (960, 540), (960, 540), (960, 540), (960, 540), (960, 540), (960, 540), (960, 540), (960, 540), (960, 540), (960, 540), (960, 540), (960, 540), (960, 540), (960, 540), (960, 540), (960, 540), (960, 540), (960, 540), (960, 540), (960, 540), (960, 540), (960, 540), (960, 540), (960, 540), (960, 540), (960, 540), (960, 540), (960, 540), (960, 540), (960, 540), (960, 540), (960, 540), (960, 540), (960, 540), (960, 540), (960, 540), (960, 540), (960, 540), (960, 540), (960, 540), (960, 540), (960, 540), (960, 540), (960, 540), (960, 540), (960, 540), (960, 540), (960, 540), (960, 540), (960, 540), (960, 540), (960, 540), (960, 540), (960, 540), (960, 540), (960, 540), (960, 540), (960, 540), (960, 540), (960, 540), (960, 540), (960, 540), (960, 540), (960, 540), (960, 540), (960, 540), (960, 540), (960, 540), (960, 540), (960, 540), (960, 540), (960, 540), (960, 540), (960, 540), (960, 540), (960, 540), (960, 540), (960, 540), (960, 540), (960, 540), (960, 540), (960, 540), (960, 540), (960, 540), (960, 540), (960, 540), (960, 540), (958, 540), (956, 540), (954, 540), (950, 540), (945, 540), (932, 540), (922, 540), (910, 540), (898, 540), (862, 540), (842, 540), (814, 540), (778, 540), (703, 540), (670, 540), (631, 540), (606, 540), (553, 540)]",180.0,"[1, 9, 7, 3, 4, 2, 8, 5, 6]","(0, 0.25)",THI010C,THI,C,English,Tue Sep 04 11:28:50 2018,Mouse
1,2,3,0,53,3,3,1,1121,670,451,137,0,500,200,8000,"[(960, 540), (960, 540), (960, 540), (960, 540), (960, 540), (960, 540), (960, 540), (960, 540), (960, 540), (960, 540), (960, 540), (960, 540), (960, 540), (960, 540), (960, 540), (960, 540), (960, 540), (960, 540), (960, 540), (960, 540), (960, 540), (960, 540), (960, 540), (960, 540), (960, 540), (960, 540), (960, 540), (960, 540), (960, 540), (960, 540), (960, 540), (960, 540), (960, 540), (960, 540), (960, 540), (960, 540), (960, 540), (960, 540), (960, 540), (960, 540), (960, 540), (960, 540), (960, 540), (960, 540), (960, 540), (960, 540), (960, 540), (960, 540), (960, 540), (960, 540), (960, 540), (960, 540), (960, 540), (960, 540), (960, 540), (960, 540), (960, 540), (960, 540), (960, 540), (960, 540), (960, 540), (960, 540), (960, 540), (960, 540), (960, 540), (960, 540), (951, 539), (945, 537), (941, 535), (936, 534), (934, 534), (934, 534), (934, 534), (934, 534), (934, 534), (934, 534), (934, 534), (934, 534), (932, 543), (932, 549), (928, 559), (925, 565), (917, 572), (912, 575), (907, 579), (898, 586), (869, 606), (849, 620), (831, 628), (819, 633), (801, 644), (798, 646), (793, 648), (789, 650), (785, 654), (781, 656), (777, 657), (771, 660), (763, 666), (756, 671), (750, 678), (743, 688), (731, 711), (722, 726), (715, 739), (708, 750), (695, 771), (689, 781), (682, 787), (677, 794), (665, 809), (657, 818)]",137.46387510200643,"[1, 9, 7, 3, 4, 2, 8, 5, 6]","(0, 0.25)",THI010C,THI,C,English,Tue Sep 04 11:28:50 2018,Mouse
1,2,3,0,54,2,2,1,659,509,150,137,0,500,200,8000,"[(960, 540), (960, 540), (960, 540), (960, 540), (960, 540), (960, 540), (960, 540), (960, 540), (960, 540), (960, 540), (960, 540), (960, 540), (960, 540), (960, 540), (960, 540), (960, 540), (960, 540), (960, 540), (960, 540), (960, 540), (960, 540), (960, 540), (960, 540), (960, 540), (960, 540), (960, 540), (960, 540), (960, 540), (960, 540), (960, 540), (960, 540), (960, 540), (960, 540), (960, 540), (960, 540), (960, 540), (960, 540), (960, 540), (960, 540), (960, 540), (960, 540), (960, 540), (960, 540), (960, 540), (960, 540), (960, 540), (960, 540), (960, 540), (960, 540), (960, 540), (957, 539), (952, 534), (947, 528), (920, 505), (910, 496), (893, 484), (874, 467), (831, 433), (806, 417), (781, 398), (756, 381), (707, 345), (695, 333), (679, 319), (664, 305), (639, 282)]",218.79017385281372,"[1, 9, 7, 3, 4, 2, 8, 5, 6]","(0, 0.25)",THI010C,THI,C,English,Tue Sep 04 11:28:50 2018,Mouse
1,2,3,0,55,7,7,1,1620,40,1580,136,0,500,200,8000,"[(960, 540), (960, 540), (960, 540), (961, 540), (961, 540), (961, 540), (961, 540), (961, 540), (961, 540), (961, 540), (961, 540), (961, 540), (961, 540), (961, 540), (961, 540), (961, 540), (961, 540), (962, 540), (962, 540), (962, 540), (962, 540), (962, 540), (962, 540), (962, 540), (962, 540), (962, 540), (962, 540), (962, 540), (962, 540), (962, 540), (962, 540), (962, 540), (962, 540), (962, 541), (962, 541), (962, 541), (962, 541), (962, 541), (962, 541), (962, 541), (962, 541), (962, 542), (962, 542), (962, 542), (962, 543), (962, 543), (962, 543), (962, 543), (962, 543), (962, 543), (962, 543), (962, 544), (962, 544), (962, 544), (962, 544), (962, 544), (962, 544), (962, 544), (962, 544), (962, 544), (962, 544), (962, 544), (962, 544), (962, 544), (962, 544), (962, 544), (962, 544), (962, 544), (962, 545), (962, 545), (962, 545), (962, 545), (962, 545), (962, 546), (962, 546), (962, 547), (962, 547), (962, 547), (962, 547), (962, 547), (962, 547), (962, 547), (961, 549), (961, 549), (961, 549), (961, 549), (961, 549), (961, 549), (961, 549), (961, 549), (961, 550), (961, 550), (961, 550), (961, 550), (961, 550), (961, 550), (961, 550), (960, 551), (960, 551), (960, 551), (960, 551), (960, 551), (960, 551), (960, 551), (960, 551), (960, 551), (960, 551), (960, 551), (960, 551), (960, 551), (960, 551), (960, 551), (960, 551), (960, 551), (960, 551), (960, 551), (960, 551), (960, 551), (960, 551), (960, 551), (960, 551), (960, 551), (960, 551), (960, 551), (960, 551), (960, 551), (960, 551), (960, 551), (960, 551), (960, 551), (960, 551), (960, 551), (960, 551), (960, 551), (960, 551), (960, 553), (960, 554), (960, 555), (960, 557), (959, 560), (959, 564), (959, 569), (957, 575), (954, 591), (954, 601), (953, 611), (953, 621), (948, 645), (947, 656), (946, 668), (946, 683), (946, 721), (946, 744), (946, 769), (946, 789), (946, 825), (946, 842), (946, 862), (944, 882), (944, 912), (944, 929), (944, 940)]",92.29061004263853,"[1, 9, 7, 3, 4, 2, 8, 5, 6]","(0, 0.25)",THI010C,THI,C,English,Tue Sep 04 11:28:50 2018,Mouse
1,2,3,0,56,1,1,1,489,269,220,135,0,500,200,8000,"[(960, 540), (960, 540), (960, 540), (960, 540), (960, 540), (960, 540), (960, 540), (960, 540), (960, 540), (960, 540), (960, 540), (960, 540), (960, 540), (960, 540), (960, 540), (960, 540), (960, 540), (960, 540), (960, 540), (960, 540), (960, 540), (960, 540), (960, 540), (960, 540), (960, 540), (960, 540), (961, 540), (961, 540), (963, 540), (966, 540), (970, 540), (976, 541), (1008, 554), (1032, 565), (1058, 577), (1087, 590), (1139, 611), (1166, 623), (1184, 631), (1199, 638), (1220, 645), (1231, 650), (1241, 653), (1250, 655), (1270, 662), (1281, 666), (1293, 671), (1312, 679), (1353, 695)]",21.524377106929958,"[1, 9, 7, 3, 4, 2, 8, 5, 6]","(0, 0.25)",THI010C,THI,C,English,Tue Sep 04 11:28:50 2018,Mouse
1,2,3,0,57,9,3,0,-1788,48,1740,134,0,500,200,8000,"[(960, 540), (960, 540), (960, 540), (960, 540), (959, 538), (959, 538), (959, 538), (959, 538), (959, 538), (959, 538), (959, 538), (959, 538), (959, 538), (959, 538), (959, 538), (959, 538), (959, 538), (959, 538), (959, 538), (959, 538), (959, 538), (959, 538), (959, 538), (959, 538), (959, 538), (959, 538), (959, 538), (959, 538), (958, 538), (958, 538), (958, 538), (958, 538), (958, 538), (957, 537), (957, 537), (957, 537), (957, 537), (957, 537), (956, 536), (956, 536), (956, 536), (956, 536), (956, 536), (956, 536), (956, 536), (956, 536), (956, 536), (956, 536), (956, 536), (956, 536), (956, 536), (955, 536), (954, 535), (954, 535), (954, 535), (954, 535), (954, 535), (954, 535), (954, 535), (953, 534), (953, 534), (953, 534), (953, 533), (953, 533), (953, 533), (951, 533), (951, 533), (951, 533), (951, 533), (951, 533), (950, 533), (949, 533), (948, 533), (947, 533), (946, 533), (943, 533), (943, 533), (942, 533), (941, 533), (941, 533), (941, 533), (941, 533), (941, 533), (941, 533), (941, 533), (941, 533), (941, 533), (941, 533), (940, 533), (940, 533), (940, 533), (939, 533), (939, 533), (938, 533), (937, 533), (937, 533), (936, 533), (935, 534), (934, 534), (932, 534), (931, 535), (931, 535), (930, 535), (929, 536), (929, 536), (929, 536), (929, 536), (928, 536), (928, 536), (928, 536), (927, 536), (926, 536), (926, 536), (924, 536), (924, 536), (921, 537), (918, 538), (917, 538), (915, 539), (912, 540), (910, 541), (908, 541), (907, 541), (904, 544), (902, 545), (900, 547), (898, 550), (894, 557), (890, 562), (884, 571), (880, 575), (869, 586), (863, 592), (857, 598), (849, 607), (835, 624), (826, 634), (815, 646), (806, 657), (785, 673), (776, 678), (769, 685), (761, 690), (743, 706), (736, 713), (729, 721), (727, 727), (712, 738), (708, 741), (705, 750), (702, 755), (698, 762), (694, 767), (693, 771), (692, 776), (689, 781), (689, 783), (689, 783), (689, 784), (689, 784), (689, 784), (689, 784), (689, 785), (688, 786), (687, 788), (685, 789), (685, 789), (683, 791), (683, 792), (682, 793), (681, 793), (679, 795), (678, 796), (677, 796), (676, 797), (672, 800), (668, 802), (666, 804), (661, 807)]",138.23589250854124,"[1, 9, 7, 3, 4, 2, 8, 5, 6]","(0, 0.25)",THI010C,THI,C,English,Tue Sep 04 11:28:50 2018,Mouse
